acc_x,acc_y,acc_z,gyro_x,gyro_y,gyro_z,activity
-0.9386983763232405,-0.2475658278284567,4.595854368984302,0.03129395010615695,0.08322298425302516,-0.00871573414908578,0.0
-0.9283874092868805,-0.2475658278284567,4.611502924161731,0.024621172503292446,0.13242718078118715,-0.01768392402591311,0.0
-0.9318243982990003,-0.25102071656062536,4.572381536218157,-0.003096513298928624,0.060573432411786386,0.007590068621434709,0.0
-0.9283874092868805,-0.2475658278284567,4.603678646573017,-0.08419641053333955,0.071507698571542,0.06466037614302764,0.0
-0.9386983763232405,-0.21647182545916357,4.509787315508439,-0.12012674328505384,0.0808799256878426,0.08667320923066163,0.0
-0.9455723543474804,-0.23374626912000668,4.46284164997615,-0.06777111350411115,0.012150255405351924,0.14781996946474002,0.0
-0.9077654752141604,-0.2579304940249626,4.572381536218157,-0.05288568895175344,-0.05736043916181936,0.22282666109044513,0.0
-0.9077654752141604,-0.2579304940249626,4.572381536218157,-0.1021615769091967,0.2667624527851646,0.32229206277612343,0.0
-0.9318243982990003,-0.254475605292794,4.65844804185215,-0.01079587098791926,0.0894711356638922,0.2350560111484802,0.0
-0.9318243982990003,-0.254475605292794,4.65844804185215,-0.02208826132603292,0.06447852763894744,0.24565477987292347,0.0
-0.9593201900700604,-0.254475605292794,4.486314482742294,-0.040053427701890056,-0.06204654676627827,0.2733746426561771,0.0
-0.9730681461185408,-0.25102071656062536,4.580205813806873,-0.03030090905808663,-0.2526151957569185,0.32310734349901626,0.0
-0.9868161021670205,-0.254475605292794,4.541084425863298,-0.07393060028135204,-0.3026003879920425,0.41686572046102655,0.0
-0.9386983763232405,-0.26829516022146843,4.634975756927876,-0.13244571683953565,-0.16045494934850843,0.44458558324428016,0.0
-0.9386983763232405,-0.26829516022146843,4.595854368984302,-0.12423306362955842,0.012150255405351924,0.4087127939052618,0.0
-0.9112024642262804,-0.3926711659188655,4.634975756927876,-0.07855021145148021,-0.014404389281571329,0.5220381269825667,0.0
-0.9077654752141604,-0.4099456095797086,4.666272319440864,0.09340209618322158,-0.0909442500183841,0.5872613405506246,0.0
-0.9077654752141604,-0.4099456095797086,4.666272319440864,0.08005654723797663,-0.2877610456569381,0.6965101904622412,0.0
-0.9180764422505202,-0.4306749419727203,4.517611593097154,-0.061098339031488674,-0.5134755254957858,0.9394667097283808,0.0
-0.8905805301535601,-0.4168553870440458,4.46284164997615,-0.158623530164886,-0.5775191072256299,1.0870342309233065,0.0
-0.8424628043097802,-0.4583140518300693,4.3845988740890025,-0.08676286466145744,-0.4845778127177738,1.1750855036104244,0.0
-0.8424628043097802,-0.4583140518300693,4.3845988740890025,0.036426852101908685,-0.27604576235693157,1.2721050631274242,0.0
-0.75310133064646,-0.46176894812178904,4.627151479339161,0.34388784379397447,-0.24558601053546475,1.171824380718853,0.0
-0.6912356487541998,-0.45140427436573205,4.627151479339161,0.32797584698109555,0.33158702545901764,0.9125620878924078,0.0
-0.8287149685872002,-0.2752049395756935,3.6569429757850735,-0.42194154215574414,2.801950124701387,1.3528188490841189,0.0
-0.9868161021670205,-0.41340049831187725,4.345478033987299,-0.9244529161146047,1.6546332188820643,1.8085659042351812,0.0
-0.9868161021670205,-0.41340049831187725,4.345478033987299,-0.14887101073852207,0.08478502329648019,1.6389856046440883,0.0
-0.8733957054188602,-0.41340049831187725,4.8931763695135935,0.3726321300288947,-0.0034701255032922465,1.7482344147800928,0.0
-0.9558832010579404,-0.3581222748174038,4.713217984973154,0.20016651278711722,0.47919961028055036,2.0865799321174467,0.0
-0.9661941680943005,-0.3995809433832027,4.955770042381442,0.1570501209976409,0.7650525837665106,2.7200603327422046,0.0
-0.9490092230337002,-0.555050951449893,4.8931763695135935,0.40496943326172796,0.12461699508981815,2.958125008568538,0.0
-0.9008914971899202,-0.7036111744926948,4.306356646043725,0.29923158578811143,-0.8641530907074116,2.9695390182402632,0.0
-0.9730681461185408,-0.7174307294213691,4.501963037919724,0.5866742728437617,-2.4308772034431327,3.1872213975649895,0.0
-0.9249504202747605,-0.6103291560454888,4.181168478545223,0.26894744585777236,-1.425705717215531,3.2883176391257396,0.0
-0.7977820674781201,-0.6137840523372083,4.814933593626445,0.42755420454722937,-0.8547808183430564,3.059220931924389,0.0
-0.9352613873111205,-0.5239569453008242,4.955770042381442,0.6795798058534007,-0.6618691774685771,3.0730809826428542,0.0
-0.9833791131549007,-0.5412313965212184,4.767987928094157,0.357746702346295,-1.0976777086080973,3.4921399677320037,0.0
-0.8733957054188602,-0.6276036072658829,4.580205813806873,0.3197631937711183,-1.6022160338668883,3.298100848698005,0.0
-0.6293699668619397,-0.7657991867908323,4.603678646573017,0.6513488292255559,-0.9875540417776728,2.281434292098727,0.0
-0.75310133064646,-0.6448780584862771,4.196816759801718,0.44757252796509667,0.05744935670635287,1.987929731603437,0.0
-1.1861610437293313,-0.3581222748174038,3.7195369225738566,-0.1688893341563895,1.9053402853125676,2.395574866123313,0.0
-1.0624296197818608,-0.4479493931931145,3.836900812483643,-0.5959470381348765,1.522641043546894,2.71272284601178,0.0
-0.9318243982990003,-0.5619607289142301,5.31568626362045,0.14267797788018083,-1.2124875116206992,2.557817519881534,0.0
-0.9008914971899202,-0.47904338422308107,5.597359708972311,1.6969215335860872,-1.8990031853979719,2.4607981194669826,0.0
-0.8665217273946204,-0.5446862776938359,4.752339372916728,1.9458674275014218,-0.9383498404865578,2.220287402593909,0.0
-0.7771601334054,-0.6517878510697165,4.314180923632439,1.82473096794781,-0.838379417912685,2.139573775739663,0.0
-0.6293699668619397,-0.7036111744926948,4.11074998024679,1.8724669083025738,-1.2741880252594544,2.0914716960060282,0.0
-0.6706137146814796,-0.56541562520595,4.095101425069361,2.2369032066807937,-1.545201580203061,3.5541020981841043,0.0
-0.5365715041864995,-0.4444944969013948,4.1733442009565085,2.570541930311917,-1.0695610439295313,4.44847551218354,0.0
-0.4850167893305993,-0.3615771635495723,3.9229678659595058,2.3508536322385787,0.3932875200459606,3.99680466176888,0.0
-0.4850167893305993,-0.3615771635495723,3.9229678659595058,0.3751985778965286,1.2211676796263835,4.427277974734653,0.0
-0.16537741283293833,-0.7070660707844145,3.5552273671317813,-0.8679909628589153,0.44249172133707565,5.241752684622226,0.0
-0.051957016084778,-0.9143594249527363,3.7038883673964267,-1.2226747292898024,-3.922623594507512,6.802217728162133,0.0
-0.10351173094067816,-1.1112880902458988,3.727361200162571,-0.620584947680936,-9.081254172872885,8.198810113356602,0.0
-0.14819258809823846,-0.9800022730661845,3.3909180856106405,-0.38293146445028853,-13.035552629682611,7.411239627548881,0.0
-0.2203691167009584,-0.8314420349042804,3.0231775867829156,-0.6513823721764144,-15.853469920966752,6.446751673624539,0.0
-0.06914196114537814,-0.8210774065055302,2.4207095820565527,-0.9598699267382752,-17.63106924741347,6.233960421778597,0.0
0.013345534493702103,-0.9350887422266458,2.631964803030917,-0.7329955946691112,-18.195745456661378,6.090469741729868,0.0
-0.13444463204975823,-1.1112880902458988,3.265729918112139,-1.6656443424343916,-17.05155274323984,4.911560054065024,0.0
-0.44377292118515915,-1.1769309383593471,3.9073193107820763,-3.3841409999027476,-12.055373768150291,3.4456683698929313,0.0
-0.83558882628554,-1.0940136087873,3.1248931954362082,-3.2722436124377756,-8.525168654439138,3.3421267236952366,0.0
-0.83558882628554,-0.8590812052380384,2.444182414822697,-2.3134169261374637,-8.139344763032184,2.120006720185338,0.0
-0.1275706540255184,-0.8729007299285082,2.021672246794904,-2.175855160163898,-7.283348357913067,0.8334789429327233,0.0
0.3639176917745437,-1.0698293952216706,0.8480332107365699,-3.613068370064724,-9.487383943134947,-1.0253825045422786,0.0
0.8141622897550634,-1.3980438776945476,0.16732246436317597,-2.2641410068776007,-8.075301409924089,-1.4689003090743364,0.0
0.32954804230514284,-1.4947807319570645,0.04213426262455727,1.1938968500201512,-5.012925894248507,0.990014671406307,0.0
0.02709349054218205,-1.58460791458896,-0.7872373812931318,1.8775999042055875,-2.618321888657737,2.972800300234283,0.0
-0.1275706540255184,-1.4671416825761243,-1.99999780529504,-0.31517712555184857,-1.9614847471361734,2.8920866733800357,0.0
-0.10351173094067816,-1.349675450563289,-2.344265334396153,-0.8171752149455694,-3.431362401074058,1.7710625932259894,0.0
-0.5503193399090793,-0.9765473767744648,-2.3833865853792595,-0.700658291436278,-3.758609437789294,1.077250703146144,0.0
-0.5778152520060396,-0.9523631632088354,-2.0938889993991507,-0.948064256530385,-3.331392207121932,-1.3213327878794108,0.0
0.38797661485938423,-1.0041864866318135,1.427028519657256,1.6378931825466365,4.82478925708973,-5.700256343993547,0.0
0.3501697357260629,-1.5086003171239435,-0.25518763518438375,1.0332370031540086,2.8331908293632377,-5.181731599238208,0.0
0.4910860445711834,-1.3807693962359489,-0.11435094674856956,-0.12679952401816036,3.0878032124982226,-5.185808122179508,0.0
0.9207087084789848,-1.349675450563289,-0.5133882563301306,-2.6968450288871444,0.01527433111078545,-4.9216541450157045,0.0
1.0959949074453055,-1.4533220974092456,-1.3662326902138182,-3.1885773017683916,0.29722218555481933,-4.169956488322615,0.0
0.7763556512735443,-1.3151265481225007,-0.6855219952005994,-2.3077708710467366,-0.21512627776580992,-4.718646739151825,0.0
0.23674933897790285,-0.8729007299285082,-1.6244333027995361,-1.3663960102127872,0.7541182914105132,-6.827802033520941,0.0
0.2883041741597033,-0.36848694479368516,-1.9452279991345043,0.9115870837417047,1.7436693490999393,-0.02094508669309661,0.0
1.2334742272783061,-1.3082167555390614,-2.6337629203762623,0.03283381945278566,1.8327054793178146,-0.8117764890564023,0.0
0.9482046205759452,-0.8348969311960001,-1.7339729151206078,-0.019521808958676168,1.9201796657512966,-2.57606433850992,0.0
0.31236309724454325,-1.2356640543657649,-1.3505842035166227,-0.12474636071566604,2.623877864265638,-0.8280823421679322,0.0
0.07521133671186228,-1.0387353890726019,-0.6855219952005994,0.13703178505880548,3.379904075432629,-0.9414075956940128,0.0
0.2230013829294229,-0.8901751509106981,-1.507069412889749,0.6646944282546734,2.0880988343449944,-0.6805148209730064,0.0
0.4945230335833028,-0.8176225102138105,-0.967195389192286,0.6436494856226544,1.8936250972716229,-0.733508664595223,0.0
0.5907584852708649,-0.9247240533514866,-0.38820007920159627,0.18220135267174425,1.557786912498726,-2.044495102188295,0.0
0.33298479066546277,-0.7243404917666044,-0.5994551300453796,0.014868653076928516,0.8267530974052663,-2.235273098330724,0.0
0.19206872247214307,-0.7070660707844145,-0.4351456452235453,-0.31671700428920335,0.4299954089894354,-2.8606006121753267,0.0
0.21956439391730215,-0.7174307294213691,-0.22389059330975833,-0.3336555952742974,-0.9289776443294523,-4.138975423096565,0.0
0.27111922909910285,-0.6621525097066713,-0.3647272945856163,-0.273600599978759,-1.0109846464813106,-3.5364760876978574,0.0
0.20925366753274266,-0.49631783544347524,-0.4820912144555053,-0.13398558305592237,-0.4978551350612354,-3.592731213314094,0.0
0.0889592927603425,-0.3581222748174038,-0.7715888603558192,-0.16683618337486325,0.3308060154631963,-4.18463177998836,0.0
0.43609446102906524,-0.40649072084753995,-1.1784504389660662,-0.10421474021169101,1.4382908970966974,-3.578055921648352,0.0
0.8485321798762632,-0.49977271661609274,-0.521212516798787,-0.1842880589250968,2.4161266905379293,-2.5874783481816435,0.0
0.6354393424284233,-0.3823064997223596,-0.38820007920159627,-0.11704699833131238,1.7155526844213735,-2.722816618757565,0.0
0.5254559346923826,-0.26829516022146843,-0.3177817274936637,-0.17658870280122718,1.4304807209312345,-2.493720070658664,0.0
0.47390109951058434,-0.13700937705973418,-0.2708361646817256,-0.04877936547700684,0.9048549352671438,-1.901819344881951,0.0
0.5735735402102636,-0.11973494095844218,-0.2943089460876947,-0.026194585583340025,0.5229366653936668,-1.258555496031256,0.0
0.6423133204526631,0.01155084598306764,-0.4586184287695217,0.0882691879269858,0.15898182546811038,-0.2427040013890043,0.0
0.4429684390533045,-0.08864093480937348,-0.20041781190378932,0.0821097042799869,-0.22918461010509297,0.09238024389823277,0.0
0.412035537944222,-0.08173115734503623,-0.216066332841102,0.10418119726083269,-0.554088502521992,0.19429149769649265,0.0
0.43265747201694316,-0.09555071227371073,-0.1221752072172259,0.1431912749662884,-1.1047069128813634,0.22038079903396057,0.0
0.4051615599199827,-0.10246048973804797,-0.34907877364830364,0.2602215080826556,0.126179024607367,0.4780124508633958,0.0
0.3192370752687831,-0.13700937705973418,-0.5446852982047561,0.11957990950857192,0.998577277874446,0.029602902330562668,0.0
0.539203890740864,-0.26484027148929984,-1.2488688003040314,0.29358538044576793,3.0878032124982226,-0.3413541024639838,0.0
0.30548911922030286,-0.09900560856543045,0.2768621109243648,0.07492363898174086,1.257094520470412,0.10134843128908431,0.0
0.370791669798783,-0.13355449588711668,0.12820114489983553,0.3177100304686241,1.8420777516821696,-0.00871573414908578,0.0
0.4017245709078628,-0.09900560856543045,-0.23953911424707108,0.0821097042799869,1.7670998775963278,0.08585791856386578,0.0
0.4017245709078628,-0.1093702672023852,-0.3099574670250073,0.07800338393548233,2.2911637194760255,0.00595948853083084,0.0
0.21612764555698277,-0.029907818802955826,0.5194141683326527,0.20324627026182682,1.3406636188211627,0.24483949915003067,0.0
0.253934284038503,-0.05409204748768734,0.644602404311388,0.06157809003649591,-1.0484735835242314,0.33615199416775016,0.0
0.4257834939927033,-0.08173115734503623,-0.5994551300453796,0.01640852555379925,1.0993286723405153,0.36794832022888635,0.0
0.3639176917745437,-0.07136648358897929,0.2455650690497392,0.028214205152415472,1.08995647618341,0.4429549820228822,0.0
0.4223465049805834,-0.16464848691708314,0.38640179172567,0.03694014292753226,-0.16826512551397124,0.29375689938217087,0.0
0.3639176917745437,-0.16119360574446565,0.08907982543649534,0.0025496810875677046,-0.20497303350925838,0.35816483222733597,0.0
0.346732746713943,-0.1577387094527459,-0.09087814822254207,0.024107881677668877,0.30347034172863935,0.46822900263745737,0.0
0.3982875818957434,-0.19228760433398326,-0.028284064473291334,0.05028569813326124,0.5526153881675002,0.5872613405506246,0.0
0.5013970116075415,-0.19228760433398326,-0.4586184287695217,0.04925911648201409,1.8155231832024958,0.2603300118752492,0.0
0.33298479066546277,-0.10246048973804797,-0.2630119042130693,0.0815964134543633,2.758994231998591,0.3818082516205132,0.0
0.3536067247381831,-0.12318982213105971,-0.09087814822254207,0.01332878060005779,5.044255771272883,0.6541151553400801,0.0
0.11645496420550212,-0.20265227053048912,0.5585354877959929,0.06209138086211949,5.534735383156143,0.3932223010678492,0.0
-0.35097445850971887,-0.21301693672699495,0.9419242678802123,0.18630767927673278,4.985679221410162,1.6781195566502902,0.0
0.47046411049846226,-0.1750131606731401,1.3566101583192904,-0.1083210605561956,3.409582836310087,2.1950135013061707,0.0
0.5666995621860244,-0.22683649165566944,1.9903751364400448,0.045666080702649055,0.618220989888987,1.4906028425018818,0.0
0.7282378051038633,-0.34430271988872924,1.223597713232074,0.28177971023787785,-0.6150079680613013,2.1730005638075545,0.0
0.47390109951058434,-0.37539672225802234,0.8480332107365699,0.15345707895779193,-0.45958522612611796,1.8436234924025312,0.0
0.23674933897790285,-0.3823064997223596,1.0984095457335727,-0.061611629857112236,-0.5415922282779766,1.4824499557217292,0.0
0.23674933897790285,-0.3823064997223596,1.0984095457335727,-0.09805525030420809,-1.56004096064179,1.558271818687394,0.0
0.07864832572398248,-0.3270282743379983,1.2079491580546449,-0.036973685878390616,-1.8505800322063028,2.3458421453926674,0.0
0.5185819566681433,-0.4030358321153713,0.8558574883252845,-0.05493885225424775,-1.3889979044793057,1.9667321941545504,0.0
0.13020292025398264,-0.5308667227651614,0.9732213782350715,-0.0015566423871789005,-1.28980837759038,2.3882372202904407,0.0
0.13020292025398264,-0.5308667227651614,0.9732213782350715,0.0030629719131912733,-1.1109550690551837,1.600666893585167,0.0
0.253934284038503,-0.5585058326225104,0.8793301841309612,0.0815964134543633,-1.0180137745473274,0.5522038717101111,0.0
0.40859854893210207,-0.5619607289142301,0.6680751685972983,0.012815492904676219,-0.6431247089471168,-0.5900175867903733,0.0
0.40859854893210207,-0.5619607289142301,0.6680751685972983,-0.029787619015023557,-0.37367313589152823,-1.3091034577091818,0.0
-0.15162957711035838,-0.45140427436573205,0.8167361003817107,-0.19044753631161174,-0.4541180799481191,-3.3065641395492267,0.0
0.41890951596846404,-0.56541562520595,0.7228449747578347,-0.31671700428920335,-0.46973847038266947,-1.8480102603124537,5.0
1.023818138190784,-0.4237651645083831,0.04995854021327206,-0.29464551756884155,-0.44943198186956645,-2.549159796225171,5.0
0.7454227501644645,-0.4168553870440458,0.19079526288920334,-0.07547047275822277,-0.22996563915272666,-2.7668421755498995,5.0
0.00990854548158191,-0.3270282743379983,0.5820082520819032,-0.14835772617338253,-0.6220371723345673,-1.9425839378851628,5.0
1.2815918327961855,-0.3995809433832027,0.44117159788620597,-0.040053427701890056,-0.41038102483500294,-1.413460583507829,5.0
0.851969168888383,-0.23374626912000668,0.315983430387705,-0.19506716000270788,-0.12452807040085496,-0.3666280833029467,5.0
0.6079434303314634,-0.21992671419133222,0.44899587547492054,-0.11448055046367854,0.0387049006876443,-0.13753157497965793,5.0
0.45327916543786373,-0.21301693672699495,0.535062723510082,-0.026194585583340025,0.011369235883624406,-0.04295791729475487,5.0
0.4017245709078628,-0.3062989402913348,0.6133053624367624,-0.11037422385868993,-0.6501538370131335,-0.263086258114998,5.0
0.4051615599199827,-0.3270282743379983,0.4724686397608315,-0.07649705440946995,-0.7766789042739294,-0.31118837762424556,5.0
0.37766564782302225,-0.3270282743379983,0.5037656816354571,-0.008229418424922382,-0.8438466021943084,-0.1570985310949528,5.0
0.45327916543786373,-0.25102071656062536,0.35510474985104457,0.10366791269569313,-0.5634607367827222,0.032048771844974525,5.0
0.5151449676560234,-0.2717500508435248,0.18297098530048816,0.14627101992002986,0.34330230875902423,0.39974462640221614,5.0
0.48421206654694354,-0.26484027148929984,0.2455650690497392,0.364932761384057,1.1321314732012588,0.6255799720583215,5.0
0.6216913863799453,-0.2579304940249626,0.18297098530048816,0.2602215080826556,2.2513317143420157,0.5171464028695978,5.0
0.6869939369584248,-0.35466738608523507,0.5037656816354571,-0.13090583810218093,3.039379906892054,0.14129764413037302,5.0
-0.01758712596357772,-0.28902449544931186,1.5991622157275782,-0.045699623653507396,-0.7860511766382845,-0.19867832526983323,5.0
0.253934284038503,-0.295934273386121,0.9653971006463563,0.03283381945278566,-0.9336637805116297,0.1592340288559792,5.0
0.6148174083557026,-0.49286293915175544,-1.4210025648545874,0.4198548609443278,4.450681163381717,-0.060079011353565165,5.0
0.18175775543578224,-0.30975382925973943,1.6148107709050084,-0.12064003411067742,1.5312321916045535,-0.20601595121489916,5.0
0.02709349054218205,-0.26484027148929984,1.6069864933162934,0.05541860012901296,0.2300545638416898,0.09238024389823277,5.0
0.20925366753274266,-0.295934273386121,1.0827609905561433,0.04617937152827262,0.12071189748118055,0.08585791856386578,5.0
0.322674064280903,-0.295934273386121,1.004518351629463,-0.016955356542409383,0.03323776768218764,-0.0005628324530785629,5.0
0.35704371375030275,-0.3166636071965486,0.9497485454689271,-0.02773445649508975,0.06604056668240249,-0.06497075038238888,5.0
0.3639176917745437,-0.3512124973530665,0.8871544617196759,0.16166973216776914,0.3971926081286921,-0.0038239926342862984,5.0
0.31236309724454325,-0.31320871846438,1.035815461984322,0.32027650337819397,0.16522998164193053,-0.046219079961938345,5.0
0.41890951596846404,-0.33739294242439194,0.8949787393083904,0.47990983119792985,0.6799214654241176,0.05976863711420389,5.0
0.2848671851475825,-0.3201184968736611,0.8167361003817107,0.20991904473444922,0.21990130053332588,0.01737355009729882,5.0
0.2848671851475825,-0.3201184968736611,0.8167361003817107,0.015381943902552089,-0.15811188125741968,0.05487689559940441,5.0
0.31236309724454325,-0.2993891623545256,0.9575728230576416,0.06517111955537692,0.18319341158985103,0.19673737964078328,5.0
0.31236309724454325,-0.2993891623545256,0.9575728230576416,0.17142225159413313,0.08166094520957011,0.08911908123104925,5.0
0.38797661485938423,-0.27865982830786207,0.9262757127027826,0.018461685726051547,0.04026693854036107,0.1845080295827482,5.0
0.370791669798783,-0.2095620479948263,0.9575728230576416,-0.07444389110697562,-0.0026891059815647377,0.33533669355705126,5.0
0.31236309724454325,-0.16464848691708314,0.9575728230576416,-0.2407500121807862,-0.15654984221396465,0.4608913965801977,5.0
0.29517815218394283,-0.1888327156018146,0.9184515720745351,-0.1837747618389892,-0.02924375066848797,0.704663156793618,5.0
0.3948505928836235,-0.2993891623545256,0.9262757127027826,0.0703040278116127,-0.6704603255262365,0.1306988754059297,5.0
0.5254559346923826,-0.5205020490091045,0.8871544617196759,0.0405331787068973,-0.005032164546747287,-0.4171760847564847,5.0
0.3982875818957434,-0.36503205228174096,0.83238465555914,-0.04108000935313721,-0.080009986240105,-0.3617363591899775,5.0
0.24018632799002249,-0.22338160292350082,0.9497485454689271,-0.0025832224733050462,-0.28385593852239455,0.10624017528985957,5.0
0.2917411631718229,-0.22683649165566944,0.7150206971691195,0.01435536225130495,0.22771149575060104,0.337782575501342,5.0
0.4154725269563441,-0.2717500508435248,0.7776148493986041,0.0882691879269858,0.4682653560281776,0.33370611222345953,5.0
0.4773380885227037,-0.46522382929440653,0.9028030168971058,0.01435536225130495,0.34642638684593435,-0.27613088889592613,5.0
0.2883041741597033,-0.37539672225802234,1.0749367129674288,-0.032867360838523,-0.3088485441658627,-0.2435192821118971,5.0
0.322674064280903,-0.33048316307016695,0.981045655823786,0.033860401104032815,-0.2198123948961751,-0.24596516405618776,5.0
0.33642177967758297,-0.2717500508435248,0.9653971006463563,0.06773757368349481,-0.15264475413123327,-0.25085690805696303,5.0
0.3673546807866636,-0.3339380518023356,0.7228449747578347,-0.014902194658305988,0.08478502329648019,-0.2989590275662105,5.0
0.370791669798783,-0.2855696057721993,0.8402089331478547,-0.003096513298928624,0.12852208317254954,-0.07312365207839608,5.0
0.3261110532930232,-0.25102071656062536,0.8715059065422467,-0.08162995640522169,0.009026179699918398,0.02226529067985739,5.0
0.346732746713943,-0.28902449544931186,0.8089118227929956,0.04155976035814447,0.16288692307674796,0.06955212014380287,5.0
0.3673546807866636,-0.2717500508435248,0.9262757127027826,0.19760006491948345,0.11212068750513093,0.0883037905642534,5.0
0.33298479066546277,-0.2717500508435248,0.981045655823786,0.1601298659513824,-0.02455763830107596,0.10705546595665544,5.0
0.3192370752687831,-0.30975382925973943,1.0984095457335727,0.18836084257922714,0.33705415258520394,0.09564140159346474,5.0
0.2814301961354626,-0.3166636071965486,1.035815461984322,0.037453433753155824,0.1230549560463631,-0.17829608843164552,5.0
0.36048070276242294,-0.2717500508435248,0.981045655823786,0.018461685726051547,0.19100360680712625,-0.31526482101432196,5.0
0.3639176917745437,-0.2406560503641195,0.9106272944858204,-0.0036098041245522013,0.0769748328421581,-0.08616829280322703,5.0
0.39141360387150415,-0.25102071656062536,0.8167361003817107,0.010249038776558332,0.39875466622395955,-0.1106270028632002,5.0
0.39141360387150415,-0.2717500508435248,1.0592881577899989,0.029240786803662634,0.2956601465113643,0.07852030753465442,5.0
0.33985876868970316,-0.18192293813747737,1.0671124353787136,-0.2217582578931978,-0.44708891377847765,0.11113190934673177,5.0
0.2917411631718229,-0.254475605292794,0.8871544617196759,-0.02311484219471957,-0.05736043916181936,-0.04866495196232597,5.0
0.346732746713943,-0.28902449544931186,0.9262757127027826,0.03899330623002657,0.005902101613008323,-0.1660667184858044,5.0
0.36048070276242294,-0.25102071656062536,0.9184515720745351,-0.08265653805646883,0.07463177427697552,-0.04540378929514248,5.0
0.3432957577018228,-0.254475605292794,0.7071964880606385,-0.2556354398633859,-0.008156237870704276,-0.16117499437283522,5.0
0.33298479066546277,-0.23374626912000668,0.9419242678802123,-0.08162995640522169,-0.08391508384874258,-0.0698624894112126,5.0
0.322674064280903,-0.23720115785217533,0.9497485454689271,-0.007202837556235729,-0.012842355001069373,-0.046219079961938345,5.0
0.346732746713943,-0.2821147170400307,0.8871544617196759,-0.10267486773482028,-0.13702438274849524,-0.23536639533174453,5.0
0.4017245709078628,-0.14737405081579114,0.8245603779704254,0.07081731863723627,0.14648552264637626,0.041016964207777624,5.0
0.32954804230514284,-0.20265227053048912,0.8480332107365699,-0.12166661576192457,-0.12687112896603756,0.10542488462306368,5.0
0.3673546807866636,-0.2752049395756935,0.8402089331478547,-0.1298792689719018,-0.017528467368481383,0.11439307201391528,5.0
0.32954804230514284,-0.33739294242439194,0.8089118227929956,-0.15605708229725218,-0.19950588733125962,-0.04703437062873424,5.0
0.346732746713943,-0.28902449544931186,0.7854391269873188,-0.24023672761564666,-0.19794384828780456,-0.09106003680400226,5.0
0.33642177967758297,-0.1577387094527459,0.9966940740407482,-0.17402224241262526,-0.22918461010509297,0.041832254874573496,5.0
0.346732746713943,-0.13700937705973418,1.0123426292181774,-0.1863412222275911,-0.32915503267896573,0.08422734220222555,5.0
0.3536067247381831,-0.2475658278284567,0.9106272944858204,-0.2854062701866492,-0.40335185866536133,0.018188840142600752,5.0
0.3982875818957434,-0.3166636071965486,0.8715059065422467,-0.19096083339771935,-0.34399441311769474,-0.11144229352999606,5.0
0.5426408797529833,-0.30975382925973943,0.7541420166324597,0.3751985778965286,0.5596445924407663,0.37284004434185536,5.0
0.4429684390533045,-0.3201184968736611,0.7932632676155661,0.10726094221457413,1.0829272719101437,-0.27450030756233434,5.0
0.2814301961354626,-0.2613853827571312,0.9653971006463563,0.034373691929656384,0.6916368058795612,-0.08046126807955896,5.0
0.20237968950850282,-0.25102071656062536,1.0592881577899989,-0.0687976951553583,0.08244196473129761,-0.051110818990762086,5.0
0.30548911922030286,-0.254475605292794,1.0123426292181774,-0.06007175738024151,-0.001127069319586256,-0.051110818990762086,5.0
0.3536067247381831,-0.2717500508435248,1.004518351629463,-0.0477527869560017,0.044953052693880495,-0.07475423341198782,5.0
0.3639176917745437,-0.26484027148929984,0.9966940740407482,-0.01182245185660591,0.11133966798340342,-0.054371981657945566,5.0
0.3639176917745437,-0.2752049395756935,1.004518351629463,0.0040895535644384345,0.12149291700290807,-0.03806617826593113,5.0
0.3639176917745437,-0.2717500508435248,1.0201669068068921,-0.016955356542409383,0.118368838915998,-0.03888146893272702,5.0
0.346732746713943,-0.26829516022146843,1.0905852681448578,-0.032354071578020435,0.05901139574980791,-0.0478496612955301,5.0
0.3432957577018228,-0.2475658278284567,1.035815461984322,-0.05545214307987133,0.07385075475524802,-0.06170959268715691,5.0
0.346732746713943,-0.2475658278284567,0.9966940740407482,-0.05083252877950116,0.0769748328421581,-0.03969675959952289,5.0
0.36048070276242294,-0.23374626912000668,0.9966940740407482,-0.04877936547700684,0.08009890616611508,-0.020129796026300727,5.0
0.3639176917745437,-0.23029138038783808,0.9653971006463563,-0.061098339031488674,0.11133966798340342,-0.024206246874304345,5.0
0.3536067247381831,-0.23374626912000668,0.9732213782350715,-0.09189576665720918,0.12539800508563947,-0.03398972990390329,5.0
0.3536067247381831,-0.23374626912000668,0.9732213782350715,-0.10421474021169101,0.08634705757698212,-0.02583682572192032,5.0
0.33298479066546277,-0.2406560503641195,1.0279911843956073,-0.12217990658754817,0.08478502329648019,0.00595948853083084,5.0
0.33985876868970316,-0.2406560503641195,0.9732213782350715,-0.11037422385868993,0.06525954716067496,-0.027467407055512066,5.0
0.33985876868970316,-0.2406560503641195,0.9732213782350715,-0.10267486773482028,0.046515090546597256,0.01085122911338941,5.0
0.346732746713943,-0.2406560503641195,0.9653971006463563,-0.1155071321149257,0.06760260334438098,0.019819420543951586,5.0
0.33985876868970316,-0.2406560503641195,1.0123426292181774,-0.10986093303306632,0.03558082468452621,0.00269832772812917,5.0
0.346732746713943,-0.254475605292794,1.035815461984322,-0.11242738716118421,0.00824516017819088,-0.02502153754110021,5.0
0.3501697357260629,-0.26829516022146843,1.004518351629463,-0.11448055046367854,0.0215224825216525,-0.04377320796155072,5.0
0.36048070276242294,-0.2855696057721993,0.9966940740407482,-0.07290401863010489,0.0012159892455963195,-0.06252488335395279,5.0
0.35704371375030275,-0.2855696057721993,1.035815461984322,-0.032867360838523,-0.056579419640091826,-0.06660133171598062,5.0
0.3536067247381831,-0.28902449544931186,1.0123426292181774,0.020001558202922275,-0.052674322031454224,-0.06823191304957237,5.0
0.3639176917745437,-0.2717500508435248,0.9888697964520335,0.036426852101908685,-0.01596642832502637,-0.023390956207508452,5.0
0.346732746713943,-0.2613853827571312,0.9575728230576416,0.05541860012901296,-0.018309486890208917,0.03938638287418587,5.0
0.33985876868970316,-0.2475658278284567,0.9653971006463563,0.07235718485362294,0.001997008767323824,0.032048771844974525,5.0
0.346732746713943,-0.23374626912000668,0.9653971006463563,0.07184389402799939,0.03558082468452621,0.016558260051996884,5.0
0.346732746713943,-0.19919738179832047,0.9888697964520335,-0.002069933212802478,0.0808799256878426,0.023080580725159318,5.0
0.33642177967758297,-0.19919738179832047,1.004518351629463,-0.045699623653507396,0.031675729680628595,0.013297099482355438,5.0
0.346732746713943,-0.19919738179832047,0.9732213782350715,-0.05750530325212363,0.00980719684016937,-0.007900443482289906,5.0
0.3536067247381831,-0.23720115785217533,0.9966940740407482,-0.045699623653507396,0.0894711356638922,-0.03562030626554352,5.0
0.35704371375030275,-0.2406560503641195,1.0123426292181774,-0.03184078075239686,0.10899660941822088,-0.07312365207839608,5.0
0.35704371375030275,-0.2475658278284567,1.004518351629463,-0.032867360838523,0.08166094520957011,-0.09106003680400226,5.0
0.3639176917745437,-0.19574249306615185,0.9888697964520335,-0.09908183195545524,0.08869011614216468,-0.06415546468754453,5.0
0.3536067247381831,-0.1888327156018146,1.0201669068068921,-0.12525964528080558,0.06604056668240249,-0.026652116388716184,5.0
0.32954804230514284,-0.17846804940530875,0.9888697964520335,-0.14425139956839392,0.052763241957464305,-0.0030087032104783055,5.0
0.33642177967758297,-0.19574249306615185,0.9575728230576416,-0.16683618337486325,0.07385075475524802,-0.026652116388716184,5.0
0.346732746713943,-0.22338160292350082,0.9497485454689271,-0.18685450679273066,0.06682158382265344,-0.056002562991537316,5.0
0.35704371375030275,-0.22338160292350082,0.981045655823786,-0.19198741504896638,0.03479980575816783,-0.08779887413681878,5.0
0.3536067247381831,-0.21301693672699495,0.981045655823786,-0.18480134349023639,0.030113691604648402,-0.03154385790351567,5.0
0.33642177967758297,-0.20610715926265774,1.0279911843956073,-0.17402224241262526,0.01683636896350221,-0.013607475663885264,5.0
0.346732746713943,-0.20610715926265774,1.004518351629463,-0.18480134349023639,-0.02143356021416588,0.00025245697072942547,5.0
0.346732746713943,-0.20610715926265774,1.004518351629463,-0.18890767009522505,-0.02143356021416588,0.008405358666736643,5.0
0.35704371375030275,-0.22683649165566944,0.9419242678802123,-0.22432470576083172,-0.0019080864598372022,-0.030728567236719802,5.0
0.3501697357260629,-0.22683649165566944,1.0201669068068921,-0.2535822765608915,-0.02455763830107596,-0.053556690991149694,5.0
0.346732746713943,-0.22338160292350082,0.9732213782350715,-0.23613040101065794,-0.04017801920972013,-0.03888146893272702,5.0
0.346732746713943,-0.254475605292794,0.9419242678802123,-0.19044753631161174,-0.0065942012087257685,-0.04295791729475487,5.0
0.35704371375030275,-0.2579304940249626,0.9419242678802123,-0.1873677913578702,0.00824516017819088,-0.06334017402074868,5.0
0.346732746713943,-0.23029138038783808,0.9419242678802123,-0.19763360787034182,-0.026119677344531005,-0.10084351486164969,5.0
0.3432957577018228,-0.20610715926265774,1.0671124353787136,-0.23459052227330313,-0.040959038731447656,-0.04295791729475487,5.0
0.33985876868970316,-0.19574249306615185,0.9419242678802123,-0.2597417664683744,-0.06595164437491587,-0.013607475663885264,5.0
0.3432957577018228,-0.2095620479948263,0.9340999902914972,-0.27154743667626463,-0.06907572246182593,-0.019314505359504856,5.0
0.3432957577018228,-0.2095620479948263,0.9340999902914972,-0.26692782550613653,-0.07063776150528096,-0.01768392402591311,5.0
0.3432957577018228,-0.2095620479948263,0.9340999902914972,-0.24896266539076342,-0.07922896671837748,-0.03480501559874766,5.0
0.3673546807866636,-0.25102071656062536,0.9106272944858204,-0.2351038068384427,-0.11515584566603097,-0.023390956207508452,5.0
0.37766564782302225,-0.254475605292794,0.9340999902914972,-0.2751404787161138,-0.0909442500183841,0.00269832772812917,5.0
0.3501697357260629,-0.23029138038783808,1.004518351629463,-0.28951259679163777,-0.06282756628800579,-0.015238054511501236,5.0
0.3501697357260629,-0.23374626912000668,0.8793301841309612,-0.2751404787161138,-0.04408311205540465,0.004328907818733034,5.0
0.35704371375030275,-0.21301693672699495,0.9106272944858204,-0.2915657600941321,-0.02846273114676047,0.03775580402656988,5.0
0.370791669798783,-0.21992671419133222,0.9184515720745351,-0.338788491009565,0.012931273736341172,0.01737355009729882,5.0
0.3639176917745437,-0.22338160292350082,0.8715059065422467,-0.37728528414988133,0.04182897698844697,-0.02583682572192032,5.0
0.346732746713943,-0.22683649165566944,0.8949787393083904,-0.39730360756774863,0.04729611006832477,-0.03562030626554352,5.0
0.3673546807866636,-0.2717500508435248,0.9184515720745351,-0.3777985687150209,0.006683121134735836,0.04427812438898535,5.0
0.3639176917745437,-0.27865982830786207,0.9340999902914972,-0.35316063412702514,0.02230350204338002,0.041832254874573496,5.0
0.35704371375030275,-0.28902449544931186,0.8793301841309612,-0.3336555952742974,0.031675729680628595,0.0035136183949250415,5.0
0.346732746713943,-0.28902449544931186,0.9262757127027826,-0.3403283697469198,0.03792388176128592,-0.04214262662795898,5.0
0.346732746713943,-0.28902449544931186,0.981045655823786,-0.297725250001615,0.03792388176128592,-0.06170959268715691,5.0
0.3536067247381831,-0.2993891623545256,0.8949787393083904,-0.25255568238867626,0.0504201857737583,-0.04051205026631877,5.0
0.3742286588109029,-0.2993891623545256,0.9653971006463563,-0.2530689669538158,0.07931788664438756,-0.03562030626554352,5.0
0.37766564782302225,-0.295934273386121,0.9575728230576416,-0.23869684887829185,0.08790909662043715,0.011666519158691345,5.0
0.3639176917745437,-0.28902449544931186,0.9888697964520335,-0.2181652283743167,0.05744935670635287,0.04020167354098174,5.0
0.3536067247381831,-0.28902449544931186,0.9653971006463563,-0.21611206507182254,0.04729611006832477,0.04509341505578122,5.0
0.33985876868970316,-0.28902449544931186,0.9497485454689271,-0.2376702547060766,0.06682158382265344,0.004328907818733034,5.0
0.346732746713943,-0.28902449544931186,0.981045655823786,-0.26692782550613653,0.07541279379870305,-0.0005628324530785629,5.0
0.3639176917745437,-0.3166636071965486,1.004518351629463,-0.26846770424349115,0.10196743848562628,-0.01768392402591311,5.0
0.35704371375030275,-0.34430271988872924,1.0123426292181774,-0.24588290791605386,0.10587253609426389,0.00025245697072942547,5.0
0.35704371375030275,-0.34430271988872924,1.0123426292181774,-0.2002000557379757,0.0855660428182077,-0.010346312996701764,5.0
0.346732746713943,-0.36848694479368516,1.0279911843956073,-0.1437381024822863,0.13867533695500728,-0.05844843001997341,5.0
0.3639176917745437,-0.37194183352585375,1.0514638802012841,-0.1088343513818192,0.16132488403329293,-0.012792184997089395,5.0
0.3845396258472643,-0.36848694479368516,0.981045655823786,-0.08009008392835094,0.1636679425984755,0.03775580402656988,5.0
0.3845396258472643,-0.36848694479368516,0.981045655823786,-0.07290401863010489,0.13867533695500728,0.06466037614302764,5.0
0.3673546807866636,-0.3892162771866969,0.9732213782350715,-0.03030090905808663,0.1597628449898379,0.08993437189784514,5.0
0.370791669798783,-0.3892162771866969,0.9966940740407482,-0.004123094950175779,0.19256564585058128,0.11113190934673177,5.0
0.370791669798783,-0.3892162771866969,0.9966940740407482,0.019488267377298703,0.1636679425984755,0.14781996946474002,5.0
0.3742286588109029,-0.3581222748174038,0.9732213782350715,0.048745825656390504,0.1761642454202096,0.19918324169726784,5.0
0.3742286588109029,-0.3581222748174038,0.9732213782350715,0.06773757368349481,0.17382118685502704,0.2823428499348347,5.0
0.3501697357260629,-0.3581222748174038,0.9497485454689271,0.10520777891207984,0.19647073393331269,0.35816483222733597,5.0
0.3673546807866636,-0.3823064997223596,1.035815461984322,0.10931410551706844,0.2011568510636778,0.350011905671571,5.0
0.39141360387150415,-0.3995809433832027,1.035815461984322,0.12727926563244155,0.21287213436368438,0.3296296688333834,5.0
0.37766564782302225,-0.40649072084753995,0.9888697964520335,0.16474947712151067,0.22536844671132467,0.31332385549746583,5.0
0.33985876868970316,-0.41340049831187725,1.0592881577899989,0.1801481893692499,0.19334665584640262,0.34838134422578526,5.0
0.33642177967758297,-0.3961260546510341,1.0279911843956073,0.173988699461767,0.19334665584640262,0.45436907124583054,5.0
0.33298479066546277,-0.4479493931931145,1.0279911843956073,0.21915826707470557,0.2144341734071394,0.4926877027535277,5.0
0.36048070276242294,-0.49631783544347524,1.0984095457335727,0.331055579413869,0.21209112436786304,0.5350827776513005,5.0
0.3811026368351416,-0.5135922715447673,1.0749367129674288,0.44705921835802087,0.26051429661134445,0.5579109163215853,5.0
0.39141360387150415,-0.5377765002294987,1.0749367129674288,0.5348319057162645,0.31596665407627966,0.5962295478292823,5.0
0.38797661485938423,-0.5205020490091045,1.0436397395730366,0.6149052494716065,0.3190907131113774,0.6614527613973399,5.0
0.3982875818957434,-0.49631783544347524,1.0436397395730366,0.6544285867002656,0.39875466622395955,0.7454275906943812,5.0
0.412035537944222,-0.4479493931931145,1.0279911843956073,0.6554551558305447,0.48154267837163917,0.826141376651076,5.0
0.3948505928836235,-0.4444944969013948,1.0827609905561433,0.5907805994487503,0.5018491668847425,0.8823963431648638,5.0
0.3811026368351416,-0.4721336067587438,1.0905852681448578,0.5861609632366861,0.5416811339151273,0.9158232903352037,5.0
0.33985876868970316,-0.49631783544347524,1.1297065191279645,0.5902672898416746,0.5971334913800623,0.9525113603971148,5.0
0.32954804230514284,-0.49631783544347524,1.1610036294828237,0.6354368324126772,0.6143159018062555,1.0022440015765357,5.0
0.322674064280903,-0.49286293915175544,1.2314219908207888,0.7447677219261429,0.5463672700973046,0.976970020737573,5.0
0.3020521302081832,-0.47904338422308107,1.2627189642151804,0.7334753112414563,0.4620171998543576,0.9345749458397996,5.0
0.30548911922030286,-0.4099456095797086,1.223597713232074,0.7683790623419233,0.4362435651632557,0.9207149746725606,5.0
0.2848671851475825,-0.3477576086208979,1.3174887703757163,0.8032828134423903,0.4627982098501789,0.9337596253412946,5.0
0.23331234996578293,-0.31320871846438,1.364434435908005,0.8181682411249902,0.3956305881370494,0.8832116636633689,5.0
0.19206872247214307,-0.29247938418148045,1.3722587134967201,0.7540069442663992,0.302689331732818,0.7772239764189355,5.0
0.20581667852062302,-0.295934273386121,1.4974468809952217,0.6554551558305447,0.22302537862023594,0.6777585349576453,5.0
0.21612764555698277,-0.29247938418148045,1.5209195768008978,0.5476641951383059,0.12383597556809059,0.6003059912193587,5.0
0.23331234996578293,-0.28902449544931186,1.513095299212184,0.3998365124845241,0.06369750811721991,0.5416051029856678,5.0
0.20925366753274266,-0.30975382925973943,1.4896226034065065,0.32951572571845034,0.08712807709870965,0.5000253088107873,5.0
0.21269065654486258,-0.34430271988872924,1.6069864933162934,0.2807531160656626,0.029332672678290022,0.4364326566885154,5.0
0.253934284038503,-0.37194183352585375,1.669580577065544,0.3007714645254662,-0.07141878102700851,0.3532730683387545,5.0
0.30548911922030286,-0.3995809433832027,1.6774048546542593,0.30949740230058304,-0.09172526954011158,0.3214767621654245,5.0
0.30548911922030286,-0.3995809433832027,1.7008775504599352,0.31924990920597873,-0.03939699968799261,0.30272508677302257,5.0
0.24018632799002249,-0.37539672225802234,1.6930534098316887,0.30693092939101296,0.012931273736341172,0.30598624944020586,5.0
0.1645728103751821,-0.3961260546510341,1.7087018280486508,0.25252213943781787,-0.13624335370086155,0.16820222619073377,5.0
0.1542618433388226,-0.4237651645083831,1.7478232159922245,0.24482279583491637,-0.3190017884224143,0.03612522269297813,5.0
0.18519474444790296,-0.4410396157287773,1.685229132242973,0.2550885873054518,-0.4548990899439404,-0.009531024815881653,5.0
0.2573712730506229,-0.4548591706574518,1.669580577065544,0.36647264012141184,-0.49473109507795,0.018188840142600752,5.0
0.3089261082324228,-0.4755885030504635,1.630459326082438,0.42806751415430505,-0.3572717354611564,0.04753928457019309,5.0
0.24706030601426288,-0.48940805797913806,1.5600409647444722,0.4557851811750739,-0.23699480532236805,0.03775580402656988,5.0
0.22987536095366218,-0.5239569453008242,1.5756893829614342,0.5353452153233401,-0.2861990066134831,0.004328907818733034,5.0
0.20925366753274266,-0.49977271661609274,1.552216687155757,0.6297906771542061,-0.38304537015225837,-0.036435596932339415,5.0
0.20925366753274266,-0.46176894812178904,1.5209195768008978,0.6662342569081559,-0.42522036717010725,-0.09758236213836925,5.0
0.18175775543578224,-0.3995809433832027,1.4974468809952217,0.6415963473620963,-0.44240281569992485,-0.1285633776449033,5.0
0.17488377741154265,-0.3408478311565606,1.4426769378742181,0.520973047163944,-0.5650227948779897,-0.20112420721412388,5.0
0.21956439391730215,-0.3408478311565606,1.427028519657256,0.3813580678040115,-0.5345630621083349,-0.2712391448951508,5.0
0.2814301961354626,-0.31320871846438,1.395731409302397,0.2622746713851499,-0.5330010040130675,-0.320156565015097,5.0
0.3639176917745437,-0.3408478311565606,1.340961603141861,0.215051940469717,-0.5173806135785173,-0.396793828030491,5.0
0.37766564782302225,-0.3339380518023356,1.2861917969813252,0.16474947712151067,-0.41350510292191306,-0.49055218510469517,5.0
0.37766564782302225,-0.3339380518023356,1.2861917969813252,0.11598687998969091,-0.34321340312187343,-0.5101191611077961,5.0
0.3811026368351416,-0.32357338560582977,1.223597713232074,-0.006689546730612153,-0.2143452487181762,-0.49625922971616915,5.0
0.37766564782302225,-0.3408478311565606,1.27836751939261,-0.07239072780448132,-0.1956007992485282,-0.5435460685025238,5.0
0.32954804230514284,-0.4203102757762145,1.2861917969813252,-0.14527798121964106,-0.21356423872235492,-0.5704506107872724,5.0
0.33298479066546277,-0.4375847194370575,1.239246268409504,-0.16375643842112178,-0.19716283829198322,-0.629151499020963,5.0
0.3089261082324228,-0.4548591706574518,1.1453550743053935,-0.19198741504896638,-0.2502721276658297,-0.6666548498057674,5.0
0.3192370752687831,-0.36503205228174096,1.1688279070715382,-0.2027665161265775,-0.312753632248594,-0.6373044255767281,5.0
0.3639176917745437,-0.2717500508435248,1.1140581009110024,-0.23715697014093703,-0.20653507255271347,-0.44163478487255475,5.0
0.3982875818957434,-0.254475605292794,1.1453550743053935,-0.304911309039377,-0.1307762265746751,-0.2427040013890043,5.0
0.3673546807866636,-0.30975382925973943,1.1453550743053935,-0.3377618968373498,-0.15654984221396465,-0.23781225738822906,5.0
0.3673546807866636,-0.30975382925973943,1.1453550743053935,-0.29053919096385306,-0.25417721574856117,-0.269608563561559,5.0
0.3673546807866636,-0.4410396157287773,1.0671124353787136,-0.22073167624195061,-0.23308971723963656,-0.28999082028755296,5.0
0.35704371375030275,-0.4824982805148007,1.0123426292181774,-0.12166661576192457,-0.116717884709486,-0.27042386417225794,5.0
0.2230013829294229,-0.47904338422308107,1.0123426292181774,-0.046212914479130965,-0.1018785233225693,-0.2842837955638848,5.0
0.1886317334600226,-0.4306749419727203,1.0827609905561433,0.010249038776558332,-0.3619578335397093,-0.2810226328967012,5.0
0.2883041741597033,-0.3926711659188655,0.9732213782350715,0.008709167864808617,-0.5603366586958121,-0.2736850268394415,5.0
0.3742286588109029,-0.37539672225802234,0.8402089331478547,-0.019008518524332843,-0.5790811272172726,-0.22802876938667863,5.0
0.44640518741362445,-0.36503205228174096,0.8089118227929956,-0.046212914479130965,-0.48223478273030973,-0.17992664987743118,5.0
0.41890951596846404,-0.3581222748174038,0.7932632676155661,-0.046212914479130965,-0.4345926014308374,-0.15220679703808063,5.0
0.33985876868970316,-0.3339380518023356,0.8010875452042808,-0.05134581960512473,-0.5283149059345149,-0.03888146893272702,5.0
0.33985876868970316,-0.3339380518023356,0.8010875452042808,-0.007202837556235729,-0.6540589250958648,0.032048771844974525,5.0
0.41890951596846404,-0.3270282743379983,0.738493529935264,-0.03338065166414658,-0.6735844417167711,0.16167990085636683,5.0
0.41890951596846404,-0.3270282743379983,0.738493529935264,-0.06315149920374095,-0.5775191072256299,0.17472454158119774,5.0
0.43953145004118516,-0.33048316307016695,0.5898325296706184,-0.09035589418033846,-0.5041032912350557,0.11357778134711939,5.0
0.4051615599199827,-0.33739294242439194,0.5663597653847076,-0.16786275250514232,-0.579862137213094,0.05243102608499257,5.0
0.3639176917745437,-0.33048316307016695,0.5663597653847076,-0.23921013344343137,-0.5993876157303756,0.010035939068087479,5.0
0.3845396258472643,-0.30975382925973943,0.5194141683326527,-0.27000755793890985,-0.6212561242351216,0.04346283372218946,5.0
0.4017245709078628,-0.295934273386121,0.5115899592241716,-0.29310563883148694,-0.725131711098975,0.058953346447408024,5.0
0.4910860445711834,-0.27865982830786207,0.44117159788620597,-0.3156904101169881,-0.554088502521992,0.04835457523698895,5.0
0.43609446102906524,-0.22683649165566944,0.37075323654824077,-0.40756942408022023,-0.5548695506214382,0.13722120074029667,5.0
0.3673546807866636,-0.1750131606731401,0.38640179172567,-0.5358920177974019,-0.6673362855429511,0.2725593619332843,5.0
0.3501697357260629,-0.1715582643814204,0.35510474985104457,-0.6565153179955544,-0.675146461708414,0.38588469501058925,5.0
0.32954804230514284,-0.17846804940530875,0.34728047226233,-0.7442879552699257,-0.7368469753471695,0.4869806581420534,5.0
0.3501697357260629,-0.19574249306615185,0.37857751413695545,-0.7483942818749143,-0.8180729293995818,0.38425409378919173,5.0
0.38797661485938423,-0.2579304940249626,0.39422600083415105,-0.7109240829068132,-0.9266345762383634,0.2880498746585029,5.0
0.4051615599199827,-0.2579304940249626,0.37075323654824077,-0.7252962009823374,-1.0555027115902482,0.1192848160146905,5.0
0.32954804230514284,-0.16464848691708314,0.21426802717511365,-1.0804932269364276,-0.9727147375461932,-0.14813034370410122,5.0
0.370791669798783,-0.1542838282801284,0.2768621109243648,-1.2421796930167217,-1.5397344721286867,-0.6144762869064434,5.0
0.4429684390533045,-0.2855696057721993,-0.028284064473291334,-0.8469460703107686,-1.184370846942133,-0.18074195048813013,5.0
0.5941954742829842,-0.3166636071965486,-0.2708361646817256,-0.6015931933933475,-0.6673362855429511,-0.012792184997089395,5.0
0.5976324632951042,-0.37539672225802234,-0.23953911424707108,-0.24793607121854816,-0.16201698839196346,0.14048236340748016,5.0
0.6388763314405438,-0.48940805797913806,-0.20041781190378932,0.04412620822577832,0.03948591961400268,0.11846952534789465,5.0
0.5323299127166247,-0.5101373903721497,-0.14564798862319492,0.29358538044576793,0.32768193737628615,-0.0698624894112126,5.0
0.36048070276242294,-0.37885161099019105,0.1438496658371482,0.4408997534924742,0.30347034172863935,-0.09921293352805795,5.0
0.40859854893210207,-0.23720115785217533,0.17514670771177354,0.45937819817298686,0.30347034172863935,-0.053556690991149694,5.0
0.3639176917745437,-0.11282516349410494,0.16732246436317597,0.2776733836328891,0.14492348360292123,-0.08046126807955896,5.0
0.412035537944222,-0.050637151195967386,-0.02045982112469346,0.054392018477765806,0.046515090546597256,-0.06497075038238888,5.0
0.47390109951058434,-0.11282516349410494,-0.1221752072172259,-0.14117165461465245,0.18475545063330612,-0.10491996819562907,5.0
0.5254559346923826,-0.21992671419133222,-0.09870242581125689,-0.21200573846683382,0.3362731425893829,-0.2435192821118971,5.0
0.5013970116075415,-0.295934273386121,-0.09087814822254207,-0.18018173232010817,0.4081269004846897,-0.4342971788152951,5.0
0.5288929237045047,-0.33739294242439194,-0.028284064473291334,-0.10421474021169101,0.40656484238942225,-0.5606671625613341,5.0
0.5254559346923826,-0.34430271988872924,0.018661498338646814,0.02205472150541658,0.6408705464931788,-0.649533755746957,5.0
0.4051615599199827,-0.3477576086208979,0.1125526239625228,0.09494197492057635,0.6658631711884593,-0.6968205945333115,5.0
0.3639176917745437,-0.3512124973530665,0.2220923047638283,0.1549969576951467,0.5846371790324221,-0.6739924956386393,5.0
0.3811026368351416,-0.3581222748174038,0.2377407914610246,0.24071646922992782,0.49794407880201097,-0.6161068881278413,5.0
0.4154725269563441,-0.36848694479368516,0.18297098530048816,0.3207897879433335,0.512002411141294,-0.5362084624452639,5.0
0.41890951596846404,-0.37539672225802234,0.16732246436317597,0.42960734280778734,0.5284038115716657,-0.5207179298322393,5.0
0.40859854893210207,-0.36503205228174096,0.2455650690497392,0.5327787674557063,0.569016788597872,-0.4481571102069219,5.0
0.40859854893210207,-0.3615771635495723,0.3003348752102751,0.6005330813122102,0.6150969118020768,-0.5141956044978724,5.0
0.4017245709078628,-0.3512124973530665,0.3316319170849006,0.5635761919511849,0.6541478688366403,-0.6666548498057674,5.0
0.3948505928836235,-0.3201184968736611,0.37075323654824077,0.5101939460863327,0.6377464684062686,-0.733508664595223,5.0
0.3639176917745437,-0.1577387094527459,0.6054810848480477,0.45527187156799814,0.618220989888987,-0.6095845627934744,5.0
0.36048070276242294,-0.1266447184227794,0.6524266134198691,0.42242130881196155,0.6150969118020768,-0.2435192821118971,5.0
0.370791669798783,-0.09209583110109322,0.644602404311388,0.40856245025964094,0.5143454792323827,-0.013607475663885264,5.0
0.4017245709078628,-0.1577387094527459,0.6054810848480477,0.3505606182665969,0.41906115473706257,0.07525914983942246,5.0
0.412035537944222,-0.1888327156018146,0.5585354877959929,0.22531775698218845,0.4690463660239989,0.00595948853083084,5.0
0.412035537944222,-0.2613853827571312,0.5585354877959929,0.1411381116637941,0.5479292900889474,-0.12204106225443936,5.0
0.3536067247381831,-0.2821147170400307,0.6524266134198691,0.10418119726083269,0.610410813723524,-0.18318781254461466,5.0
0.2848671851475825,-0.28902449544931186,0.7541420166324597,0.13292545845381687,0.48232368836746053,-0.2084618132713837,5.0
0.31236309724454325,-0.295934273386121,0.7776148493986041,0.1354919188424188,0.2378647400071526,-0.18318781254461466,5.0
0.31236309724454325,-0.295934273386121,0.7776148493986041,0.16064315051652198,0.04182897698844697,-0.0959517808047775,5.0
0.45671615444998315,-0.3408478311565606,0.6289538491339581,0.2658676883830629,0.0894711356638922,-0.08290713013604353,5.0
0.44640518741362445,-0.3201184968736611,0.5898325296706184,0.3587732714765741,0.2823828241679026,-0.009531024815881653,5.0
0.44640518741362445,-0.3201184968736611,0.5898325296706184,0.3988099433542451,0.3144046150328246,0.032048771844974525,5.0
0.43953145004118516,-0.2717500508435248,0.7776148493986041,0.46502440351533025,0.13086514173773212,0.17553983224799358,5.0
0.5254559346923826,-0.26829516022146843,0.7306692523465492,0.5717888451611621,0.20271889010713282,0.2546229672637751,5.0
0.5254559346923826,-0.26829516022146843,0.7306692523465492,0.6344102632823981,0.4713894341150877,0.32473792483260805,5.0
0.2883041741597033,-0.2752049395756935,0.7776148493986041,0.5974533739213729,0.42062317472870525,0.5000253088107873,5.0
0.2230013829294229,-0.2475658278284567,0.83238465555914,0.6913855261451632,0.272229579911351,0.5220381269825667,5.0
0.2230013829294229,-0.2475658278284567,0.83238465555914,0.5527970908735738,0.09650030659648676,0.35408838883725957,5.0
0.26080826206274255,-0.13355449588711668,0.7150206971691195,0.3079575235632282,0.04026693854036107,0.29701806204935444,5.0
0.253934284038503,-0.06445670612464202,0.6680751685972983,0.12368623611356054,-0.06517062485318836,0.2586994305416575,5.0
0.298615141196063,-0.09900560856543045,0.6680751685972983,0.04669266235389621,-0.14561558796159177,0.2774511059340596,5.0
0.4257834939927033,-0.185377826869646,0.6524266134198691,0.10366791269569313,0.048077128399314016,0.23587131175917916,5.0
0.5151449676560234,-0.21301693672699495,0.7150206971691195,0.19092729044686105,0.2909740293809991,0.2733746426561771,5.0
0.412035537944222,-0.21647182545916357,0.83238465555914,0.21967155163984511,0.2113100953202294,0.3100627127180884,5.0
0.322674064280903,-0.22338160292350082,0.8636816289535315,0.2171051037722112,0.09571928707475925,0.3165850181646494,5.0
0.2917411631718229,-0.2095620479948263,0.7932632676155661,0.20375955482696634,-0.0019080864598372022,0.26359117454243275,5.0
0.298615141196063,-0.21647182545916357,0.7619662942211749,0.11752674620607761,-0.019871525933663953,0.20733614836522662,5.0
0.3536067247381831,-0.22338160292350082,0.7228449747578347,0.026674335805786764,-0.016747447846753874,0.14048236340748016,5.0
0.3811026368351416,-0.2475658278284567,0.7306692523465492,0.002036391827065133,0.04417203317215297,0.11765423468109876,5.0
0.38797661485938423,-0.2717500508435248,0.7306692523465492,0.060038217559625184,0.12071189748118055,0.14048236340748016,5.0
0.4017245709078628,-0.2717500508435248,0.7619662942211749,0.07646351145861156,0.15663876690292783,0.16249519152316266,5.0
0.4017245709078628,-0.2717500508435248,0.7541420166324597,0.03848001540440298,0.08478502329648019,0.23261014909199562,5.0
0.40859854893210207,-0.26829516022146843,0.8010875452042808,-0.040053427701890056,0.0902521551856197,0.2122278923660018,5.0
0.3639176917745437,-0.26484027148929984,0.7619662942211749,-0.10318815856044386,0.08869011614216468,0.17961628558197298,5.0
0.3261110532930232,-0.2752049395756935,0.7619662942211749,-0.0749571819325992,-0.040959038731447656,0.2546229672637751,5.0
0.3742286588109029,-0.2752049395756935,0.7697905718098894,-0.0046363849932388535,-0.07610488863146742,0.29538748071576265,5.0
0.43953145004118516,-0.3270282743379983,0.7150206971691195,0.030780659280533366,0.00824516017819088,0.4176810011839193,5.0
0.4670271214863429,-0.30975382925973943,0.6758994461860135,0.10572106347721937,0.0855660428182077,0.6532998348415752,5.0
0.2848671851475825,-0.26484027148929984,0.6680751685972983,0.30333791239309993,-0.12921418753122008,0.5318216149841174,5.0
0.2848671851475825,-0.26484027148929984,0.6680751685972983,0.14627101992002986,-0.05345534155318176,0.3345214128341584,5.0
0.24362331700214268,-0.09209583110109322,0.691547932883209,-0.17966843523400056,-0.12296603135739993,0.369578881674672,5.0
0.2814301961354626,-0.12318982213105971,0.7932632676155661,-0.2012266373892227,-0.23543276627891302,0.4755666086947173,5.0
0.3536067247381831,-0.2406560503641195,0.8558574883252845,-0.005662965861925502,-0.18232347690506656,0.4617066773030905,5.0
0.3948505928836235,-0.33739294242439194,0.7541420166324597,0.10110145230709121,-0.017528467368481383,0.32473792483260805,5.0
0.41890951596846404,-0.33739294242439194,0.8010875452042808,0.06363124707850619,0.10977762893994837,0.1706480981911214,5.0
0.30548911922030286,-0.19228760433398326,0.9106272944858204,-0.10524132186293816,-0.08235304480528755,0.2122278923660018,5.0
0.24018632799002249,-0.16464848691708314,0.8715059065422467,-0.2381835643131523,-0.3518045892831575,0.36631771900748844,5.0
0.33642177967758297,-0.2855696057721993,0.7932632676155661,-0.19044753631161174,-0.4611472461177607,0.456814913414509,5.0
0.4773380885227037,-0.3926711659188655,0.7228449747578347,-0.013875613593979211,-0.3299360807784118,0.40789751318236894,5.0
0.5185819566681433,-0.37194183352585375,0.6524266134198691,0.05798505425713087,0.15429570833774528,0.2122278923660018,5.0
0.4429684390533045,-0.30975382925973943,0.7306692523465492,0.04309963283501519,0.17538322589848204,0.20081382303085962,5.0
0.370791669798783,-0.254475605292794,0.7932632676155661,0.09288881161808203,0.04339101484116373,0.2521771052072905,5.0
0.3020521302081832,-0.23374626912000668,0.8010875452042808,0.11085397173345514,-0.12765214848776504,0.2562535485973669,5.0
0.3536067247381831,-0.24411093909628812,0.7776148493986041,0.07595022063298801,-0.20653507255271347,0.23097956775840386,5.0
0.39141360387150415,-0.2406560503641195,0.6993722104719238,0.006142715301811733,0.017617387294491457,0.1836927289720493,5.0
0.3948505928836235,-0.254475605292794,0.691547932883209,-0.02311484219471957,0.10587253609426389,0.14700467879794413,5.0
0.370791669798783,-0.2821147170400307,0.6837236552944945,-0.05904517572899435,0.08869011614216468,0.10053314062228845,5.0
0.35704371375030275,-0.2821147170400307,0.6837236552944945,-0.06571795333185884,0.08322298425302516,0.06792153881021111,5.0
0.3639176917745437,-0.3270282743379983,0.6524266134198691,-0.045699623653507396,0.03948591961400268,0.06547566680982349,5.0
0.38797661485938423,-0.3408478311565606,0.7071964880606385,0.037453433753155824,-0.009718276914159295,0.026341740906367053,5.0
0.4257834939927033,-0.3512124973530665,0.6680751685972983,0.11906662494343238,0.029332672678290022,-0.03562030626554352,5.0
0.4257834939927033,-0.3270282743379983,0.7619662942211749,0.14832418322252422,0.06682158382265344,-0.08779887413681878,5.0
0.37766564782302225,-0.29247938418148045,0.7619662942211749,0.1344653371911716,0.031675729680628595,-0.07312365207839608,5.0
0.32954804230514284,-0.2855696057721993,0.7697905718098894,0.0944286778344687,-0.015185408803298838,-0.03806617826593113,5.0
0.32954804230514284,-0.28902449544931186,0.746317739043745,0.10366791269569313,-0.08938221097492906,-0.029097985903128055,5.0
0.36048070276242294,-0.2855696057721993,0.644602404311388,0.11393371668719661,-0.04330209253367712,-0.029097985903128055,5.0
0.4051615599199827,-0.2821147170400307,0.5507112102072783,0.11598687998969091,0.0933762285095767,0.0010677476375253014,5.0
0.43609446102906524,-0.2821147170400307,0.5898325296706184,0.12522610232994724,0.18944156776367121,0.01085122911338941,5.0
0.4017245709078628,-0.3581222748174038,0.6289538491339581,0.10418119726083269,0.2503610523547929,-0.0005628324530785629,5.0
0.4017245709078628,-0.37885161099019105,0.691547932883209,0.07543692980736444,0.2144341734071394,-0.08779887413681878,5.0
0.370791669798783,-0.37885161099019105,0.6524266134198691,0.01640852555379925,0.11602578035081541,-0.18726427582249708,5.0
0.4017245709078628,-0.3892162771866969,0.6837236552944945,-0.004123094950175779,-0.0058131816869982636,-0.21987588260652594,5.0
0.41890951596846404,-0.37539672225802234,0.6524266134198691,-0.008229418424922382,0.0012159892455963195,-0.23944283872182082,5.0
0.4017245709078628,-0.36503205228174096,0.6367781267226733,-0.00976929011923261,0.03792388176128592,-0.24596516405618776,5.0
0.3845396258472643,-0.3581222748174038,0.6524266134198691,0.015381943902552089,0.05588731766289783,-0.2272134886637857,5.0
0.3845396258472643,-0.3581222748174038,0.6524266134198691,0.05644518178026014,0.014493311589057933,-0.21824530127293418,5.0
0.3536067247381831,-0.28902449544931186,0.6133053624367624,0.051825570610131974,0.017617387294491457,-0.18889485715608884,5.0
0.3639176917745437,-0.2406560503641195,0.6758994461860135,0.0035762627388148597,0.09571928707475925,-0.14976092503769298,5.0
0.3639176917745437,-0.2406560503641195,0.6758994461860135,-0.021574970891689596,0.07853687188561312,-0.13019395897849506,5.0
0.3639176917745437,-0.254475605292794,0.7228449747578347,-0.05083252877950116,0.034018786682967164,-0.1342704123124744,5.0
0.3845396258472643,-0.27865982830786207,0.691547932883209,-0.05647872473111848,0.030894710679849068,-0.12367164358803111,5.0
0.3845396258472643,-0.27865982830786207,0.691547932883209,-0.08676286466145744,0.0027780259075748013,-0.10410467752883318,5.0
0.3982875818957434,-0.30975382925973943,0.7306692523465492,-0.14425139956839392,0.00824516017819088,-0.08861416480361464,5.0
0.3673546807866636,-0.3581222748174038,0.7619662942211749,-0.13809190966091098,-0.040959038731447656,-0.08127655874635481,5.0
0.3673546807866636,-0.3581222748174038,0.7619662942211749,-0.08624957383583387,-0.11281278710084838,-0.08453771146963528,5.0
0.36048070276242294,-0.3892162771866969,0.6837236552944945,-0.032867360838523,-0.12452807040085496,-0.11470344625327653,5.0
0.4154725269563441,-0.3512124973530665,0.6524266134198691,0.006142715301811733,-0.051112282987999184,-0.07964597741276311,5.0
0.4154725269563441,-0.3512124973530665,0.6524266134198691,0.011275620427805487,0.02777063452788869,-0.0478496612955301,5.0
0.41890951596846404,-0.3270282743379983,0.6680751685972983,-0.019521808958676168,0.12539800508563947,-0.016053345178297127,5.0
0.40859854893210207,-0.33048316307016695,0.6680751685972983,-0.04877936547700684,0.08790909662043715,-0.051110818990762086,5.0
0.4017245709078628,-0.33048316307016695,0.691547932883209,-0.0436464619161341,0.03479980575816783,-0.07964597741276311,5.0
0.3811026368351416,-0.2855696057721993,0.7541420166324597,0.0010098101758179723,-0.04876922442281665,-0.051110818990762086,5.0
0.3948505928836235,-0.2717500508435248,0.746317739043745,-0.012335742290949235,-0.0058131816869982636,0.028787611663766793,5.0
0.37766564782302225,-0.254475605292794,0.7071964880606385,-0.003096513298928624,0.031675729680628595,0.12010010668148638,5.0
0.3845396258472643,-0.254475605292794,0.6680751685972983,-0.003096513298928624,0.03558082468452621,0.18532331030564103,5.0
0.3845396258472643,-0.2752049395756935,0.6367781267226733,0.0015231010014415615,0.009026179699918398,0.23913245453855647,5.0
0.4051615599199827,-0.3166636071965486,0.6211295715452434,0.023081300026421715,0.0215224825216525,0.2285336858141132,5.0
0.412035537944222,-0.3270282743379983,0.6680751685972983,-0.014902194658305988,-0.010499296435886821,0.24973124315080591,5.0
0.41890951596846404,-0.32357338560582977,0.6837236552944945,-0.07393060028135204,-0.001127069319586256,0.2179349170896699,5.0
0.3639176917745437,-0.3201184968736611,0.738493529935264,-0.12217990658754817,-0.1096887090139383,0.17635512291478947,5.0
0.3536067247381831,-0.3477576086208979,0.691547932883209,-0.13809190966091098,-0.1253090899225825,0.10460959395626783,5.0
0.370791669798783,-0.36503205228174096,0.6758994461860135,-0.07136414615323415,-0.15811188125741968,0.11276249068032351,5.0
0.37766564782302225,-0.37539672225802234,0.6602508910085836,-0.0580185940777472,-0.12921418753122008,0.12336126934866987,5.0
0.3948505928836235,-0.3512124973530665,0.6133053624367624,-0.032867360838523,-0.07454285911391856,0.1592340288559792,5.0
0.41890951596846404,-0.34430271988872924,0.5585354877959929,-0.007716127599298804,-0.07688590815319492,0.2317948484812967,5.0
0.43265747201694316,-0.3477576086208979,0.48811712645802724,0.02256800920079815,0.001997008767323824,0.24239361720574001,5.0
0.43609446102906524,-0.3512124973530665,0.5194141683326527,0.02872749597803906,0.06916464238783601,0.17390925091440185,5.0
0.4292204830048227,-0.33048316307016695,0.4724686397608315,0.04412620822577832,0.1558577473812003,0.13640591007350078,5.0
0.412035537944222,-0.3270282743379983,0.535062723510082,0.05798505425713087,0.14648552264637626,0.0883037905642534,5.0
0.37766564782302225,-0.295934273386121,0.6367781267226733,0.07287047567924655,0.0894711356638922,0.021450000634555457,5.0
0.36048070276242294,-0.254475605292794,0.7150206971691195,0.061064799210872336,0.05744935670635287,0.036940513359774,5.0
0.346732746713943,-0.22338160292350082,0.7150206971691195,0.03180724093178052,0.02698961560153031,0.026341740906367053,5.0
0.3536067247381831,-0.20610715926265774,0.7071964880606385,-0.01182245185660591,-0.0026891059815647377,0.06792153881021111,5.0
0.3432957577018228,-0.22338160292350082,0.7228449747578347,-0.018495227992169454,-0.080009986240105,0.07281327783903484,5.0
0.32954804230514284,-0.2475658278284567,0.6680751685972983,-0.021061680457346268,-0.13780539274431655,0.11194720001352766,5.0
0.35704371375030275,-0.254475605292794,0.6133053624367624,-0.05031923795387757,-0.16514106647887353,0.13559061940670494,5.0
0.3948505928836235,-0.2717500508435248,0.5741840429734222,-0.06212491755249382,-0.10890768949221083,0.17961628558197298,5.0
0.412035537944222,-0.2717500508435248,0.48811712645802724,-0.044673042002260244,-0.06204654676627827,0.16249519152316266,5.0
0.4017245709078628,-0.33739294242439194,0.5194141683326527,-0.019008518524332843,-0.04642617062058718,0.1592340288559792,5.0
0.3982875818957434,-0.3581222748174038,0.4646443621721169,0.018974976551675113,0.00355904542930231,0.09645669226026059,5.0
0.4051615599199827,-0.36848694479368516,0.49594140404674175,0.026674335805786764,0.007464140656463363,0.0703674058386472,5.0
0.4257834939927033,-0.37539672225802234,0.535062723510082,0.006142715301811733,-0.0065942012087257685,0.07770501686785856,5.0
0.40859854893210207,-0.36503205228174096,0.6680751685972983,0.0025496810875677046,-0.0472071901423147,0.05732276511381628,5.0
0.39141360387150415,-0.37539672225802234,0.6054810848480477,0.0010098101758179723,-0.09406832810529413,-0.033174439237107424,5.0
0.38797661485938423,-0.3581222748174038,0.5976568072593331,0.00973574795093476,-0.07141878102700851,-0.06170959268715691,5.0
0.3811026368351416,-0.3408478311565606,0.5507112102072783,0.011788911253429075,-0.02924375066848797,-0.0902447461372064,5.0
0.3948505928836235,-0.3408478311565606,0.5428870010987973,-0.021574970891689596,-0.02455763830107596,-0.08698358347002288,5.0
0.3948505928836235,-0.295934273386121,0.5507112102072783,-0.038000265964516756,-0.03158680923367052,-0.07149307074480435,5.0
0.4017245709078628,-0.3062989402913348,0.5585354877959929,-0.0287610373637764,-0.01596642832502637,-0.052741400324353815,5.0
0.3948505928836235,-0.3062989402913348,0.5976568072593331,-0.021061680457346268,-0.0058131816869982636,-0.026652116388716184,5.0
0.3948505928836235,-0.31320871846438,0.6133053624367624,-0.032354071578020435,0.0027780259075748013,-0.02991327656992392,5.0
0.3948505928836235,-0.30975382925973943,0.644602404311388,-0.03646039505276704,-0.025338657822803468,-0.011976894330293511,5.0
0.3948505928836235,-0.30975382925973943,0.6289538491339581,-0.0308141991011497,-0.019090506411936426,0.006774778576132774,5.0
0.4017245709078628,-0.30975382925973943,0.6524266134198691,-0.04415975117663667,0.00980719684016937,0.001883038304321175,5.0
0.38797661485938423,-0.30975382925973943,0.6524266134198691,-0.042106591004384374,-0.001127069319586256,-0.020129796026300727,5.0
0.37766564782302225,-0.3062989402913348,0.6289538491339581,-0.032354071578020435,0.012931273736341172,-0.02094508669309661,5.0
0.3673546807866636,-0.31320871846438,0.6054810848480477,-0.03748697513889319,-0.008156237870704276,-0.03969675959952289,5.0
0.37766564782302225,-0.31320871846438,0.5741840429734222,-0.05031923795387757,-0.03783496064453759,-0.036435596932339415,5.0
0.37766564782302225,-0.31320871846438,0.5741840429734222,-0.04518633282788381,-0.0472071901423147,-0.016868635845092992,5.0
0.3948505928836235,-0.29247938418148045,0.5194141683326527,-0.04108000935313721,-0.0019080864598372022,0.032048771844974525,5.0
0.4017245709078628,-0.31320871846438,0.49594140404674175,-0.019008518524332843,0.010588216361896888,0.06302979480943588,5.0
0.4017245709078628,-0.31320871846438,0.49594140404674175,-0.0025832224733050462,0.08400400377475267,0.05732276511381628,5.0
0.38797661485938423,-0.37539672225802234,0.49594140404674175,0.0277009143267919,0.10743457513771892,0.07199798717223894,5.0
0.39141360387150415,-0.37885161099019105,0.5663597653847076,0.027187623501168334,0.0777558523638856,0.08748849989745752,5.0
0.39141360387150415,-0.37885161099019105,0.5663597653847076,-0.016955356542409383,0.03558082468452621,0.06058392778099978,5.0
0.412035537944222,-0.3926711659188655,0.5663597653847076,-0.09189576665720918,-0.014404389281571329,-0.01768392402591311,5.0
0.4017245709078628,-0.4479493931931145,0.5663597653847076,-0.1329590014046752,-0.06595164437491587,-0.07720010541237544,5.0
0.4017245709078628,-0.4479493931931145,0.5663597653847076,-0.12885268732065466,-0.05033126346627169,-0.13100924964529095,5.0
0.40859854893210207,-0.4479493931931145,0.44117159788620597,-0.07341730945572847,-0.04017801920972013,-0.12448693425482699,5.0
0.38797661485938423,-0.37539672225802234,0.5741840429734222,-0.010282580162295683,-0.022995599257620916,-0.07393894274519197,5.0
0.38797661485938423,-0.37539672225802234,0.5741840429734222,0.030780659280533366,0.018398406816218977,0.019819420543951586,5.0
0.38797661485938423,-0.32357338560582977,0.5272384459213674,0.05387872765214225,0.046515090546597256,0.06629095747661935,5.0
0.370791669798783,-0.295934273386121,0.535062723510082,0.07902996558672948,-0.0019080864598372022,0.14700467879794413,5.0
0.37766564782302225,-0.2993891623545256,0.5115899592241716,0.10212803395833836,0.006683121134735836,0.12662242207195032,5.0
0.3948505928836235,-0.3062989402913348,0.5037656816354571,0.07287047567924655,0.024646558822455165,0.14700467879794413,5.0
0.3948505928836235,-0.295934273386121,0.6289538491339581,0.05952492673400158,0.01996044466893574,0.0989025592886967,5.0
0.3948505928836235,-0.295934273386121,0.5898325296706184,0.0277009143267919,-0.03080578971194301,0.10297901262267606,5.0
0.3982875818957434,-0.3270282743379983,0.5585354877959929,-1.676991030816495e-05,-0.0042511450250197775,0.08178147020183792,5.0
0.4017245709078628,-0.3270282743379983,0.5194141683326527,-0.020035099393019493,0.025427577748813546,0.041832254874573496,5.0
0.4017245709078628,-0.3339380518023356,0.48029291734954616,-0.036973685878390616,0.08634705757698212,0.0556921862662003,5.0
0.3948505928836235,-0.33048316307016695,0.48029291734954616,-0.04929265630263043,0.14336144455946617,0.027157031573162925,5.0
0.39141360387150415,-0.3339380518023356,0.5585354877959929,-0.056992015556742055,0.10977762893994837,0.005144198485528908,5.0
0.38797661485938423,-0.34430271988872924,0.6133053624367624,-0.026194585583340025,0.05588731766289783,-0.0038239926342862984,5.0
0.3811026368351416,-0.3408478311565606,0.644602404311388,-0.036973685878390616,0.0387049006876443,0.031233482421166532,5.0
0.3948505928836235,-0.3339380518023356,0.5976568072593331,-0.038513556790140346,0.031675729680628595,0.046723993903397196,5.0
0.3982875818957434,-0.3201184968736611,0.6054810848480477,-0.043133171090510514,0.060573432411786386,0.023895871391955193,5.0
0.38797661485938423,-0.3339380518023356,0.5507112102072783,-0.032867360838523,0.07228871809326953,0.027157031573162925,5.0
0.3948505928836235,-0.3408478311565606,0.5507112102072783,-0.03440723331539374,0.07931788664438756,0.04264754305539361,5.0
0.4017245709078628,-0.3339380518023356,0.48811712645802724,-0.016955356542409383,0.08712807709870965,0.01085122911338941,5.0
0.412035537944222,-0.33048316307016695,0.5272384459213674,0.01743510720504641,0.1347702393463697,-0.009531024815881653,5.0
0.412035537944222,-0.3339380518023356,0.5663597653847076,0.015381943902552089,0.17538322589848204,-0.03235914857031156,5.0
0.3982875818957434,-0.3270282743379983,0.5585354877959929,0.015895234728175677,0.17538322589848204,-0.03806617826593113,5.0
0.3845396258472643,-0.3339380518023356,0.5976568072593331,0.00973574795093476,0.14414246408119372,-0.03562030626554352,5.0
0.38797661485938423,-0.3408478311565606,0.6133053624367624,-0.009255999293609032,0.11446374130736041,-0.052741400324353815,5.0
0.39141360387150415,-0.3339380518023356,0.6211295715452434,-0.05596543390549492,0.07541279379870305,-0.04703437062873424,5.0
0.38797661485938423,-0.34430271988872924,0.6211295715452434,-0.08727615548708105,0.02777063452788869,-0.06741662238277651,5.0
0.3948505928836235,-0.34430271988872924,0.535062723510082,-0.0682844043297347,0.03323776768218764,-0.06252488335395279,5.0
0.39141360387150415,-0.3581222748174038,0.5585354877959929,-0.04826607465138327,0.08166094520957011,-0.07883068674596722,5.0
0.38797661485938423,-0.34430271988872924,0.5585354877959929,-0.00976929011923261,0.11758781939427045,-0.05763313935317754,5.0
0.38797661485938423,-0.3270282743379983,0.5976568072593331,0.01332878060005779,0.13789431743327976,-0.05029552832396619,5.0
0.39141360387150415,-0.3270282743379983,0.6289538491339581,0.037453433753155824,0.13086514173773212,-0.014422763844705377,5.0
0.37766564782302225,-0.2993891623545256,0.6524266134198691,0.04412620822577832,0.06525954716067496,0.023080580725159318,5.0
0.37766564782302225,-0.295934273386121,0.6524266134198691,0.06517111955537692,0.071507698571542,0.00269832772812917,5.0
0.38797661485938423,-0.295934273386121,0.6133053624367624,0.05952492673400158,0.05588731766289783,-0.015238054511501236,5.0
0.3811026368351416,-0.3062989402913348,0.6524266134198691,0.05387872765214225,0.048077128399314016,-0.007900443482289906,5.0
0.39141360387150415,-0.3062989402913348,0.6133053624367624,0.045666080702649055,0.0504201857737583,0.011666519158691345,5.0
0.38797661485938423,-0.3062989402913348,0.6133053624367624,0.026674335805786764,0.06994566190956351,0.03530993202618226,5.0
0.39141360387150415,-0.295934273386121,0.5898325296706184,0.017948394900427957,0.07385075475524802,0.06058392778099978,5.0
0.3811026368351416,-0.2993891623545256,0.6524266134198691,-0.0025832224733050462,0.04026693854036107,0.06221450911459151,5.0
0.37766564782302225,-0.3166636071965486,0.6524266134198691,-0.017981937508916097,0.02386553989609678,0.08341205153542967,5.0
0.37766564782302225,-0.3201184968736611,0.5898325296706184,-0.032354071578020435,0.03558082468452621,0.0825967608686338,5.0
0.3742286588109029,-0.3270282743379983,0.535062723510082,-0.040566718527513645,0.016055349441774697,0.0703674058386472,5.0
0.3948505928836235,-0.33739294242439194,0.6289538491339581,-0.036973685878390616,0.023084520374369265,0.04753928457019309,5.0
0.39141360387150415,-0.3408478311565606,0.6211295715452434,-0.01592877552699264,0.016055349441774697,0.01737355009729882,5.0
0.39141360387150415,-0.3408478311565606,0.6367781267226733,0.006142715301811733,0.03323776768218764,0.016558260051996884,5.0
0.38797661485938423,-0.3201184968736611,0.5820082520819032,0.025134463328916033,0.03479980575816783,0.01737355009729882,5.0
0.3948505928836235,-0.3339380518023356,0.5820082520819032,0.05798505425713087,0.04026693854036107,0.023080580725159318,5.0
0.37766564782302225,-0.3339380518023356,0.6367781267226733,0.05593189095463656,0.071507698571542,0.028787611663766793,5.0
0.3845396258472643,-0.3270282743379983,0.5898325296706184,0.05387872765214225,0.04260999531943621,0.028787611663766793,5.0
0.3742286588109029,-0.3166636071965486,0.6524266134198691,0.04617937152827262,0.058230376228080395,0.012481809359366764,5.0
0.38797661485938423,-0.3166636071965486,0.6289538491339581,0.045152789877025465,0.017617387294491457,0.019004130498649654,5.0
0.3845396258472643,-0.30975382925973943,0.6524266134198691,0.006142715301811733,0.0012159892455963195,0.032048771844974525,5.0
0.3811026368351416,-0.295934273386121,0.5898325296706184,-0.012335742290949235,0.02230350204338002,0.03938638287418587,5.0
0.37766564782302225,-0.295934273386121,0.6054810848480477,-0.006689546730612153,0.017617387294491457,0.05161573541819669,5.0
0.38797661485938423,-0.30975382925973943,0.6211295715452434,-0.009255999293609032,0.03323776768218764,0.0556921862662003,5.0
0.3845396258472643,-0.3270282743379983,0.5976568072593331,-0.027221166452026678,0.018398406816218977,0.046723993903397196,5.0
0.37766564782302225,-0.3339380518023356,0.5898325296706184,-0.03543381340151989,0.005902101613008323,0.05324631675178843,5.0
0.37766564782302225,-0.33739294242439194,0.5820082520819032,-0.023628133020343146,-0.005032164546747287,0.026341740906367053,5.0
0.3811026368351416,-0.3339380518023356,0.5898325296706184,-0.017981937508916097,-0.0019080864598372022,0.027972322239958804,5.0
0.3948505928836235,-0.3166636071965486,0.5898325296706184,-0.009255999293609032,0.05666833718462535,0.027157031573162925,5.0
0.3982875818957434,-0.30975382925973943,0.5898325296706184,0.0025496810875677046,0.010588216361896888,0.08341205153542967,5.0
0.3948505928836235,-0.3339380518023356,0.5820082520819032,-1.676991030816495e-05,-0.019871525933663953,0.06221450911459151,5.0
0.37766564782302225,-0.3201184968736611,0.535062723510082,-0.016442066059156026,-0.001127069319586256,0.04346283372218946,5.0
0.3742286588109029,-0.32357338560582977,0.6211295715452434,-0.016442066059156026,-0.03236782875539805,0.03449464260237427,5.0
0.38797661485938423,-0.31320871846438,0.6054810848480477,-0.02414142306340622,-0.012842355001069373,0.07281327783903484,5.0
0.3948505928836235,-0.30975382925973943,0.5741840429734222,-0.042106591004384374,-0.022214579735893417,0.049169865903784846,5.0
0.3982875818957434,-0.3166636071965486,0.5741840429734222,-0.05134581960512473,-0.04486413157713214,0.058953346447408024,5.0
0.41890951596846404,-0.3201184968736611,0.5741840429734222,-0.03338065166414658,-0.04252107777490269,0.04264754305539361,5.0
0.40859854893210207,-0.3339380518023356,0.5194141683326527,-0.010282580162295683,-0.0065942012087257685,0.041832254874573496,5.0
0.4017245709078628,-0.3339380518023356,0.5741840429734222,-0.016442066059156026,-0.0073752207304532994,0.058953346447408024,5.0
0.37766564782302225,-0.3512124973530665,0.5741840429734222,-0.00976929011923261,-0.03392986779885309,0.033679353178566275,5.0
0.3982875818957434,-0.35466738608523507,0.5820082520819032,-0.012335742290949235,-0.03314884827712557,0.021450000634555457,5.0
0.3982875818957434,-0.3512124973530665,0.5585354877959929,0.006142715301811733,-0.022214579735893417,-0.001378123119874439,5.0
0.4051615599199827,-0.3512124973530665,0.5741840429734222,-0.01079587098791926,-0.005032164546747287,0.027972322239958804,5.0
0.3982875818957434,-0.3477576086208979,0.5663597653847076,0.0015231010014415615,-0.026119677344531005,0.05161573541819669,5.0
0.3948505928836235,-0.3408478311565606,0.535062723510082,-0.014902194658305988,-0.019090506411936426,0.05406160493260855,5.0
0.4051615599199827,-0.33739294242439194,0.48029291734954616,-0.03184078075239686,0.01996044466893574,0.08015088886824617,5.0
0.3948505928836235,-0.3477576086208979,0.5037656816354571,-0.044673042002260244,-0.0026891059815647377,0.08993437189784514,5.0
0.3948505928836235,-0.3477576086208979,0.5194141683326527,-0.05288568895175344,-0.026900696866258515,0.06547566680982349,5.0
0.3948505928836235,-0.3477576086208979,0.5194141683326527,-0.03646039505276704,-0.051112282987999184,0.05732276511381628,5.0
0.39141360387150415,-0.3339380518023356,0.5741840429734222,-0.04826607465138327,-0.07922896671837748,0.094010820259873,5.0
0.3948505928836235,-0.33739294242439194,0.5898325296706184,-0.05493885225424775,-0.07141878102700851,0.09808726862190083,5.0
0.3948505928836235,-0.33739294242439194,0.5898325296706184,-0.04929265630263043,-0.04017801920972013,0.12743771273874618,5.0
0.38797661485938423,-0.3339380518023356,0.535062723510082,-0.05904517572899435,-0.04330209253367712,0.08341205153542967,5.0
0.39141360387150415,-0.3339380518023356,0.6054810848480477,-0.046726205304754555,-0.10031648427911427,0.06710624814341525,5.0
0.4017245709078628,-0.3408478311565606,0.5428870010987973,-0.04723949613037813,-0.18700959403543166,0.0883037905642534,5.0
0.43265747201694316,-0.33048316307016695,0.5037656816354571,-0.019008518524332843,-0.17373227169197003,0.10134843128908431,5.0
0.38797661485938423,-0.3270282743379983,0.5585354877959929,-0.0287610373637764,-0.1253090899225825,0.11194720001352766,5.0
0.38797661485938423,-0.32357338560582977,0.5585354877959929,-0.046212914479130965,-0.09484934762702169,0.0989025592886967,5.0
0.3948505928836235,-0.3166636071965486,0.5115899592241716,-0.0641780808549881,-0.10422157236184569,0.08748849989745752,5.0
0.38797661485938423,-0.3339380518023356,0.5194141683326527,-0.06777111350411115,-0.0753238691097399,0.07199798717223894,5.0
0.37766564782302225,-0.35466738608523507,0.48029291734954616,-0.04826607465138327,-0.02846273114676047,0.020634710589253518,5.0
0.37766564782302225,-0.35466738608523507,0.48029291734954616,0.052338861435755564,-0.0472071901423147,0.019819420543951586,5.0
0.4154725269563441,-0.3615771635495723,0.5037656816354571,0.07697680228423517,-0.04252107777490269,0.06221450911459151,5.0
0.4292204830048227,-0.36503205228174096,0.4646443621721169,0.0738970573304937,0.018398406816218977,0.04753928457019309,5.0
0.4292204830048227,-0.36503205228174096,0.4646443621721169,0.03899330623002657,0.04260999531943621,0.023080580725159318,5.0
0.4223465049805834,-0.36848694479368516,0.5194141683326527,-0.03594710422714345,0.04182897698844697,0.023895871391955193,5.0
0.412035537944222,-0.38576138845452823,0.5037656816354571,-0.11345396881243139,-0.019090506411936426,0.0035136183949250415,5.0
0.412035537944222,-0.38576138845452823,0.5037656816354571,-0.16940263124249708,-0.03080578971194301,-0.05192610965755795,5.0
0.412035537944222,-0.4272200532405517,0.5115899592241716,-0.12423306362955842,0.020741464190663257,-0.10899642152960844,5.0
0.4017245709078628,-0.4444944969013948,0.535062723510082,-0.05442556142862418,0.03323776768218764,-0.13834686564645382,5.0
0.412035537944222,-0.4479493931931145,0.48029291734954616,0.018974976551675113,0.07385075475524802,-0.13590099364606617,5.0
0.4154725269563441,-0.4237651645083831,0.48029291734954616,0.0821097042799869,0.11446374130736041,-0.13182454031208682,5.0
0.39141360387150415,-0.3615771635495723,0.4646443621721169,0.10161474939319881,0.06604056668240249,-0.056002562991537316,5.0
0.38797661485938423,-0.3270282743379983,0.5037656816354571,0.1154735829035833,0.04885814792104154,-0.04377320796155072,5.0
0.3845396258472643,-0.3166636071965486,0.5194141683326527,0.14165140874990173,-0.025338657822803468,-0.022575665540712588,5.0
0.38797661485938423,-0.3270282743379983,0.535062723510082,0.13908494836129978,-0.00034604979785872485,0.016558260051996884,5.0
0.4154725269563441,-0.3270282743379983,0.5272384459213674,0.13292545845381687,0.02698961560153031,0.023080580725159318,5.0
0.40859854893210207,-0.3270282743379983,0.5194141683326527,0.10315461560958551,0.02855165375193164,0.00269832772812917,5.0
0.3948505928836235,-0.3270282743379983,0.5194141683326527,0.07697680228423517,0.005902101613008323,-0.04377320796155072,5.0
0.412035537944222,-0.33048316307016695,0.48811712645802724,0.0656844103810005,0.04885814792104154,-0.04540378929514248,5.0
0.40859854893210207,-0.3408478311565606,0.49594140404674175,0.026674335805786764,0.0769748328421581,-0.005454573967878046,5.0
0.3982875818957434,-0.3408478311565606,0.44117159788620597,-0.01592877552699264,0.05198222362647506,-0.026652116388716184,5.0
0.38797661485938423,-0.3512124973530665,0.44117159788620597,-0.049805947128253994,0.009026179699918398,0.016558260051996884,5.0
0.3948505928836235,-0.37194183352585375,0.4098745560115805,-0.04826607465138327,0.02230350204338002,0.0883037905642534,5.0
0.40859854893210207,-0.3926711659188655,0.4255230427087767,-0.038513556790140346,0.009026179699918398,0.09238024389823277,5.0
0.3982875818957434,-0.3823064997223596,0.4646443621721169,-0.0267078756264031,0.01996044466893574,0.08096617953504204,5.0
0.4051615599199827,-0.3961260546510341,0.4098745560115805,-0.039026847615763915,0.05510630052264686,0.094010820259873,5.0
0.3982875818957434,-0.3892162771866969,0.4333473202974913,-0.0395401384413875,0.020741464190663257,0.09074966256464102,5.0
0.3982875818957434,-0.4030358321153713,0.48811712645802724,-0.03594710422714345,0.00512108447275735,0.10053314062228845,5.0
0.4051615599199827,-0.3823064997223596,0.45682008458340173,-0.019521808958676168,0.018398406816218977,0.1086860472902472,5.0
0.40859854893210207,-0.3823064997223596,0.48029291734954616,-0.01182245185660591,0.024646558822455165,0.094010820259873,5.0
0.4051615599199827,-0.37539672225802234,0.4724686397608315,0.00716929695305889,0.0504201857737583,0.08015088886824617,5.0
0.39141360387150415,-0.36848694479368516,0.48029291734954616,0.02205472150541658,0.059792412890058884,0.07199798717223894,5.0
0.4017245709078628,-0.36848694479368516,0.4724686397608315,-0.008742708467985453,0.05744935670635287,0.07525914983942246,5.0
0.4017245709078628,-0.35466738608523507,0.5194141683326527,-0.013362323159635887,0.07385075475524802,0.04753928457019309,5.0
0.3948505928836235,-0.33739294242439194,0.5194141683326527,-0.01182245185660591,0.0777558523638856,0.041016964207777624,5.0
0.38797661485938423,-0.3270282743379983,0.48811712645802724,-0.015415485092649313,0.044953052693880495,0.07852030753465442,5.0
0.4017245709078628,-0.3339380518023356,0.48029291734954616,-0.04108000935313721,0.05901139574980791,0.0883037905642534,5.0
0.412035537944222,-0.3512124973530665,0.48029291734954616,-0.04877936547700684,0.04729611006832477,0.09808726862190083,5.0
0.40859854893210207,-0.3581222748174038,0.45682008458340173,-0.031327489926773276,0.030894710679849068,0.12010010668148638,5.0
0.412035537944222,-0.3477576086208979,0.5037656816354571,-0.01182245185660591,0.04573407221560801,0.09319552959307711,5.0
0.3948505928836235,-0.35466738608523507,0.45682008458340173,-0.040566718527513645,0.08400400377475267,0.050800444751400824,5.0
0.3948505928836235,-0.34430271988872924,0.44899587547492054,-0.03184078075239686,0.10977762893994837,0.06221450911459151,5.0
0.4017245709078628,-0.30975382925973943,0.4333473202974913,-0.022601551760376246,0.15351469834192394,0.10542488462306368,5.0
0.4051615599199827,-0.30975382925973943,0.5037656816354571,-0.03440723331539374,0.21521520245477313,0.09074966256464102,5.0
0.3948505928836235,-0.3339380518023356,0.6133053624367624,-0.05545214307987133,0.2214633395767809,0.04427812438898535,5.0
0.3811026368351416,-0.3270282743379983,0.5898325296706184,-0.042619880264886945,0.0894711356638922,0.0035136183949250415,5.0
0.370791669798783,-0.3201184968736611,0.5898325296706184,-0.009255999293609032,-0.012842355001069373,-0.05518727232474145,5.0
0.38797661485938423,-0.27865982830786207,0.535062723510082,0.005629424476188161,-0.018309486890208917,0.007590068621434709,5.0
0.4017245709078628,-0.28902449544931186,0.5272384459213674,-0.003096513298928624,0.0387049006876443,0.06547566680982349,5.0
0.41890951596846404,-0.30975382925973943,0.5507112102072783,-0.06623124415748244,0.0769748328421581,0.05732276511381628,5.0
0.38797661485938423,-0.3339380518023356,0.5037656816354571,-0.07341730945572847,0.06447852763894744,0.05976863711420389,5.0
0.37766564782302225,-0.3408478311565606,0.5272384459213674,-0.05391227060300059,0.01527433111078545,0.00269832772812917,5.0
0.3811026368351416,-0.3477576086208979,0.5194141683326527,-0.009255999293609032,-0.010499296435886821,-0.02828269523633219,5.0
0.3948505928836235,-0.3512124973530665,0.5194141683326527,0.008195877039185031,0.005902101613008323,-0.04377320796155072,5.0
0.5495148577772236,-0.32357338560582977,0.5428870010987973,0.027187623501168334,-0.014404389281571329,-0.07149307074480435,5.0
0.44640518741362445,-0.33048316307016695,0.5898325296706184,0.07646351145861156,0.3581416891977533,-0.023390956207508452,5.0
0.44640518741362445,-0.33048316307016695,0.5898325296706184,0.04001988788127371,0.14336144455946617,-0.04703437062873424,5.0
0.37766564782302225,-0.37539672225802234,0.5507112102072783,0.08056983806360021,0.0004349697238687884,-0.06660133171598062,5.0
0.3845396258472643,-0.37194183352585375,0.5585354877959929,0.11188055338470229,0.03948591961400268,-0.08046126807955896,5.0
0.4017245709078628,-0.3512124973530665,0.5741840429734222,0.10161474939319881,0.011369235883624406,-0.07393894274519197,5.0
0.4017245709078628,-0.3512124973530665,0.5741840429734222,0.07595022063298801,0.06916464238783601,-0.13345512164567858,5.0
0.44640518741362445,-0.3512124973530665,0.5428870010987973,0.07287047567924655,0.14648552264637626,-0.11144229352999606,5.0
0.37766564782302225,-0.3270282743379983,0.5585354877959929,0.07800338393548233,0.21521520245477313,-0.10410467752883318,5.0
0.37766564782302225,-0.3270282743379983,0.5585354877959929,0.0703040278116127,0.06525954716067496,-0.09106003680400226,5.0
0.3639176917745437,-0.33048316307016695,0.6211295715452434,0.053365436826518675,0.014493311589057933,-0.0959517808047775,5.0
0.38797661485938423,-0.28902449544931186,0.6289538491339581,0.01435536225130495,0.06760260334438098,-0.0763848147455796,5.0
0.4257834939927033,-0.2993891623545256,0.5898325296706184,0.010249038776558332,0.11758781939427045,-0.07312365207839608,5.0
0.3948505928836235,-0.3062989402913348,0.6367781267226733,0.03129395010615695,0.1011864189638988,-0.06497075038238888,5.0
0.38797661485938423,-0.3270282743379983,0.5976568072593331,0.05541860012901296,0.09571928707475925,-0.10328938686203731,5.0
0.3811026368351416,-0.3339380518023356,0.5037656816354571,0.029754077629286203,0.10743457513771892,-0.12367164358803111,5.0
0.3948505928836235,-0.3201184968736611,0.6133053624367624,0.02205472150541658,0.10977762893994837,-0.06578604104918476,5.0
0.4154725269563441,-0.3166636071965486,0.6054810848480477,0.03026736845490979,0.14179940551601114,-0.00871573414908578,5.0
0.4017245709078628,-0.3477576086208979,0.5898325296706184,0.023594590852045304,0.16835405020293442,0.012481809359366764,5.0
0.3845396258472643,-0.3408478311565606,0.5663597653847076,0.03232052862716208,0.1496096007332863,-0.041327340933114645,5.0
0.3811026368351416,-0.3512124973530665,0.6289538491339581,0.023081300026421715,0.11212068750513093,-0.08942945547041051,5.0
0.39141360387150415,-0.3477576086208979,0.6133053624367624,-0.014902194658305988,0.10665355561599141,-0.09269061813759402,5.0
0.3948505928836235,-0.3339380518023356,0.5741840429734222,-0.032867360838523,0.12227393652463558,-0.10328938686203731,5.0
0.3948505928836235,-0.3339380518023356,0.5898325296706184,-0.03338065166414658,0.118368838915998,-0.08861416480361464,5.0
0.4051615599199827,-0.3062989402913348,0.6054810848480477,-0.014902194658305988,0.15429570833774528,-0.04377320796155072,5.0
0.3948505928836235,-0.3166636071965486,0.5898325296706184,-0.019521808958676168,0.11133966798340342,-0.049480237657170335,5.0
0.3948505928836235,-0.3339380518023356,0.6211295715452434,-0.04877936547700684,0.11602578035081541,-0.05192610965755795,5.0
0.38797661485938423,-0.33048316307016695,0.6367781267226733,-0.038000265964516756,0.1011864189638988,-0.046219079961938345,5.0
0.3811026368351416,-0.3270282743379983,0.6133053624367624,-0.03543381340151989,0.08009890616611508,-0.02991327656992392,5.0
0.37766564782302225,-0.3270282743379983,0.5976568072593331,-0.03440723331539374,0.03948591961400268,-0.03480501559874766,5.0
0.3639176917745437,-0.32357338560582977,0.6133053624367624,-0.02568129475771645,-0.02846273114676047,0.005144198485528908,5.0
0.38797661485938423,-0.32357338560582977,0.6602508910085836,-0.038000265964516756,-0.03236782875539805,0.041016964207777624,5.0
0.3948505928836235,-0.3166636071965486,0.6054810848480477,-0.03030090905808663,0.010588216361896888,0.04020167354098174,5.0
0.4051615599199827,-0.3166636071965486,0.5898325296706184,-0.008742708467985453,0.04885814792104154,0.011666519158691345,5.0
0.3948505928836235,-0.3062989402913348,0.5898325296706184,-0.011309161030982333,0.03636184361088459,0.001883038304321175,5.0
0.4017245709078628,-0.3201184968736611,0.5663597653847076,0.00973574795093476,0.03792388176128592,-0.013607475663885264,5.0
0.4017245709078628,-0.31320871846438,0.5507112102072783,0.04925911648201409,0.06604056668240249,-0.002193412543682434,5.0
0.38797661485938423,-0.31320871846438,0.5194141683326527,0.053365436826518675,0.09103317470734723,0.001883038304321175,5.0
0.38797661485938423,-0.31320871846438,0.5507112102072783,0.023594590852045304,0.11368272178563289,0.006774778576132774,5.0
0.38797661485938423,-0.31320871846438,0.6133053624367624,-0.00617625668754908,0.06447852763894744,0.004328907818733034,5.0
0.38797661485938423,-0.35466738608523507,0.6211295715452434,-0.07855021145148021,0.0004349697238687884,-0.009531024815881653,5.0
0.38797661485938423,-0.38576138845452823,0.6054810848480477,-0.0939489299597035,-0.04408311205540465,-0.020129796026300727,5.0
0.3811026368351416,-0.36848694479368516,0.5741840429734222,-0.10267486773482028,-0.051112282987999184,-0.01768392402591311,5.0
0.38797661485938423,-0.37539672225802234,0.5741840429734222,-0.08676286466145744,-0.02455763830107596,-0.012792184997089395,5.0
0.3948505928836235,-0.36848694479368516,0.48811712645802724,-0.0687976951553583,-0.012061335479341866,0.03938638287418587,5.0
0.40859854893210207,-0.34430271988872924,0.5428870010987973,-0.02568129475771645,0.00980719684016937,0.029602902330562668,5.0
0.3948505928836235,-0.3166636071965486,0.5741840429734222,0.00716929695305889,-0.019871525933663953,0.029602902330562668,5.0
0.37766564782302225,-0.30975382925973943,0.5585354877959929,-0.020035099393019493,-0.008156237870704276,0.032864062511770396,5.0
0.38797661485938423,-0.295934273386121,0.5585354877959929,-0.018495227992169454,0.04026693854036107,0.050800444751400824,5.0
0.37766564782302225,-0.2821147170400307,0.6211295715452434,-0.028247747320713328,0.00355904542930231,0.07933559820145031,5.0
0.3845396258472643,-0.29247938418148045,0.6837236552944945,-0.028247747320713328,-0.02065254545539147,0.08422734220222555,5.0
0.3742286588109029,-0.29247938418148045,0.6680751685972983,-0.05134581960512473,-0.06907572246182593,0.04835457523698895,5.0
0.39141360387150415,-0.29247938418148045,0.6524266134198691,-0.08214324723084525,-0.10265954284429683,0.05976863711420389,5.0
0.3948505928836235,-0.29247938418148045,0.644602404311388,-0.08727615548708105,-0.11281278710084838,0.027157031573162925,5.0
0.38797661485938423,-0.29247938418148045,0.6054810848480477,-0.12166661576192457,-0.10656463092702827,0.036940513359774,5.0
0.38797661485938423,-0.295934273386121,0.5663597653847076,-0.07649705440946995,-0.06204654676627827,0.10053314062228845,5.0
0.38797661485938423,-0.295934273386121,0.5663597653847076,-0.07649705440946995,-0.06204654676627827,0.10053314062228845,5.0
0.3948505928836235,-0.295934273386121,0.535062723510082,-0.06007175738024151,-0.049550243944544166,0.08178147020183792,5.0
0.4017245709078628,-0.295934273386121,0.5037656816354571,-0.0477527869560017,0.01527433111078545,0.09156495323143692,5.0
0.4017245709078628,-0.3201184968736611,0.49594140404674175,-0.06469137168061169,0.03636184361088459,0.11846952534789465,5.0
0.39141360387150415,-0.32357338560582977,0.535062723510082,-0.08316982888209243,0.03323776768218764,0.13803649140709257,5.0
0.3948505928836235,-0.3339380518023356,0.535062723510082,-0.09805525030420809,0.00824516017819088,0.14700467879794413,5.0
0.3948505928836235,-0.37539672225802234,0.49594140404674175,-0.14476468413353347,-0.011280315957614329,0.12743771273874618,5.0
0.4017245709078628,-0.3926711659188655,0.5194141683326527,-0.16375643842112178,-0.022214579735893417,0.08748849989745752,5.0
0.4051615599199827,-0.3926711659188655,0.5272384459213674,-0.18942095466036457,-0.041740058253175186,0.032048771844974525,5.0
0.412035537944222,-0.3961260546510341,0.48811712645802724,-0.15195075569226357,-0.036272921601082544,-0.015238054511501236,5.0
0.412035537944222,-0.38576138845452823,0.5037656816354571,-0.09548880243657423,0.02620859667517193,-0.02094508669309661,5.0
0.3982875818957434,-0.3823064997223596,0.5194141683326527,-0.025168003932092873,0.030113691604648402,-0.022575665540712588,5.0
0.38797661485938423,-0.37539672225802234,0.5507112102072783,0.00716929695305889,0.044953052693880495,-0.02991327656992392,5.0
0.37766564782302225,-0.3270282743379983,0.535062723510082,0.02616104498016319,0.0504201857737583,-0.016053345178297127,5.0
0.39141360387150415,-0.31320871846438,0.5663597653847076,0.04155976035814447,0.05666833718462535,0.013297099482355438,5.0
0.3982875818957434,-0.295934273386121,0.5663597653847076,0.037966724578779414,0.06525954716067496,0.036940513359774,5.0
0.38797661485938423,-0.27865982830786207,0.5741840429734222,0.017948394900427957,0.02777063452788869,0.033679353178566275,5.0
0.3948505928836235,-0.3062989402913348,0.5585354877959929,0.0035762627388148597,0.017617387294491457,-0.007085152815494032,5.0
0.3948505928836235,-0.3201184968736611,0.5741840429734222,-0.020548390023002943,0.006683121134735836,0.009220648712038575,5.0
0.38797661485938423,-0.32357338560582977,0.6758994461860135,-0.025168003932092873,-0.008156237870704276,-0.0005628324530785629,5.0
0.38797661485938423,-0.32357338560582977,0.5976568072593331,-0.02414142306340622,-0.04330209253367712,-0.0478496612955301,5.0
0.3948505928836235,-0.3270282743379983,0.5741840429734222,-0.019521808958676168,-0.06282756628800579,-0.033174439237107424,5.0
0.39141360387150415,-0.3270282743379983,0.535062723510082,0.007682586213561462,-0.0026891059815647377,-0.0038239926342862984,5.0
0.37766564782302225,-0.2993891623545256,0.5194141683326527,0.024107881677668877,0.030894710679849068,0.06955212014380287,5.0
0.3948505928836235,-0.3166636071965486,0.535062723510082,0.03899330623002657,0.02698961560153031,0.06384508547623174,5.0
0.4017245709078628,-0.3166636071965486,0.535062723510082,0.035400270450661527,0.001997008767323824,0.0989025592886967,5.0
0.3948505928836235,-0.33739294242439194,0.5663597653847076,0.026674335805786764,0.0012159892455963195,0.08585791856386578,5.0
0.3948505928836235,-0.3270282743379983,0.49594140404674175,0.020001558202922275,-0.0058131816869982636,0.1086860472902472,5.0
0.4154725269563441,-0.3270282743379983,0.45682008458340173,-0.017981937508916097,0.005902101613008323,0.17309396024760598,5.0
0.41890951596846404,-0.3581222748174038,0.535062723510082,-0.05853188490337079,0.04260999531943621,0.18939977358352345,5.0
0.4017245709078628,-0.3926711659188655,0.535062723510082,-0.09086918500596203,-0.03549190207935505,0.1535270041323111,5.0
0.3845396258472643,-0.3961260546510341,0.535062723510082,-0.042619880264886945,-0.11984195327048985,0.08585791856386578,5.0
0.3811026368351416,-0.37885161099019105,0.535062723510082,-0.021061680457346268,-0.12843315848358638,0.027157031573162925,5.0
0.39141360387150415,-0.3581222748174038,0.5663597653847076,-0.016955356542409383,-0.08703916193565268,0.010035939068087479,5.0
0.38797661485938423,-0.3408478311565606,0.5820082520819032,-0.019008518524332843,-0.08157202528356003,-0.020129796026300727,5.0
0.38797661485938423,-0.3339380518023356,0.6133053624367624,-0.015415485092649313,-0.11984195327048985,-0.024206246874304345,5.0
0.3811026368351416,-0.28902449544931186,0.6680751685972983,-0.014902194658305988,-0.12687112896603756,-0.06497075038238888,5.0
0.3742286588109029,-0.2752049395756935,0.6680751685972983,-0.027221166452026678,-0.14873966604850183,-0.06170959268715691,5.0
0.3845396258472643,-0.26484027148929984,0.5898325296706184,-0.07290401863010489,-0.1214039923139449,-0.053556690991149694,5.0
0.4154725269563441,-0.2855696057721993,0.6133053624367624,-0.1298792689719018,-0.06829470294009841,-0.07720010541237544,5.0
0.4017245709078628,-0.29247938418148045,0.5898325296706184,-0.18326147727384967,-0.04252107777490269,-0.13263983097888268,5.0
0.3948505928836235,-0.295934273386121,0.5898325296706184,-0.30388473990909787,-0.05736043916181936,-0.2435192821118971,5.0
0.3948505928836235,-0.295934273386121,0.5898325296706184,-0.39884348630510347,-0.08157202528356003,-0.3421693831868766,5.0
0.37766564782302225,-0.26829516022146843,0.5194141683326527,-0.5097142295139877,-0.080009986240105,-0.4718005296000991,5.0
0.38797661485938423,-0.2613853827571312,0.5194141683326527,-0.7021981701736325,-0.04564515109885968,-0.4612017608756559,5.0
0.38797661485938423,-0.2613853827571312,0.5194141683326527,-0.8433530533128559,-0.0026891059815647377,-0.35439875313271774,5.0
0.3639176917745437,-0.3270282743379983,0.5037656816354571,-0.9598699267382752,-0.0073752207304532994,-0.31118837762424556,5.0
0.4017245709078628,-0.3166636071965486,0.5428870010987973,-1.0050395694770222,-0.052674322031454224,-0.36336692063576315,5.0
0.4017245709078628,-0.3166636071965486,0.5428870010987973,-1.1195033547257556,0.014493311589057933,-0.39516326658470535,5.0
0.43265747201694316,-0.3062989402913348,0.44117159788620597,-1.1651861568199615,0.09884336516166932,-0.24596516405618776,5.0
0.412035537944222,-0.3166636071965486,0.5585354877959929,-1.1785317057652065,0.10587253609426389,-0.06823191304957237,5.0
0.412035537944222,-0.3166636071965486,0.5585354877959929,-1.156460244086781,0.009026179699918398,-0.0698624894112126,5.0
0.43265747201694316,-0.3512124973530665,0.5820082520819032,-1.1374684397153203,-0.01596642832502637,-0.07230836141160021,5.0
0.4017245709078628,-0.3581222748174038,0.48029291734954616,-1.129769146196291,-0.02924375066848797,-0.012792184997089395,5.0
0.4017245709078628,-0.3581222748174038,0.48029291734954616,-1.1148837185136913,-0.010499296435886821,0.10950133795704305,5.0
0.38797661485938423,-0.3581222748174038,0.4255230427087767,-1.0902457588837597,-0.03783496064453759,0.1934762169735998,5.0
0.4017245709078628,-0.3512124973530665,0.4098745560115805,-1.0902457588837597,0.006683121134735836,0.24076303587214826,5.0
0.3948505928836235,-0.35466738608523507,0.4255230427087767,-1.0856261226716954,0.029332672678290022,0.24810066181721419,5.0
0.3948505928836235,-0.35466738608523507,0.4255230427087767,-1.0856261226716954,0.029332672678290022,0.24810066181721419,5.0
0.4017245709078628,-0.3477576086208979,0.4020502784228658,-1.1205298737721625,0.018398406816218977,0.33859785622423483,5.0
0.38797661485938423,-0.33048316307016695,0.33945619467361526,-1.1708324122461773,0.004340064951029845,0.4755666086947173,5.0
0.38797661485938423,-0.36503205228174096,0.2455650690497392,-1.1918772547104515,0.011369235883624406,0.6068283165537255,5.0
0.40859854893210207,-0.4099456095797086,0.25338934663845386,-1.1728855505067355,-0.0026891059815647377,0.6793891361790431,5.0
0.4017245709078628,-0.4306749419727203,0.2455650690497392,-1.1328489036710006,0.04339101484116373,0.7103701616294799,5.0
0.4051615599199827,-0.50668249408043,0.2299165138723094,-1.0840862439343406,-0.00034604979785872485,0.7071089591866845,5.0
0.3948505928836235,-0.5205020490091045,0.2377407914610246,-0.9573035289545136,-0.0846961033704701,0.8351095043785092,5.0
0.4017245709078628,-0.5377765002294987,0.2299165138723094,-0.9085409693855981,-0.019871525933663953,0.7690710100875586,5.0
0.38797661485938423,-0.56541562520595,0.20644374958639902,-0.9367719460134428,0.06760260334438098,0.7315676990783667,5.0
0.3948505928836235,-0.5619607289142301,0.2612135557469349,-0.9064877309572954,0.044953052693880495,0.6973255109607459,5.0
0.38797661485938423,-0.5481411739855557,0.20644374958639902,-0.8264144372858258,0.04417203317215297,0.7030325157966081,5.0
0.41890951596846404,-0.5757802838429046,0.2612135557469349,-0.7925372553156377,0.05510630052264686,0.6728668108446759,5.0
0.4257834939927033,-0.6068742899919733,0.2377407914610246,-0.7458278340072804,0.1519526592984689,0.5994907104964657,5.0
0.4257834939927033,-0.617238948628928,0.2377407914610246,-0.6575418871258336,0.23083557383751116,0.46252195802598334,5.0
0.4257834939927033,-0.6137840523372083,0.37075323654824077,-0.551804064694153,0.15429570833774528,0.32229206277612343,5.0
0.3982875818957434,-0.5826900461881396,0.4098745560115805,-0.4891825964890448,0.0387049006876443,0.2570688492080657,5.0
0.39141360387150415,-0.5723253875511849,0.38640179172567,-0.4234814208930989,0.02620859667517193,0.2546229672637751,5.0
0.412035537944222,-0.5585058326225104,0.315983430387705,-0.3203100212871162,0.05354426147919183,0.2644064552653255,5.0
0.41890951596846404,-0.5792351801346244,0.2690378333356495,-0.25922845686129886,0.09650030659648676,0.20325970497515025,5.0
0.43265747201694316,-0.5723253875511849,0.3629289589595256,-0.2037930977778247,0.12149291700290807,0.13885178207388843,5.0
0.45671615444998315,-0.555050951449893,0.35510474985104457,-0.14322481791714675,0.16757304020711306,0.015742969851321467,5.0
0.4257834939927033,-0.5446862776938359,0.37075323654824077,-0.0641780808549881,0.13320820030291466,-0.06741662238277651,5.0
0.4017245709078628,-0.517047167836487,0.44117159788620597,0.013842071425681363,0.051201205295485816,-0.12204106225443936,5.0
0.3948505928836235,-0.5101373903721497,0.4255230427087767,0.07595022063298801,-0.001127069319586256,-0.14894563437089708,5.0
0.40859854893210207,-0.5101373903721497,0.323807639496186,0.13805836671005264,0.03714286283492754,-0.14079273764684141,5.0
0.41890951596846404,-0.5343216190568811,0.3003348752102751,0.21145889842986787,0.08478502329648019,-0.16525143776291154,5.0
0.41890951596846404,-0.5343216190568811,0.3003348752102751,0.2745936261581797,0.05198222362647506,-0.20683123193779196,5.0
0.4257834939927033,-0.5723253875511849,0.37075323654824077,0.38597767897413976,0.023084520374369265,-0.2973284462326187,5.0
0.4051615599199827,-0.555050951449893,0.37075323654824077,0.5266192525062873,-0.02143356021416588,-0.3747810098587114,5.0
0.4017245709078628,-0.5377765002294987,0.35510474985104457,0.5984799430516519,-0.04642617062058718,-0.370704566468635,5.0
0.41890951596846404,-0.5308667227651614,0.38640179172567,0.7237228293779965,-0.0058131816869982636,-0.37722685202739,5.0
0.412035537944222,-0.5377765002294987,0.34728047226233,0.7842911092386744,0.05666833718462535,-0.40413143408775076,5.0
0.40859854893210207,-0.5446862776938359,0.37075323654824077,0.8325404092843864,0.0894711356638922,-0.3739656893602064,5.0
0.3845396258472643,-0.555050951449893,0.45682008458340173,0.8864358645885696,0.10040539944217126,-0.4318512968710044,5.0
0.37766564782302225,-0.555050951449893,0.44117159788620597,0.991147117889971,0.05198222362647506,-0.43837362220537146,5.0
0.38797661485938423,-0.49286293915175544,0.44117159788620597,1.0902122159329013,0.06682158382265344,-0.5101191611077961,5.0
0.38797661485938423,-0.4410396157287773,0.4098745560115805,1.1446210309280325,0.13008412221600457,-0.5035968357734292,5.0
0.38797661485938423,-0.4203102757762145,0.4646443621721169,1.186197556501122,0.15273367882019642,-0.5084885598863981,5.0
0.38797661485938423,-0.4203102757762145,0.4646443621721169,1.1754184053396386,0.08634705757698212,-0.45467943554128876,5.0
0.3948505928836235,-0.3995809433832027,0.44117159788620597,1.186197556501122,0.07463177427697552,-0.41880664620227037,5.0
0.39141360387150415,-0.37539672225802234,0.4098745560115805,1.2026228629210765,0.16210590355502044,-0.37804217252589495,5.0
0.39141360387150415,-0.37539672225802234,0.4098745560115805,1.2267474628600603,0.1511716397767414,-0.3250482891280662,5.0
0.3982875818957434,-0.4237651645083831,0.4646443621721169,1.2385531330679505,0.11446374130736041,-0.3087424956799548,5.0
0.3639176917745437,-0.4824982805148007,0.4646443621721169,1.243686028803218,0.049639166252030784,-0.3429847036853817,5.0
0.3639176917745437,-0.4824982805148007,0.4646443621721169,1.2945018268004362,0.017617387294491457,-0.38293389663886424,5.0
0.370791669798783,-0.5032276129078125,0.45682008458340173,1.3925403056292152,0.06760260334438098,-0.4677240862100227,5.0
0.38797661485938423,-0.49631783544347524,0.48029291734954616,1.4880123866742325,0.14492348360292123,-0.49055218510469517,5.0
0.40859854893210207,-0.4444944969013948,0.4646443621721169,1.5383148249805028,0.1550767278594728,-0.5035968357734292,5.0
0.4017245709078628,-0.34430271988872924,0.5037656816354571,1.563466044133638,0.15039062025501387,-0.40739259675493433,5.0
0.4017245709078628,-0.2855696057721993,0.5115899592241716,1.4833927504621682,0.19647073393331269,-0.31281895895783735,5.0
0.4257834939927033,-0.21301693672699495,0.5115899592241716,1.384327652419238,0.2589522575678894,-0.16851260043009503,5.0
0.4498421764257438,-0.16119360574446565,0.5194141683326527,1.2488190247062303,0.4050028223977795,-0.060079011353565165,5.0
0.4292204830048227,-0.16810338320880291,0.5820082520819032,1.0773799265108597,0.4284333889977927,0.03530993202618226,5.0
0.3639176917745437,-0.19919738179832047,0.6993722104719238,0.9449510562725617,0.31987174215901115,0.061399218447795646,5.0
0.322674064280903,-0.23720115785217533,0.691547932883209,0.8623112646495859,0.15898182546811038,0.08096617953504204,5.0
0.29517815218394283,-0.24411093909628812,0.6837236552944945,0.7765917155519007,0.06291648859549241,0.10950133795704305,5.0
0.3089261082324228,-0.26484027148929984,0.7150206971691195,0.745794291056422,0.11680679987254296,0.10460959395626783,5.0
0.322674064280903,-0.3166636071965486,0.6524266134198691,0.7268025367688336,0.054325281000919344,0.05487689559940441,5.0
0.3501697357260629,-0.3581222748174038,0.6524266134198691,0.7052443346136115,0.03558082468452621,-0.051110818990762086,5.0
0.3948505928836235,-0.3512124973530665,0.6524266134198691,0.6677741356455105,0.0504201857737583,-0.09513649013798163,5.0
0.41890951596846404,-0.30975382925973943,0.6211295715452434,0.6184982664695193,0.06682158382265344,-0.05192610965755795,5.0
0.4601531434621036,-0.295934273386121,0.5741840429734222,0.5933470473163842,0.12383597556809059,0.0703674058386472,5.0
0.44640518741362445,-0.2717500508435248,0.5820082520819032,0.5897539802345991,0.11680679987254296,0.1584187381891833,5.0
0.4292204830048227,-0.2717500508435248,0.5976568072593331,0.5425312493191661,0.14570450312464872,0.18776919224993172,5.0
0.41890951596846404,-0.2752049395756935,0.6837236552944945,0.45835162904270776,0.18475545063330612,0.17472454158119774,5.0
0.4257834939927033,-0.23720115785217533,0.6837236552944945,0.3982966337471694,0.19334665584640262,0.13803649140709257,5.0
0.40859854893210207,-0.1715582643814204,0.7697905718098894,0.3556935390438007,0.10899660941822088,0.08178147020183792,5.0
0.33298479066546277,-0.13355449588711668,0.7776148493986041,0.31206385016821675,0.05198222362647506,0.06058392778099978,5.0
0.31236309724454325,-0.12318982213105971,0.738493529935264,0.25354873361003316,0.04026693854036107,0.05243102608499257,5.0
0.33985876868970316,-0.1266447184227794,0.738493529935264,0.14832418322252422,0.10040539944217126,0.05732276511381628,5.0
0.3536067247381831,-0.1542838282801284,0.7150206971691195,0.09391539326932918,0.13711329791155225,0.05324631675178843,5.0
0.3639176917745437,-0.1715582643814204,0.7306692523465492,0.024107881677668877,0.13008412221600457,0.024711160815763186,5.0
0.3501697357260629,-0.19919738179832047,0.6993722104719238,-0.05853188490337079,0.060573432411786386,0.00269832772812917,5.0
0.3673546807866636,-0.23720115785217533,0.691547932883209,-0.20327980069171706,-0.012842355001069373,-0.02502153754110021,5.0
0.3948505928836235,-0.2821147170400307,0.691547932883209,-0.2854062701866492,-0.08157202528356003,-0.0062698633916860366,5.0
0.3982875818957434,-0.2821147170400307,0.6993722104719238,-0.2936189233966265,-0.1838855159485216,-0.016053345178297127,5.0
0.4051615599199827,-0.295934273386121,0.6133053624367624,-0.27308731541361947,-0.1354623437050402,-0.007900443482289906,5.0
0.3948505928836235,-0.26484027148929984,0.5898325296706184,-0.22740445071457305,-0.07063776150528096,0.026341740906367053,5.0
0.38797661485938423,-0.2613853827571312,0.5898325296706184,-0.1745355394987329,0.01996044466893574,0.068736829477007,5.0
0.3639176917745437,-0.24411093909628812,0.6602508910085836,-0.13706532800966384,0.05666833718462535,0.05406160493260855,5.0
0.3742286588109029,-0.2475658278284567,0.7071964880606385,-0.10164828608357314,0.012931273736341172,0.04020167354098174,5.0
0.3845396258472643,-0.22683649165566944,0.7071964880606385,-0.10113499525794957,0.0387049006876443,0.007590068621434709,5.0
0.3948505928836235,-0.2095620479948263,0.7228449747578347,-0.1473311445221354,0.06135445193351392,0.014927679728332791,5.0
0.38797661485938423,-0.22338160292350082,0.6680751685972983,-0.22689116614943355,0.08009890616611508,0.07525914983942246,5.0
0.33985876868970316,-0.26829516022146843,0.7150206971691195,-0.2612816201637931,-0.00034604979785872485,0.10053314062228845,5.0
0.3845396258472643,-0.3062989402913348,0.6054810848480477,-0.27822021114888706,-0.051112282987999184,0.0883037905642534,5.0
0.39141360387150415,-0.2855696057721993,0.6837236552944945,-0.31209739311907514,-0.10656463092702827,0.019004130498649654,5.0
0.412035537944222,-0.2821147170400307,0.5976568072593331,-0.32852267449709344,-0.040959038731447656,0.030418191754370664,5.0
0.4051615599199827,-0.27865982830786207,0.6524266134198691,-0.33981506013984414,-0.010499296435886821,0.049169865903784846,5.0
0.3845396258472643,-0.28902449544931186,0.6133053624367624,-0.3567536511249382,0.031675729680628595,0.04509341505578122,5.0
0.3673546807866636,-0.3062989402913348,0.6367781267226733,-0.31055751438172047,0.023084520374369265,0.0736285685058307,5.0
0.3673546807866636,-0.3062989402913348,0.6367781267226733,-0.28848602766135867,0.04339101484116373,0.049169865903784846,5.0
0.38797661485938423,-0.3270282743379983,0.6133053624367624,-0.23356392810108803,0.025427577748813546,0.032864062511770396,5.0
0.38797661485938423,-0.3201184968736611,0.6054810848480477,-0.17607540571511957,-0.013623374522796883,0.019004130498649654,5.0
0.38797661485938423,-0.3201184968736611,0.6054810848480477,-0.10524132186293816,-0.02455763830107596,0.03612522269297813,5.0
0.3845396258472643,-0.3201184968736611,0.5585354877959929,-0.11807357998255956,-0.027681716387986024,0.10787075662345133,5.0
0.38797661485938423,-0.31320871846438,0.6289538491339581,-0.10524132186293816,-0.049550243944544166,0.11520836268071113,5.0
0.38797661485938423,-0.31320871846438,0.6289538491339581,-0.08060337475397454,-0.02924375066848797,0.12091539734828227,5.0
0.4017245709078628,-0.31320871846438,0.6367781267226733,-0.0749571819325992,-0.036272921601082544,0.11439307201391528,5.0
0.3982875818957434,-0.3062989402913348,0.5976568072593331,-0.0790635022771038,-0.040959038731447656,0.09156495323143692,5.0
0.3982875818957434,-0.3062989402913348,0.5976568072593331,-0.09343563913407994,-0.04252107777490269,0.0989025592886967,5.0
0.3845396258472643,-0.2821147170400307,0.5037656816354571,-0.08881602170346772,-0.04252107777490269,0.16331048218995853,5.0
0.3811026368351416,-0.295934273386121,0.5428870010987973,-0.10062170443232597,-0.037053941122810054,0.17553983224799358,5.0
0.3948505928836235,-0.3166636071965486,0.5898325296706184,-0.07341730945572847,-0.03549190207935505,0.12662242207195032,5.0
0.4051615599199827,-0.3270282743379983,0.5898325296706184,-0.05339897977737703,-0.015185408803298838,0.07199798717223894,5.0
0.4257834939927033,-0.3166636071965486,0.535062723510082,-0.03338065166414658,-0.008156237870704276,0.058953346447408024,5.0
0.40859854893210207,-0.3166636071965486,0.5741840429734222,-0.03646039505276704,-0.012061335479341866,0.08096617953504204,5.0
0.412035537944222,-0.2855696057721993,0.5585354877959929,-0.03338065166414658,-0.025338657822803468,0.09645669226026059,5.0
0.3948505928836235,-0.295934273386121,0.5585354877959929,-0.0246547138890298,0.005902101613008323,0.11520836268071113,5.0
0.38797661485938423,-0.295934273386121,0.5585354877959929,-0.013362323159635887,-0.013623374522796883,0.10624017528985957,5.0
0.3742286588109029,-0.2993891623545256,0.6211295715452434,0.011788911253429075,-0.04408311205540465,0.07525914983942246,5.0
0.3948505928836235,-0.3062989402913348,0.5898325296706184,-0.020548390023002943,-0.03392986779885309,0.068736829477007,5.0
0.3948505928836235,-0.3166636071965486,0.535062723510082,-0.027221166452026678,-0.0019080864598372022,0.04753928457019309,5.0
0.4051615599199827,-0.30975382925973943,0.535062723510082,-0.014388904028322536,-0.008156237870704276,0.09156495323143692,5.0
0.412035537944222,-0.295934273386121,0.5507112102072783,-0.02414142306340622,0.011369235883624406,0.04427812438898535,5.0
0.41890951596846404,-0.30975382925973943,0.5194141683326527,-0.012335742290949235,-0.00034604979785872485,0.04835457523698895,5.0
0.3982875818957434,-0.3270282743379983,0.5194141683326527,-0.008229418424922382,0.016055349441774697,0.038571092207389995,5.0
0.3982875818957434,-0.33048316307016695,0.5272384459213674,0.005629424476188161,0.031675729680628595,0.023080580725159318,5.0
0.3948505928836235,-0.3270282743379983,0.5037656816354571,0.016921816379422833,0.04260999531943621,0.00025245697072942547,5.0
0.3982875818957434,-0.30975382925973943,0.5507112102072783,0.023594590852045304,0.012931273736341172,0.013297099482355438,5.0
0.3845396258472643,-0.28902449544931186,0.48029291734954616,0.026674335805786764,0.011369235883624406,0.027157031573162925,5.0
0.38797661485938423,-0.295934273386121,0.5194141683326527,0.025134463328916033,0.00980719684016937,0.029602902330562668,5.0
0.39141360387150415,-0.30975382925973943,0.5428870010987973,0.0277009143267919,0.030113691604648402,0.03530993202618226,5.0
0.3948505928836235,-0.30975382925973943,0.5585354877959929,0.021541430679793007,0.0215224825216525,0.06221450911459151,5.0
0.3948505928836235,-0.30975382925973943,0.5507112102072783,0.02564775415453961,-0.011280315957614329,0.03775580402656988,5.0
0.4017245709078628,-0.29247938418148045,0.5037656816354571,0.020514849028545844,0.030113691604648402,0.050800444751400824,5.0
0.3948505928836235,-0.29247938418148045,0.48811712645802724,0.026674335805786764,0.00980719684016937,0.045908703236601345,5.0
0.38797661485938423,-0.30975382925973943,0.5194141683326527,0.02256800920079815,0.01527433111078545,0.050800444751400824,5.0
0.39141360387150415,-0.3166636071965486,0.5428870010987973,0.029240786803662634,0.02386553989609678,0.01085122911338941,5.0
0.3982875818957434,-0.31320871846438,0.535062723510082,0.03694014292753226,0.018398406816218977,0.031233482421166532,5.0
0.38797661485938423,-0.3062989402913348,0.5585354877959929,0.027187623501168334,0.018398406816218977,0.04835457523698895,5.0
0.3948505928836235,-0.30975382925973943,0.6133053624367624,0.015381943902552089,-0.0019080864598372022,0.050800444751400824,5.0
0.37766564782302225,-0.31320871846438,0.6133053624367624,0.045152789877025465,0.00512108447275735,0.05243102608499257,5.0
0.3982875818957434,-0.3062989402913348,0.535062723510082,0.029754077629286203,0.030894710679849068,0.05406160493260855,5.0
0.40859854893210207,-0.31320871846438,0.535062723510082,0.03129395010615695,0.04260999531943621,0.041832254874573496,5.0
0.3948505928836235,-0.32357338560582977,0.5507112102072783,0.037453433753155824,0.04182897698844697,0.030418191754370664,5.0
0.3948505928836235,-0.3166636071965486,0.5037656816354571,0.045666080702649055,0.01996044466893574,0.024711160815763186,5.0
0.3845396258472643,-0.3062989402913348,0.48029291734954616,0.04309963283501519,0.010588216361896888,0.05324631675178843,5.0
0.39141360387150415,-0.3062989402913348,0.5507112102072783,0.03694014292753226,-0.00034604979785872485,0.049169865903784846,5.0
0.3982875818957434,-0.31320871846438,0.5272384459213674,0.02205472150541658,0.018398406816218977,0.046723993903397196,5.0
0.3845396258472643,-0.30975382925973943,0.5585354877959929,0.0359135612762851,-0.02846273114676047,0.030418191754370664,5.0
0.3811026368351416,-0.30975382925973943,0.5820082520819032,0.04771924400514335,-0.08860120097910769,0.024711160815763186,5.0
0.38797661485938423,-0.295934273386121,0.5037656816354571,0.0040895535644384345,-0.05579840011836431,0.049169865903784846,5.0
0.3948505928836235,-0.295934273386121,0.5428870010987973,-0.014902194658305988,-0.03236782875539805,0.04346283372218946,5.0
0.4017245709078628,-0.295934273386121,0.5115899592241716,-0.014902194658305988,0.016055349441774697,0.046723993903397196,5.0
0.4017245709078628,-0.2993891623545256,0.44117159788620597,-0.01182245185660591,0.025427577748813546,0.04509341505578122,5.0
0.38797661485938423,-0.31320871846438,0.48811712645802724,-0.020035099393019493,0.03479980575816783,0.033679353178566275,5.0
0.3742286588109029,-0.3270282743379983,0.49594140404674175,-0.017981937508916097,0.049639166252030784,0.041832254874573496,5.0
0.38797661485938423,-0.32357338560582977,0.5194141683326527,-0.019008518524332843,0.051201205295485816,0.00269832772812917,5.0
0.38797661485938423,-0.3201184968736611,0.535062723510082,-0.008742708467985453,0.05666833718462535,0.008405358666736643,5.0
0.38797661485938423,-0.3166636071965486,0.48029291734954616,-0.02311484219471957,0.04104795746671945,-0.016868635845092992,5.0
