acc_x,acc_y,acc_z,gyro_x,gyro_y,gyro_z,activity
-1.4502285885563087,0.38104315915257986,3.7611099579196585,-0.023459228111401716,0.08010428527149066,-0.03726893794828879,0.0
-1.4593096540967039,0.3911824901618855,3.7264258186451706,-0.041476604183616025,0.08940186081675701,-0.028945635391130434,0.0
-1.422985550895099,0.3945622671649874,3.709083749007926,0.013635355522008886,0.012286671782304541,-0.03976592770026261,0.0
-1.4048234198143081,0.37428360514637615,3.7611099579196585,0.11538050506539611,0.005176760973121319,-0.03976592770026261,0.0
-1.4366069902457153,0.37766338214947803,3.7611099579196585,0.13339787467426759,0.04236706648949142,-0.03310728666970963,0.0
-1.4411475230159132,0.40132182117119103,3.709083749007926,0.0809355348949082,0.0669782935196872,-0.07888544819614635,0.0
-1.4093639525845059,0.3945622671649874,3.7668906477987396,0.04861025113200204,0.12987366260342562,-0.09220273533312079,0.0
-1.4093639525845059,0.3945622671649874,3.7668906477987396,0.07086700405896912,0.08119811847335841,-0.0813824354101859,0.0
-1.418445018124901,0.40132182117119103,3.795793692440619,0.09524344339351792,-0.09217433062231781,-0.012299031545780858,0.0
-1.418445018124901,0.40132182117119103,3.795793692440619,0.10425212819795367,-0.0888928310167146,-0.01562835333002447,0.0
-1.418445018124901,0.38442293615568174,3.830477831715107,0.14929555868347516,-0.054437108505013834,-0.011466702051445293,0.0
-1.4048234198143081,0.3945622671649874,3.853600591231432,0.16943262035535336,-0.04021728688664738,-0.008137380267201677,0.0
-1.4820123179476927,0.4114611521804966,3.836258521594188,0.15883416004031975,-0.08943974761764846,0.0709339876809671,0.0
-1.4502285885563087,0.4114611521804966,3.755329268040577,0.04490079284945277,-0.2048390703673816,0.06760466970362485,0.0
-1.3821207559633193,0.3945622671649874,3.7322065085242517,-0.07221211970718501,-0.3360989612029782,0.06843700046692752,0.0
-1.3866612887335172,0.37766338214947803,3.7842327174359833,-0.03935691212060931,-0.24038862941625483,0.04596408254742626,0.0
-1.3730396904229243,0.35062516242706265,3.807355072198781,-0.012860777491382348,-0.14631904076172372,-0.04559223796751292,0.0
-1.3730396904229243,0.35062516242706265,3.807355072198781,0.019464505463605966,-0.17202410099378726,-0.023951655887182833,0.0
-1.504714981798681,0.37766338214947803,3.68018029961252,0.06715754456454304,-0.3426619604141846,0.01766485562964183,0.0
-1.4275260836652968,0.35062516242706265,3.6570575400961944,0.12173958125441631,-0.5291603812498359,0.1167121542832723,0.0
-1.3775802231931218,0.3033082816104362,3.668618919854357,0.14717586662046844,-0.2983617490915884,0.06594000817701946,0.0
-1.4683907196370993,0.3100678365410401,3.5992506413053813,-0.22218022328808248,0.4377875021403016,-0.12133429174524078,0.0
-1.5773632676818792,0.3911824901618855,3.315997646737452,-0.8167534462342124,1.1241673626990376,-0.04808923025742096,0.0
-1.3185534561405285,0.32696672340534966,3.3795850330305823,-0.9730806130774444,1.090805456712681,-0.330249171209897,0.0
-1.241364558007144,0.18501607818227003,3.506760007993608,-0.9937475913017315,1.149872476295977,-0.18958536357737601,0.0
-1.241364558007144,0.18501607818227003,3.506760007993608,-0.7876076997578987,1.2094862723974078,0.2648669286337803,0.0
-1.9133619773566148,-0.13944252890591038,3.3275590264956145,-1.8771286445422133,-1.3227358955916109,3.2745728977819435,0.0
-1.70449794680745,-0.044808772819058436,2.8651048480529275,-1.1982978107484519,-1.789255375963463,2.794318422970564,0.0
-1.1006083600509684,0.019406982844675867,4.223563933985582,0.550447029537127,-0.3918844144745763,2.1975376006898584,0.0
-1.6091469175932749,0.1545980777591522,4.229344623864663,0.30827234706880846,-0.18077475326751025,3.1463939805368057,0.0
-1.5773632676818792,0.1714969701698626,3.9923367435758568,0.2775368509352679,-0.218511978720119,3.0431850877081144,0.0
-1.5410390850002857,0.16811719316676077,4.188879794711093,1.1481997776510815,-0.21577740238605905,3.0057302135112316,0.0
-1.418445018124901,0.13769920013884407,3.6165927109426255,1.570548104501372,0.11456001111849615,3.472667558537561,0.0
-1.3321750544511215,0.10728119971572621,3.6397154704589507,1.0289671314236675,-0.4307154731290526,3.6000141957780842,0.0
-1.3230939889107258,0.11404075372192998,3.1541387348767023,0.09948282751953137,-0.7364416729446311,3.833066565861148,0.0
-1.4048234198143081,0.05996432167230027,2.7263684933317394,-0.7658808884287938,-0.45477977688770505,4.667893763108205,0.0
-1.7090384795776479,-0.02453009601004514,2.4835801255406156,-1.1463653164247303,-0.021075217527528462,5.677510481559251,0.0
-2.00871300657079,-0.19013920613804144,3.6165927109426255,-0.29901900240199064,0.10745009530635583,6.136956331977269,0.0
-1.3185534561405285,-0.23407628499276215,3.5761282865425836,-0.2910701765557439,0.017208917855404647,5.219728541439301,0.0
-1.2141213613859578,-0.28815271704239187,3.7611099579196585,0.161483781582421,-0.6505758266334984,5.342913453801147,0.0
-1.622768515903868,-0.19689874535384308,4.368080776209088,1.1360115676788214,-2.053962770673516,5.918053696539457,0.0
-1.83617307922323,-0.1090245284827925,4.437449054758062,1.9388444776452765,-2.2721824210694272,6.07952576310281,0.0
-1.8225515603926254,-0.044808772819058436,4.1426346804319705,1.5467015752558892,-1.652526345800966,6.135291771968034,0.0
-1.4002828870441102,-0.19013920613804144,3.4200498621841517,0.6543118630643424,-1.1138139007882804,6.11281891242102,0.0
-1.0960678272807707,-0.32533028626211563,2.9864989307601078,0.6304653338188596,-0.3705546870499837,6.421613635758054,0.0
-1.3003913250597374,-0.31519093306720686,3.836258521594188,2.146044150587185,-0.6899537685358614,5.966328535651957,0.0
-1.3866612887335172,-0.31181114866890397,4.177318414952931,2.197976541497421,-1.4233684967985674,5.87726937746852,0.0
-1.3730396904229243,-0.35236850228693056,3.443172621700477,0.9309314575330634,-0.8414495535941826,6.105327742668293,0.0
-0.7963933002876287,-0.7004855853728293,3.171480602137182,-1.0101752371067478,1.2548803569455287,4.167663268763666,0.0
-0.7963933002876287,-0.7004855853728293,3.171480602137182,-0.7012302934337743,0.3311388383349007,3.6990613637281013,0.0
-1.3185534561405285,-0.9303103920029511,4.223563933985582,-0.18137618339191727,1.4271589328156804,3.515116437617736,0.0
-0.9734737604053858,-0.798499155438789,3.720645128766089,0.3951796699453414,1.5611534400089937,5.413661477316245,0.0
-1.3321750544511215,0.04644521365989293,4.165757439948295,2.629333630712261,-0.008496144878137444,5.911394806791347,0.0
-1.4593096540967039,-0.08536609685628072,3.7900130025615373,2.2281821727852953,0.12987366260342562,5.675845921550016,0.0
-1.6454711002748683,-0.1090245284827925,3.709083749007926,2.2382507165479195,-1.9391104579132494,5.345410618670586,0.0
-1.83617307922323,0.04644521365989293,3.4200498621841517,2.660069152699173,-4.628297616993585,5.298800014711741,0.0
-2.040496656482185,0.01602722802717734,3.865161970989595,2.592768897381996,-5.5006289084103335,4.568846595158188,0.0
-1.7862273777110318,0.08700253769711515,3.5876896663007463,1.8275606055573657,-3.934260937362993,4.570511155167424,0.0
-1.4910933834880877,-0.15972120571492376,3.483637248477282,0.9468292126390422,-3.512041454854235,5.59677412342199,0.0
-1.26860775462833,-0.3489887178886277,3.3275590264956145,0.32787949218827767,-1.5841617773548413,6.249321279423504,0.0
-1.472931252407297,-0.21717742216285638,3.454733799081876,0.7963311537256789,-1.1931166678408927,6.607223121877653,0.0
-1.7862273777110318,-0.2070380689679474,3.096331836085889,0.570584065355634,-1.311250600277733,6.0736991533593185,0.0
-1.6000659315328678,-0.4875595824110047,2.8940080950715705,0.5382587678581241,-2.739248891418917,6.405799016247981,0.0
-1.200499922035341,-0.4064449343365603,2.9633763736205463,0.505403579661577,-2.607989013924539,5.151477682793643,0.0
-0.8372579362594316,-0.34560893349032457,3.2755328175838825,0.2785966840400856,-1.519625711833177,2.9824250739596003,0.0
-0.31963831317672947,-0.8086383903104798,3.6397154704589507,1.0591727627115417,0.22011484172202916,1.7871988693889553,0.0
-0.38774614576971844,-0.9167912544097392,3.6165927109426255,3.5810746172545107,2.5543534002912707,3.9753948928959573,0.0
-0.6465560367910577,-0.8120181747087829,3.8246971418360256,5.161304235844825,1.4331750754614383,5.008316750898631,0.0
-1.0461221257685724,-0.3726471495151395,3.9345302495385712,5.223305170517686,0.8950094603317634,3.8605334302914507,0.0
-0.9462305637841997,-0.44362250355628374,3.755329268040577,4.4989007376156245,-0.5439271361456598,1.872928907553921,0.0
-0.6737992334122438,-0.8120181747087829,3.9345302495385712,2.3007815419198185,-1.802381321021,1.142142964354065,0.0
-1.0915272945105732,-1.0046655304423988,3.946091629296733,-0.34088290125634507,-3.1811572381491064,2.9200001753462668,0.0
-1.6454711002748683,-0.8356766654969037,3.818916451956944,-2.8521864764578795,-3.620878051887749,4.26421359669983,0.0
-1.7181194656380545,-0.6937260165762236,3.6743996097334386,-4.988304530653853,-1.2122587555441875,4.647085463570427,0.0
-1.0597437240791658,-1.0249441185089985,3.5934703561798274,-5.230479471655885,-1.6929981609288531,3.891329739595809,0.0
-0.5012593060646845,-1.1668948265912875,4.304493592292717,-2.9088880904864247,-2.005834269885963,2.651157653503345,0.0
-0.1470983858291702,-1.2311106118358266,3.818916451956944,-1.9809936331896567,-1.8641829703032329,2.012760394574876,0.0
-0.4195298751611025,-1.2311106118358266,3.385365722909664,-1.5756027394299352,-0.6172139206471418,2.0627001185521934,0.0
-0.846339001799827,-1.2311106118358266,2.5356061320755834,-1.2300931141334388,-0.8616854611581265,2.90834760557045,0.0
-0.3468815097979156,-1.0722611000852402,1.917073731651228,-1.6805274060619684,-3.7871403783823925,3.0964542565594884,0.0
-0.16071998413976327,-1.2615285530973352,1.8130215162045282,-3.0562065983785924,-6.5304723943555425,3.4676735536542718,0.0
-0.3695841736489041,-1.27842747508885,2.6396583475222832,-3.8887151455203988,-5.188339789430863,4.512247981432763,0.0
-0.7192044021542445,-1.0452228248988162,2.882446715313408,-2.766339012539536,-2.795034398055391,3.891329739595809,0.0
-1.0733651634297823,-0.6937260165762236,1.8130215162045282,-2.5978234288970725,-3.237489628033466,2.3748239619076976,0.0
-1.4683907196370993,-0.7410429389908562,0.7840608426840726,-5.148871340156813,-4.207719211147492,0.6477388361113277,0.0
-0.9416900310140022,-1.3899601235864125,1.1655855651963847,-6.242101623247875,-4.588372578383832,1.7389237054208737,0.0
-0.4013677440803115,-1.3832005547898065,2.0731519536328964,-4.643854893582403,-3.8598801195413595,2.379817966790988,0.0
0.016360475977993887,-1.2919466126820622,1.9748804280652774,-1.8527522245976942,-2.6812758517908986,2.7169116721351503,0.0
0.18890008540560083,-1.342643260333389,1.1540241854382225,-2.085918196408205,-4.5271182392684945,1.6989718287823448,0.0
-0.024504318953785305,-1.5082523408805808,1.4719614204690217,-1.5242002392187364,-5.453047077411164,1.1363166794661572,0.0
-0.41498934239090457,-1.7752548350536441,1.206050293161572,-1.0848942724509065,-4.5703245773655645,3.0773108418865296,0.0
-0.042666450034575934,-1.7110389314858876,0.7031313361595072,-1.4160960215655076,-5.208028867111796,4.801898965241253,0.0
-0.07445017942596,-1.5724681261251194,0.4256588037967995,-1.4118565857327514,-5.329444205765707,4.402380523711549,0.0
-1.309472390600133,-1.3663016327982918,0.8823323682516913,-1.0419705404917345,-4.446174395553216,2.127621857179381,0.0
-1.5137958883790998,-1.4136184960513154,1.2118309830406535,-0.07539165780169509,-1.7121402486321484,0.9765092541259375,0.0
-1.445688055786111,-1.4203780648479214,0.8823323682516913,0.35437563004917605,0.5039643508178147,-0.534170076246474,0.0
-1.0824462289701777,-1.6907603434192877,0.3909747404135979,-0.23860784323972742,0.4886507126741043,-2.1871778960814856,0.0
-0.9870951997560026,-1.8631289927630859,0.5239303546615135,-0.5798780327034677,-1.799099808074178,-1.9374787889115241,0.0
-0.8781227311912108,-1.9172053064894974,0.5528337028685384,-1.9968911814686663,-1.488451445568118,-1.4305897296744574,0.0
-0.7827717019770356,-1.8935468157013766,-0.2506804701212733,-1.4977040496510954,0.15010957016736937,0.048461072299400075,0.0
-0.4013677440803115,-1.7651154818587353,-0.42988145161926666,-1.0785352738220004,0.6472564068739566,-0.11134632258560857,0.0
-0.03812591726437837,-2.109852780546331,-0.742038047365176,-0.6365797501454977,-0.16327343537884528,-0.3585483968587143,0.0
-0.5330430354560682,-2.559362922288447,-1.6553851256807686,-3.150532933962447,-3.8128455987090826,3.117262556097265,0.0
-0.27877367720492696,-1.991560563252163,-0.2969258879655419,-1.5040631516934868,-0.025997465268280937,3.8172522712066583,0.0
-1.2232024269263533,-1.6028860673866283,-1.071536662154138,-0.4103027710764154,1.6420970702647688,4.119388104795583,0.0
-1.5682822021414842,-1.085780119355234,-1.6496044358016873,-0.11725554372936371,-0.8791867923880105,2.3898059765575677,0.0
-2.058658708082988,-0.9370699607995571,-1.158246807963594,-0.06108374283974255,-2.6774474555961882,-0.6074151428101624,0.0
-2.4173600816087117,-0.9370699607995571,-0.21599640673807172,0.2775368509352679,-0.4990799882103013,-1.7859947321147531,0.0
-2.3265496249047284,-0.8289170967002975,-0.34895199568889196,0.37504260827346314,0.10416860237136207,-4.1015372304344835,0.0
-1.9996319410303944,-0.974247470857672,0.2291157779586576,1.3686476487902952,1.1471378465970414,-6.089974358032213,0.0
-0.9235278999332112,-1.5150119096771866,0.26379984134185913,1.813782620074509,1.8871154940236399,-5.8702387928786175,0.0
-0.056288048345169005,-2.285601095965215,0.6222018802291321,0.8323658929434218,2.2251098333298027,-3.398218395306617,0.0
-0.2469899478135429,-1.8327109331783589,0.04991477037303446,0.3453669452447403,2.2852706194088706,-2.5126190316498325,0.0
-0.5148809043752776,-1.663722068232864,-0.5917404646683979,-1.1718016211808109,0.1440934808864873,-4.2363747125721485,0.0
-0.5148809043752776,-1.663722068232864,-0.5917404646683979,-1.1808102801318752,0.12112299698848367,-3.639594215147028,0.0
-0.20612531184174004,-1.288566828283759,-1.077317352033219,-0.2868307924297306,1.0563497842305514,-4.471091967520032,0.0
-0.006342187872994312,-1.5014927720839748,-1.0021685859819258,0.3474866373077471,0.29887077889163083,-5.296763435005127,0.0
-0.006342187872994312,-1.5014927720839748,-1.0021685859819258,0.16996253690776222,1.0153310858547773,-5.831119683528081,0.0
-0.019963786183587375,-1.3865803391881095,-0.6784506104778542,-0.4150720976082089,2.204326989153095,-7.178662224900113,0.0
0.052684420219622476,-1.7008995782909786,-0.32004859688767623,-1.4696181879863417,2.9087550908720408,-5.18273425240524,0.0
0.052684420219622476,-1.7008995782909786,-0.32004859688767623,-1.2889144977851041,2.7906210517054477,-1.982424670433343,0.0
0.7655467934608494,-1.5657085573285134,-0.04835675440404999,0.12173958125441631,-0.21687123558792684,-1.935814066474497,0.0
0.2070622164863911,-1.160135257794682,0.0036693469950261513,-0.11460592218726247,-0.5860397077469585,-1.6603128173112587,0.0
0.2070622164863911,-1.160135257794682,0.0036693469950261513,-0.4723037057492765,-0.6073694351715511,-2.095621573028612,0.0
-0.44677307178228864,-0.9167912544097392,-0.38941672365407937,-0.7791289315058717,-1.0126343096036856,-2.8488804569893773,0.0
-0.4240704079313001,-0.8356766654969037,-0.22755776119913887,-0.836890533759462,0.24910141490091495,-3.400715235320472,0.0
-0.5875292697384642,-0.7680810958540621,-0.2506804701212733,-1.1098006865079497,0.8589130313762227,-4.7682337962256645,0.0
-0.12439572197818165,-0.933690176401254,-0.3547326602708777,-0.5184069887296441,0.025959578467389492,-4.357062784920143,0.0
0.8563571309448518,-1.0519823936954225,-0.33160995134874344,-0.4723037057492765,0.08830802761488926,-3.757785122625586,0.0
0.8563571309448518,-1.0519823936954225,-0.33160995134874344,-0.20522271263740005,-1.1061570016691114,-2.927951605406233,0.0
0.12987347731298293,-0.6464090941615909,-0.6206438128754228,-0.0769814203856073,-1.2292132035261851,-2.547576903405071,0.0
0.043603354679226984,-0.47404050397940173,-0.5801790849102355,-0.38645624183093247,-0.196635328023983,-3.111064251511982,0.0
0.09808974792159923,-0.46728093518279584,-0.6900119902360166,-0.01710015838572437,0.31691902005183914,-1.8817126176185073,0.0
0.22976488033738002,-0.6531686629581966,-0.32004859688767623,-0.07857118296951951,0.4230207739269154,-2.2021597483035644,0.0
-0.05174751557497143,-0.7579417426591532,-0.48190755934261675,-0.21953061467266685,0.365047654251582,-1.472206166322222,0.0
-0.019963786183587375,-0.26449428541588005,-0.16975098889380302,-0.49826995291113735,-0.4881416828740618,-0.8404675535001744,0.0
1.0243565255222127,-0.35574828668523345,-0.48768824922169807,0.01999442847935764,-1.0465432055676804,0.4130217029842883,0.0
0.49311514516894006,-0.4909393668093078,-0.27958384362539346,0.2838959012709167,-1.4151647144315118,0.43050063886190776,0.0
0.2797107408095543,-0.5652944460871463,-0.30270655254752776,0.729560892521024,-0.9070795457062474,1.1396459619124202,0.0
0.4885746123987432,-0.47066071958109884,-0.9038970604143072,0.7422789931923217,0.1780022968031684,1.9128807841924498,0.0
0.6066284644238822,-0.5247371516307284,-1.1293434597565695,0.6951158771071362,1.1624515381056277,0.9748446129028064,0.0
0.9834917305904338,-0.6126113685017788,-1.2854217829266195,0.38617098514090564,2.892894409385815,-0.1679447840349802,0.0
0.6157095299642781,-0.7004855853728293,-1.071536662154138,0.02476373238945135,3.1926045732853883,-0.5782835559428314,0.0
0.45225066815711396,-0.6193708781367757,-0.19287369781593736,-0.08546017571094852,1.8296893376435073,-0.790527748308961,0.0
-0.019963786183587375,-0.4774202883777049,0.15396696763744713,0.09206390853067925,1.0694757292880883,-0.1138433148755166,0.0
-0.07445017942596,-0.41996407192977225,0.21177374626705683,0.05973862719152664,0.2545705675690346,0.2057714748945007,0.0
0.23884594587777513,-0.5652944460871463,-0.05991810886511713,0.16519323622933993,0.571781982651177,-0.18625604052416533,0.0
0.07084655130041348,-0.3320898550587217,0.0036693469950261513,-0.168128114461468,-0.0046677311730788954,0.47877580282998966,0.0
0.26608914249896093,-0.4774202883777049,0.04991477037303446,-0.047835673909293365,-0.10365957257131964,0.40053673138301105,0.0
0.043603354679226984,-0.39292585590495716,-0.04257607084924254,-0.0674428125654199,-0.26609368964831853,1.292794741146218,0.0
-0.8917443295018042,-0.11916388167770155,0.4661235570590823,0.3305291008036933,-1.410789328259165,3.9371077386944537,0.0
0.2887918063499502,-0.7410429389908562,-0.19865436239792322,0.038541720902001336,-1.4321190556837575,3.2396151884544975,0.0
1.010734927211617,-0.9843868240525807,-0.41253943257621384,0.013635355522008886,-1.0284948843601582,1.2128910690830563,0.0
0.888140860336234,-0.9607284515876778,-0.6437665217975573,-0.027168689221663496,-0.11569172445064586,0.7151575771801602,0.0
0.12079241177258816,-0.8289170967002975,-0.5397143569450478,0.21447604437753207,0.4891976492868666,0.3963750877182348,0.0
0.016360475977993887,-0.7478023894642442,-0.5628370658671823,0.1863901439327215,1.0853363040445612,-0.5316730738048289,0.0
0.08446814961100654,-0.7579417426591532,-0.36629401473194495,0.18268068928580256,0.8463339162016963,-0.5466550072408033,0.0
0.06630601853021555,-0.7478023894642442,0.15396696763744713,-0.00014263480835626218,-0.5833051314128987,-1.5337986225031466,0.0
0.31603500297113596,-0.6937260165762236,-0.25646113470325904,-0.004911938718449978,-0.2983617490915884,-0.8745931452507952,0.0
-0.20158477907154246,-0.7106248794061294,-0.02523403915764176,0.045960638073038275,-0.4542328936398186,-1.0885020194470045,0.0
0.19344061817579766,-0.6599282317548028,-0.37785539449010774,0.057089013728603956,-0.22452805465978204,-0.6440376557885324,0.0
0.034522289138831846,-0.6531686629581966,-0.23333842578112474,0.13922702784753607,0.8085967307727445,0.31230975168682257,0.0
0.3659805455233576,-0.6430293689248967,-0.30270655254752776,0.11538050506539611,0.7407790989393822,-1.2150162142551166,0.0
0.1798190198652046,-0.6497888785598938,-0.17553165347578886,0.06397800808586866,0.6740553403315448,-0.544158045406106,0.0
0.30695393743074045,-0.6430293689248967,-0.12350555840098656,-0.051545128556212294,0.29558929262724654,-0.7564022377722359,0.0
0.9925727961308283,-0.7106248794061294,-0.32582928676675754,0.2065272056045997,0.4870099562006932,-1.049382504026989,0.0
0.7110604002184786,-0.622750662535079,-0.15818963443273584,0.23567295208091368,0.38364280534211465,-1.012759909834723,0.0
0.4340885370763215,-0.5517753676555432,-0.10038284947885223,0.24097218223843042,0.3918465343442943,-0.4243024967044155,0.0
0.3114944702009384,-0.5450157988589374,-0.0021113302355074267,0.16254362761392435,0.060962217580024104,-0.09386739685972616,0.0
0.329656283361776,-0.5686742304854493,-0.11194420393991944,0.14240656594204615,0.054946138305056264,0.001850581595869584,0.0
0.34327788167236906,-0.5585349364521492,-0.11772488117045302,0.04331102481209504,0.23488156993541523,-0.06723282766164573,0.0
0.4113858732253351,-0.6362698001282908,-0.07726014055671791,0.008336130211999207,0.38200204886870354,-0.29112965578988176,0.0
0.31603500297113596,-0.5450157988589374,-0.10616352670938584,0.07033708104321741,0.42794301666471085,-0.5732895916664892,0.0
0.35689947998296245,-0.5112180140375165,0.03835341512143306,0.15830424348791092,0.3989564434858251,-0.3835182994543209,0.0
0.5930068661132909,-0.5416360144606343,-0.05991810886511713,0.23726271466482593,0.3114498407012815,-0.34606342525743705,0.0
0.6247905955046718,-0.5416360144606343,-0.14084759009258735,0.25739977633670397,0.8206288559696326,-0.4243024967044155,0.0
0.801870737702478,-0.5382562300623316,-0.14084759009258735,0.41213720644939517,1.299180568268125,-1.0069336249468155,0.0
0.5339799401007197,-0.4605213663861898,0.16552832209851429,0.4110773474912061,1.1990949570388065,-1.1384418246382175,0.0
-0.12439572197818165,-0.3658876398801425,0.19443171457545608,-0.5247660907720357,0.950248030355475,-0.033939617433012305,0.0
-0.44677307178228864,-0.38278650271004827,0.483465601399231,-0.2084022378052245,-0.5351764705307178,0.17331060558090694,0.0
0.18435955263540324,-0.4875595824110047,0.18287036011438887,-0.2624543466318388,-0.6976106142901546,0.1000655491689556,0.0
0.23884594587777513,-0.4774202883777049,0.17130900565332172,-0.1956840854271841,-0.8884843946157147,-0.13215458151643872,0.0
0.5248988745603252,-0.6362698001282908,-0.013672684696574604,-0.07539165780169509,-0.6090101916449623,-0.4301287815923234,0.0
0.5248988745603252,-0.6362698001282908,-0.013672684696574604,0.016284968984931585,0.8250041887771037,-0.007305050772866113,0.0
0.4885746123987432,-0.5821933680786612,-0.0021113302355074267,0.3400677280139093,1.1427625671544461,0.4013690926015247,0.0
0.016360475977993887,-0.4470022879545869,0.35051001244841057,-0.20469277023161986,-0.2753912651935848,-0.24784847640161603,0.0
0.016360475977993887,-0.4470022879545869,0.35051001244841057,0.18744998996422485,-0.21905890199166236,0.0709339876809671,0.0
0.33419681613197394,-0.5652944460871463,0.15396696763744713,0.09683321244077296,-0.028185128336711687,-0.021454663597274774,0.0
0.7655467934608494,-0.7883598022438799,0.021011381848763836,0.04490079284945277,0.09377719362422797,-0.03726893794828879,0.0
0.7655467934608494,-0.7883598022438799,0.021011381848763836,0.12438918986983187,0.47990004705916234,0.7168222184032916,0.0
0.3932237421445419,-0.5314967204273346,0.1481862904069135,0.10743166629246374,-0.16163269224665316,0.07676029794821741,0.0
0.43862906984652195,-0.47066071958109884,0.11350222386157509,0.03271257197030158,-0.11186331491471824,-0.07805311743284364,0.0
0.22976488033738002,-0.4774202883777049,0.2984839047250606,-0.0059717815182819215,0.0932302770232941,-0.012299031545780858,0.0
0.22976488033738002,-0.4774202883777049,0.2984839047250606,0.012575511106341235,-0.1288177228730588,0.030982138959714925,0.0
0.2842512735797523,-0.436862934759678,0.04413409235196664,0.03695195286464361,-0.28851726361599767,-0.15629215334874258,0.0
0.2842512735797523,-0.436862934759678,0.04413409235196664,0.19698859132106944,0.2983238689613064,0.17830459016072303,0.0
0.3796021438339507,-0.4976989356059138,0.1481862904069135,0.11538050506539611,-0.23163796380131288,0.039305441516873284,0.0
0.1798190198652046,-0.4605213663861898,0.11928290425424559,0.136047489753026,-0.9120018151264807,0.26819625168699107,0.0
0.24792701141817064,-0.5551551520538461,0.11928290425424559,0.0533795558500136,0.13479590534122096,-0.02062233283397209,0.0
0.4340885370763215,-0.5483955832572404,-0.04835675440404999,0.1365774127687777,0.5400608331382313,0.047628741536097405,0.0
0.347818414442567,-0.4774202883777049,0.14240561317637992,0.017874736416350907,0.03306948760892035,0.23157371840514693,0.0
0.4340885370763215,-0.5010787200042167,0.26379984134185913,0.12544903590133522,0.18839370555030246,-0.009802041793807049,0.0
0.6656550725164986,-0.49431915120761066,0.19443171457545608,0.18903975254813704,0.43231834947218173,-0.35938071747028005,0.0
-0.029044851723982874,-0.32533028626211563,0.13084425871531277,0.10319228862979313,-0.2983617490915884,0.44881189535109295,0.0
0.18890008540560083,-0.5078382296392137,0.3042645946041419,-0.007561550565536964,-0.19608841809365862,0.15999332351980097,0.0
0.2933323391201474,-0.5044585044025195,0.04991477037303446,0.09524344339351792,0.3530154756898178,0.2390646851231341,0.0
0.3705210782935563,-0.5179775828341227,0.11928290425424559,-0.14375166866357642,0.21738026538796926,0.06843700046692752,0.0
0.3932237421445419,-0.48417979801270183,0.2291157779586576,0.18109091377520467,-0.08834591441578071,0.013503204351062652,0.0
0.47495333200810397,-0.5314967204273346,0.1770896828838553,-0.05048528898805177,-0.13756837514678177,-0.11217865334891124,0.0
0.22068381479698415,-0.47066071958109884,0.15396696763744713,0.06662762154879137,-0.5466617124797198,0.12170612871135143,0.0
0.33419681613197394,-0.5078382296392137,0.2291157779586576,0.11803012014415451,-0.24312320575031476,0.030982138959714925,0.0
0.4340885370763215,-0.5382562300623316,-0.13506691286205377,0.11220097343422886,0.7801570942066209,-0.003143399494286938,0.0
0.4658722664677095,-0.5078382296392137,-0.01945336192710818,-0.005441858502530253,0.730387676851029,-0.12965758922653067,0.0
0.23884594587777513,-0.4774202883777049,0.13084425871531277,-0.022399382079898354,0.13260823893748547,-0.08887341227991002,0.0
0.24792701141817064,-0.49431915120761066,0.3967554302926793,0.19380906615324503,-0.777460371320405,0.09340690306253409,0.0
0.211602749256589,-0.44362250355628374,0.32160661364719495,0.31092198153759526,-0.9770847638960313,0.4413209286331056,0.0
0.2887918063499502,-0.44362250355628374,-0.0021113302355074267,0.38776076065150344,-0.40829192584381135,0.6560621234408807,0.0
0.3251160685115311,-0.45038201319128074,-0.02523403915764176,0.2775368509352679,0.04236706648949142,0.8000552541266123,0.0
0.543061005641114,-0.5416360144606343,-0.04257607084924254,-0.08916964328455312,-0.09436199702605329,0.21326246191596185,0.0
0.2070622164863911,-0.5145977984358195,0.32738730352627626,-0.05631443569797741,-0.23437254013537281,0.2507173158093717,0.0
0.15711667393416978,-0.5078382296392137,0.24067713241972477,-0.3758578073692703,-0.8934066106710721,0.1167121542832723,0.0
0.21614328202678695,-0.4571415819878868,0.0036693469950261513,-0.547552735205958,-0.7971493422715865,0.24738799275616097,0.0
0.33873734890217183,-0.5078382296392137,-0.04257607084924254,-0.4505768944201716,-0.3240668093236519,0.16249031580970902,0.0
0.5612231367219065,-0.47066071958109884,-0.18131234335487018,-0.3551908291449832,0.22941241726729553,0.22657973382533084,0.0
0.5067367434795328,-0.5652944460871463,0.021011381848763836,0.01681489200068326,0.3475463230216981,0.06843700046692752,0.0
0.4976556779391384,-0.5686742304854493,-0.06569878609565076,0.13339787467426759,0.571781982651177,-0.01812534308199828,0.0
0.4204669387657295,-0.5889529368752673,0.026792059079297423,0.22666426727647793,0.6713207106326089,-0.12466361479845153,0.0
0.347818414442567,-0.5044585044025195,-0.34895199568889196,0.2929045860753524,1.1372934144863265,-0.10635234815752946,0.0
0.2615486097287633,-0.5247371516307284,0.12506358148477917,0.20122797544708287,0.7577334935565037,0.04929340306270275,0.0
0.1117113462321923,-0.5112180140375165,0.03835341512143306,0.05390947805784743,0.41755159457635777,0.11171816970345619,0.0
0.07992761684080861,-0.5112180140375165,0.2059930690365232,0.03801179829020858,-0.041311120088515126,0.21659178496917258,0.0
0.1344140100831816,-0.5483955832572404,0.3042645946041419,0.11485058204964442,-0.6861253723411528,0.11338283123006158,0.0
0.27517020803935677,-0.622750662535079,0.34472932256932926,0.3644441479584295,-1.0667790597667484,-0.23869284815702346,0.0
0.2615486097287633,-0.5720540148837522,0.16552832209851429,0.3941198368405237,-1.1460819335491124,-0.2095612815931665,0.0
0.4023048076849407,-0.5686742304854493,-0.01945336192710818,0.4322742681212733,-0.8649669741049486,-0.06723282766164573,0.0
0.5067367434795328,-0.605851799705173,-0.11194420393991944,0.2934345284811326,-0.10420648917225353,-0.09886137128780528,0.0
0.4976556779391384,-0.5483955832572404,-0.08882149501778507,0.16837277432385,0.46130489596862967,-0.10968167121074018,0.0
0.4431696026167195,-0.5044585044025195,-0.04835675440404999,-0.07062234419658713,0.791642282790747,-0.16877710464654588,0.0
0.27062967526915954,-0.48417979801270183,0.15396696763744713,-0.22324008224627157,0.5958462864098294,-0.579115917161345,0.0
0.1117113462321923,-0.4470022879545869,0.18287036011438887,-0.3000788613601797,-0.05881243797718007,-0.279477025103644,0.0
0.22522434756718243,-0.46390115078449295,0.223335100728124,-0.17395726117139376,-0.2611714469105231,-0.06473583537173767,0.0
0.4567912009273108,-0.5314967204273346,-0.05991810886511713,0.11538050506539611,-0.11241022484504262,0.18163391321393377,0.0
0.3659805455233576,-0.5179775828341227,0.05569544799883517,0.08517491578925024,0.1878467822787591,0.08508360050537575,0.0
0.3024134046605433,-0.5213573672324253,0.1481862904069135,-0.02557892017440845,-0.02380979886454544,-0.024783984112551272,0.0
0.3205755357413339,-0.5179775828341227,0.1019408694005079,0.008336130211999207,-0.02052830259424696,-0.003143399494286938,0.0
0.35235894721276456,-0.5348764456640285,0.1019408694005079,0.04278110220030229,0.11401308784695278,-0.014796022566721787,0.0
0.2933323391201474,-0.5314967204273346,0.14240561317637992,0.039601566226576575,-0.011230726215154432,0.005179902507698303,0.0
0.3205755357413339,-0.5213573672324253,0.11350222386157509,0.05125986459492474,-0.009043061479071317,0.024323497929161938,0.0
0.3205755357413339,-0.5213573672324253,0.11350222386157509,0.06609770014887541,0.018302751057272398,0.018497186392944516,0.0
0.33419681613197394,-0.5314967204273346,0.13084425871531277,0.07245676987455274,-0.013418390951237548,0.0001859213382313367,0.0
0.3251160685115311,-0.5314967204273346,0.12506358148477917,0.07404653892180778,0.0013483473722910434,0.00767689313208701,0.0
0.33873734890217183,-0.5314967204273346,0.15396696763744713,0.08676468160483387,0.01502125311932153,-0.011466702051445293,5.0
0.3251160685115311,-0.5382562300623316,0.11350222386157509,0.08411506975774687,-0.005761563541120453,0.021826506908221008,5.0
0.329656283361776,-0.5213573672324253,0.10772154663104147,0.07775599680039813,0.015568169720255402,0.00767689313208701,5.0
0.33419681613197394,-0.5078382296392137,0.11350222386157509,0.05973862719152664,0.0029890960285816545,0.010173883835786159,5.0
0.3251160685115311,-0.5213573672324253,0.1019408694005079,0.07192685009047246,0.0035360124210589805,-0.023119325123880152,5.0
0.3251160685115311,-0.5078382296392137,0.13662493594584632,0.0533795558500136,-0.005214647357099675,-0.012299031545780858,5.0
0.3251160685115311,-0.5213573672324253,0.12506358148477917,0.05020001937133923,-0.00029240133611370433,0.005179902507698303,5.0
0.3251160685115311,-0.5213573672324253,0.13084425871531277,0.04755040590841653,-0.0013862338604976726,0.003515242091439166,5.0
0.329656283361776,-0.5213573672324253,0.11350222386157509,0.04384094762586726,0.01502125311932153,-0.033939617433012305,5.0
0.329656283361776,-0.5281169360290314,0.11350222386157509,0.052849632834261924,0.01392742075127997,-0.023951655887182833,5.0
0.31603500297113596,-0.5145977984358195,0.13662493594584632,0.062388240654449346,0.005723677157142099,-0.008969711030504361,5.0
0.3251160685115311,-0.5078382296392137,0.12506358148477917,0.052849632834261924,-0.0172468046562961,0.020994176144918327,5.0
0.33419681613197394,-0.5078382296392137,0.10772154663104147,0.04967009716350541,-0.025997465268280937,0.003515242091439166,5.0
0.34327788167236906,-0.5112180140375165,0.08459883612783867,0.04172125687572705,-0.015059139920212981,0.011006213964605282,5.0
0.3251160685115311,-0.5213573672324253,0.1019408694005079,0.04013148888886419,-0.0008393175722486202,-0.02062233283397209,5.0
0.33873734890217183,-0.5247371516307284,0.09037951493944074,0.04225117958850953,0.0035360124210589805,-0.008969711030504361,5.0
0.33419681613197394,-0.5044585044025195,0.04413409235196664,0.03536218502926535,0.005723677157142099,-0.017293012318695594,5.0
0.33419681613197394,-0.4875595824110047,0.1019408694005079,0.0231739633421963,-0.0041208149890581145,-0.0014787392366486889,5.0
0.34327788167236906,-0.4875595824110047,0.11350222386157509,0.005156592117489116,0.008458258077245994,0.00767689313208701,5.0
0.347818414442567,-0.48417979801270183,0.1019408694005079,-0.0239891511271534,-0.00029240133611370433,0.024323497929161938,5.0
0.34327788167236906,-0.5078382296392137,0.14240561317637992,-0.0165702353699727,0.009005174678179866,0.023491167165859254,5.0
0.347818414442567,-0.5112180140375165,0.13662493594584632,-0.027168689221663496,0.0046298447891005385,-0.008137380267201677,5.0
0.34327788167236906,-0.5247371516307284,0.09616019216997432,-0.009151319612792006,0.010099007046221423,0.011838544093424408,5.0
0.33873734890217183,-0.5450157988589374,0.04991477037303446,0.004096749317657185,-0.0024800662285392318,0.0010182514670504595,5.0
0.33419681613197394,-0.5382562300623316,0.06725680325043658,0.021054272895025285,0.012833588383238413,-0.013963691803419102,5.0
0.347818414442567,-0.5213573672324253,0.1019408694005079,0.04225117958850953,0.030881824540489593,0.021826506908221008,5.0
0.3205755357413339,-0.5112180140375165,0.07303748087623728,0.04384094762586726,0.008458258077245994,0.006844563003267885,5.0
0.3205755357413339,-0.5112180140375165,0.07303748087623728,0.06397800808586866,-0.023262883931263956,0.016832524866339144,5.0
0.3251160685115311,-0.5314967204273346,0.09616019216997432,0.05655909071285227,-0.022715967330330076,0.016832524866339144,5.0
0.33419681613197394,-0.5213573672324253,0.11928290425424559,0.06079847322303001,-0.019981385993313092,-0.008137380267201677,5.0
0.347818414442567,-0.5179775828341227,0.009450027387696644,0.06185831763869765,-0.03365429101074567,0.001850581595869584,5.0
0.347818414442567,-0.5010787200042167,0.009450027387696644,0.0533795558500136,-0.035841957414481145,-0.0006464091078295667,5.0
0.33873734890217183,-0.5044585044025195,0.04991477037303446,0.06291816367020102,-0.017793721257229975,-0.030610296917735813,5.0
0.33873734890217183,-0.5044585044025195,0.04991477037303446,0.04755040590841653,-0.015059139920212981,-0.021454663597274774,5.0
0.34327788167236906,-0.4774202883777049,0.1019408694005079,0.020524349879273613,-0.014512223319279108,-0.026448645639156644,5.0
0.33873734890217183,-0.48417979801270183,0.1019408694005079,0.008866053227750881,-0.019981385993313092,-0.014796022566721787,5.0
0.33873734890217183,-0.48417979801270183,0.1019408694005079,0.008866053227750881,-0.023262883931263956,-0.046424568730815595,5.0
0.33419681613197394,-0.5044585044025195,0.08459883612783867,-0.0096812426285437,-0.017793721257229975,-0.018957673845300966,5.0
0.33419681613197394,-0.5010787200042167,0.08459883612783867,-0.011800931459878986,-0.023262883931263956,-0.011466702051445293,5.0
0.33419681613197394,-0.5010787200042167,0.08459883612783867,0.0035668263019054914,-0.024356715465479326,-0.0048080597519251835,5.0
0.31603500297113596,-0.5010787200042167,0.10772154663104147,0.0009172112231470874,-0.009043061479071317,-0.010634371288142605,5.0
0.3251160685115311,-0.5044585044025195,0.09037951493944074,0.0056865151332408026,-0.035295040813547285,-0.002311069365467812,5.0
0.3251160685115311,-0.5078382296392137,0.09616019216997432,-0.0017324006239398987,-0.0369357906163489,-0.009802041793807049,5.0
0.3251160685115311,-0.5145977984358195,0.08459883612783867,-0.001202477608188206,-0.026544380201562443,-0.01562835333002447,5.0
0.3205755357413339,-0.5112180140375165,0.08459883612783867,-0.011800931459878986,-0.025450548667347073,-0.03144262768103851,5.0
0.3251160685115311,-0.5314967204273346,0.06725680325043658,0.0014471342388987802,-0.028185128336711687,-0.028945635391130434,5.0
0.33419681613197394,-0.5247371516307284,0.07303748087623728,-0.004911938718449978,-0.03420120761167953,-0.022286994360577458,5.0
0.33419681613197394,-0.5247371516307284,0.08459883612783867,0.01310543412209291,-0.005214647357099675,-0.023119325123880152,5.0
0.35689947998296245,-0.5145977984358195,0.08459883612783867,-0.0165702353699727,0.02103733239428938,-0.017293012318695594,5.0
0.35235894721276456,-0.5078382296392137,0.07881815889730509,-0.0165702353699727,0.006270593341162877,-0.00647272000956343,5.0
0.34327788167236906,-0.5078382296392137,0.08459883612783867,-0.03988683513636099,-0.009043061479071317,-0.030610296917735813,5.0
0.35235894721276456,-0.5112180140375165,0.11350222386157509,-0.04571598184628665,-0.011777641982262119,-0.023119325123880152,5.0
0.35235894721276456,-0.5213573672324253,0.1019408694005079,-0.047835673909293365,-0.007402312510095883,-0.016460682824360032,5.0
0.34327788167236906,-0.5078382296392137,0.009450027387696644,-0.048365596925045044,-0.009043061479071317,-0.023951655887182833,5.0
0.35235894721276456,-0.5078382296392137,0.04413409235196664,-0.05949397379248752,-0.007949228277203572,-0.021454663597274774,5.0
0.35689947998296245,-0.48417979801270183,0.03835341512143306,-0.05790420474523246,-0.005214647357099675,-0.0048080597519251835,5.0
0.35235894721276456,-0.49431915120761066,0.03835341512143306,-0.07327196573868837,-0.0013862338604976726,-0.04392758151677603,5.0
0.33873734890217183,-0.5078382296392137,0.05569544799883517,-0.08652002174245188,0.007364425709204435,-0.0472568994941183,5.0
0.347818414442567,-0.4976989356059138,0.08459883612783867,-0.07804126641711066,0.01502125311932153,-0.0580771943411847,5.0
0.33873734890217183,-0.5078382296392137,0.09616019216997432,-0.06479319748666147,0.007364425709204435,-0.057244863577882,5.0
0.33873734890217183,-0.4774202883777049,0.09616019216997432,-0.06638296653391651,-0.0013862338604976726,-0.03144262768103851,5.0
0.33419681613197394,-0.49431915120761066,0.09616019216997432,-0.03617737402609921,-0.003026982621016557,0.012670874222243531,5.0
0.34327788167236906,-0.49431915120761066,0.09616019216997432,-0.0367072970418509,0.018849667658206268,0.011838544093424408,5.0
0.33419681613197394,-0.5078382296392137,0.04991477037303446,-0.0367072970418509,0.016662001254470777,0.005179902507698303,5.0
0.33419681613197394,-0.5044585044025195,0.05569544799883517,-0.04041675815211268,0.02103733239428938,0.027652818444438433,5.0
0.33873734890217183,-0.5010787200042167,0.009450027387696644,-0.03564745101034754,0.041820149888557555,0.020161846650582762,5.0
0.3251160685115311,-0.49431915120761066,0.015230704618230265,-0.016040312354221008,0.0631498839837596,0.009341553706967036,5.0
0.3251160685115311,-0.4875595824110047,0.04991477037303446,-0.007561550565536964,0.04947697563102228,0.035143790238294115,5.0
0.3251160685115311,-0.4976989356059138,0.0036693469950261513,-0.01868992743297941,0.028694158136754116,0.03680844922696523,5.0
0.33419681613197394,-0.5044585044025195,0.0036693469950261513,-0.01339070050713403,0.024865745265521745,0.03431145947499141,5.0
0.33419681613197394,-0.49431915120761066,0.0036693469950261513,-0.0017324006239398987,0.01994349919242163,0.06427534665041411,5.0
0.33419681613197394,-0.5112180140375165,0.04991477037303446,0.019464505463605966,-0.011777641982262119,0.055119713329953066,5.0
0.33873734890217183,-0.5010787200042167,0.026792059079297423,0.021054272895025285,0.002442179844560876,0.035143790238294115,5.0
0.347818414442567,-0.48417979801270183,0.026792059079297423,0.03271257197030158,0.02377191373130638,0.027652818444438433,5.0
0.347818414442567,-0.4808000136143987,0.021011381848763836,0.0109857420590862,0.027600326602538725,0.06760466970362485,5.0
0.33419681613197394,-0.4909393668093078,0.021011381848763836,0.008336130211999207,0.005176760973121319,0.06510767741371679,5.0
0.33873734890217183,-0.49431915120761066,0.04991477037303446,0.03112280373096439,-0.006308480142054326,0.06177835436050604,5.0
0.3251160685115311,-0.4976989356059138,0.06725680325043658,0.0231739633421963,-0.018340637858163845,0.08258661329133618,5.0
0.34327788167236906,-0.5078382296392137,0.06725680325043658,0.018934582447854276,-0.022715967330330076,0.07925729023812546,5.0
0.347818414442567,-0.5078382296392137,0.04413409235196664,0.020524349879273613,0.006817509942096749,0.07842495947482275,5.0
0.3251160685115311,-0.5044585044025195,0.05569544799883517,0.027943267252290016,0.005176760973121319,0.0817542825280335,5.0
0.3205755357413339,-0.5044585044025195,0.07881815889730509,0.029533035491627203,-0.013965306718345236,0.07676029794821741,5.0
0.3251160685115311,-0.5179775828341227,0.07303748087623728,0.03059288071521271,-0.04076420348758126,0.06427534665041411,5.0
0.33873734890217183,-0.5247371516307284,0.07303748087623728,0.03165272593879822,-0.04021728688664738,0.08924525432188916,5.0
0.33873734890217183,-0.5247371516307284,0.07303748087623728,0.044370870237660016,-0.007402312510095883,0.05428738256665039,5.0
0.347818414442567,-0.5314967204273346,0.032572736309831006,0.052849632834261924,0.005723677157142099,0.0634430158871114,5.0
0.34327788167236906,-0.5112180140375165,0.032572736309831006,0.052319709818510245,0.016662001254470777,0.04596408254742626,5.0
0.33419681613197394,-0.5247371516307284,0.015230704618230265,0.04808032892416821,-0.0013862338604976726,0.03014980819641224,5.0
0.33419681613197394,-0.5078382296392137,0.009450027387696644,0.04278110220030229,-0.012871475184129863,0.015167864608700898,5.0
0.347818414442567,-0.5179775828341227,0.009450027387696644,0.0560291693129363,-0.003026982621016557,0.02265883640255657,5.0
0.35689947998296245,-0.5145977984358195,0.04991477037303446,0.04967009716350541,0.008458258077245994,-0.002311069365467812,5.0
0.33419681613197394,-0.5145977984358195,0.04413409235196664,0.06662762154879137,-0.009043061479071317,0.011838544093424408,5.0
0.329656283361776,-0.5044585044025195,0.06725680325043658,0.07775599680039813,-0.009043061479071317,0.003515242091439166,5.0
0.3251160685115311,-0.5044585044025195,0.12506358148477917,0.06821738898021072,-0.021075217527528462,0.006012232715827871,5.0
0.329656283361776,-0.5179775828341227,0.03835341512143306,0.06662762154879137,-0.009589977246179,0.005179902507698303,5.0
0.33873734890217183,-0.5078382296392137,0.05569544799883517,0.062388240654449346,0.0013483473722910434,-0.011466702051445293,5.0
0.33873734890217183,-0.5078382296392137,0.04991477037303446,0.05443940026568126,-0.006855395909162012,-0.013963691803419102,5.0
0.33873734890217183,-0.49431915120761066,0.04991477037303446,0.05390947805784743,-0.012871475184129863,0.018497186392944516,5.0
0.3251160685115311,-0.5112180140375165,0.04991477037303446,0.04331102481209504,-0.01943446939237921,0.021826506908221008,5.0
0.3205755357413339,-0.5247371516307284,0.04991477037303446,0.034832262417472594,-0.012871475184129863,-0.011466702051445293,5.0
0.33419681613197394,-0.5145977984358195,0.04991477037303446,0.03695195286464361,-0.009043061479071317,-0.017293012318695594,5.0
0.33419681613197394,-0.5112180140375165,0.04991477037303446,0.019464505463605966,-0.0024800662285392318,-0.046424568730815595,5.0
0.33873734890217183,-0.5179775828341227,0.04991477037303446,0.019464505463605966,-0.022169050729396206,-0.03810126871159149,5.0
0.33419681613197394,-0.5247371516307284,0.04413409235196664,0.018404659432102597,-0.0041208149890581145,-0.08471175846339661,5.0
0.33419681613197394,-0.5078382296392137,0.09037951493944074,0.025823576805119004,0.022131163928504748,-0.09386739685972616,5.0
0.33873734890217183,-0.5112180140375165,0.06725680325043658,0.029533035491627203,0.02103733239428938,-0.08304709693679127,5.0
0.33419681613197394,-0.4976989356059138,0.06725680325043658,0.029003113283793378,0.022131163928504748,-0.1105139918223059,5.0
0.34327788167236906,-0.5010787200042167,0.021011381848763836,0.020524349879273613,0.030881824540489593,-0.12383128403514884,5.0
0.33873734890217183,-0.5010787200042167,0.021011381848763836,0.024233809373699667,0.05822763457535474,-0.12383128403514884,5.0
0.329656283361776,-0.48417979801270183,0.04413409235196664,0.005156592117489116,0.05549305490599012,-0.11301098411221394,5.0
0.33419681613197394,-0.47404050397940173,0.04991477037303446,-0.0027922466554432483,0.039632483484822074,-0.07638845590623829,5.0
0.3251160685115311,-0.4774202883777049,0.03835341512143306,-0.01551038933846934,0.014474336518387658,-0.058909525104487374,5.0
0.3251160685115311,-0.4774202883777049,0.03835341512143306,-0.001202477608188206,0.018302751057272398,-0.023119325123880152,5.0
0.33419681613197394,-0.49431915120761066,0.05569544799883517,0.009395973011831156,0.019396582591487768,-0.023951655887182833,5.0
0.33419681613197394,-0.49431915120761066,0.03835341512143306,0.016284968984931585,0.023224997130372498,-0.011466702051445293,5.0
0.33419681613197394,-0.49431915120761066,0.03835341512143306,0.015755045969179895,-0.0172468046562961,0.025988156917833065,5.0
0.3251160685115311,-0.5179775828341227,0.07303748087623728,0.04543071546124552,-0.029825878139513297,0.0010182514670504595,5.0
0.329656283361776,-0.5112180140375165,0.07881815889730509,0.04861025113200204,-0.011230726215154432,-0.0056403905152278685,5.0
0.33419681613197394,-0.5247371516307284,0.04413409235196664,0.0560291693129363,-0.016699888055362225,-0.007305050772866113,5.0
0.34327788167236906,-0.5247371516307284,0.021011381848763836,0.06874731199596239,0.0008014311361561275,0.0026829118833095974,5.0
0.35689947998296245,-0.5112180140375165,0.026792059079297423,0.0835851467419952,-0.003026982621016557,-0.008137380267201677,5.0
0.3251160685115311,-0.5112180140375165,0.05569544799883517,0.07086700405896912,-0.02490363206641319,-0.023951655887182833,5.0
0.3251160685115311,-0.5145977984358195,0.05569544799883517,0.07669615400056619,-0.0041208149890581145,-0.028945635391130434,5.0
0.33873734890217183,-0.5078382296392137,0.05569544799883517,0.08305522372624352,-0.006855395909162012,-0.014796022566721787,5.0
0.34327788167236906,-0.5179775828341227,0.032572736309831006,0.09153398874659899,0.006817509942096749,-0.01812534308199828,5.0
0.33419681613197394,-0.5044585044025195,0.07303748087623728,0.10849151232396712,-0.00029240133611370433,-0.03560427895961767,5.0
0.329656283361776,-0.5078382296392137,0.04991477037303446,0.098422981488028,0.004082928605079759,-0.028945635391130434,5.0
0.33419681613197394,-0.4976989356059138,0.07303748087623728,0.0788158428319015,0.005176760973121319,-0.023951655887182833,5.0
0.33419681613197394,-0.49431915120761066,0.07303748087623728,0.09524344339351792,-0.009589977246179,-0.023951655887182833,5.0
0.347818414442567,-0.5078382296392137,0.07303748087623728,0.09948282751953137,0.00955209127911374,-0.01562835333002447,5.0
0.33873734890217183,-0.5010787200042167,0.08459883612783867,0.09100406573084732,0.0013483473722910434,0.008509223260906133,5.0
0.34327788167236906,-0.49431915120761066,0.05569544799883517,0.08305522372624352,0.012286671782304541,0.003515242091439166,5.0
0.35235894721276456,-0.4976989356059138,0.08459883612783867,0.09100406573084732,0.02650649506832336,-0.003143399494286938,5.0
0.35235894721276456,-0.49431915120761066,0.07881815889730509,0.0835851467419952,0.02541266186645561,0.006012232715827871,5.0
0.33873734890217183,-0.4774202883777049,0.04413409235196664,0.0788158428319015,0.04291397975512056,0.015167864608700898,5.0
0.35689947998296245,-0.4774202883777049,0.06725680325043658,0.058678782775858994,0.05768071797442087,0.04513175178412359,5.0
0.35689947998296245,-0.47066071958109884,0.08459883612783867,0.06821738898021072,0.0948710268260957,0.02265883640255657,5.0
0.33873734890217183,-0.47066071958109884,0.05569544799883517,0.058678782775858994,0.06369680058469346,0.030982138959714925,5.0
0.3251160685115311,-0.4808000136143987,0.07303748087623728,0.038541720902001336,0.04291397975512056,0.029317477433109557,5.0
0.34327788167236906,-0.4774202883777049,0.07303748087623728,0.04755040590841653,0.05986838437815634,0.07759262871152008,5.0
0.35235894721276456,-0.48417979801270183,0.07303748087623728,0.03324249417813541,0.05986838437815634,0.08008962100142814,5.0
0.33419681613197394,-0.4976989356059138,0.07303748087623728,0.022644040326444622,0.05439922170412238,0.10173021069556094,5.0
0.347818414442567,-0.4976989356059138,0.08459883612783867,0.017874736416350907,0.025959578467389492,0.0817542825280335,5.0
0.347818414442567,-0.5010787200042167,0.08459883612783867,0.034302339401720915,0.007364425709204435,0.10173021069556094,5.0
0.35235894721276456,-0.5078382296392137,0.07303748087623728,0.04278110220030229,0.029241074737687982,0.08341894405463889,5.0
0.347818414442567,-0.5179775828341227,0.08459883612783867,0.04967009716350541,0.03853865028295433,0.11837681580987768,5.0
0.33419681613197394,-0.4976989356059138,0.1019408694005079,0.0560291693129363,0.03197565774235734,0.1167121542832723,5.0
0.3205755357413339,-0.5044585044025195,0.1019408694005079,0.03695195286464361,0.056039971506924,0.11005350817685082,5.0
0.3205755357413339,-0.5044585044025195,0.1019408694005079,0.051789787610676416,0.06369680058469346,0.13002943634437827,5.0
0.3251160685115311,-0.5010787200042167,0.06725680325043658,0.04225117958850953,0.009005174678179866,0.12170612871135143,5.0
0.33419681613197394,-0.5145977984358195,0.07303748087623728,0.04278110220030229,0.006270593341162877,0.1225384594746541,5.0
0.3251160685115311,-0.5281169360290314,0.1019408694005079,0.04755040590841653,0.012833588383238413,0.10505952359703472,5.0
0.3251160685115311,-0.5281169360290314,0.1019408694005079,0.06609770014887541,-0.0347481242126134,0.09673622611574485,5.0
0.33419681613197394,-0.5179775828341227,0.1019408694005079,0.06450793110162036,-0.030372794740447163,0.06261068512380874,5.0
0.3659805455233576,-0.5348764456640285,0.04991477037303446,0.060268550207278344,-0.024356715465479326,0.04596408254742626,5.0
0.3659805455233576,-0.5348764456640285,0.04991477037303446,0.06450793110162036,-0.007949228277203572,0.03014980819641224,5.0
0.35689947998296245,-0.5247371516307284,0.04991477037303446,0.06344808668595271,0.02103733239428938,-0.03144262768103851,5.0
0.37506161106375385,-0.5314967204273346,0.08459883612783867,0.07351661590605611,0.030334907939555726,-0.07222680716559333,5.0
0.347818414442567,-0.5078382296392137,0.08459883612783867,0.05390947805784743,0.028694158136754116,-0.07971777895944901,5.0
0.3251160685115311,-0.47404050397940173,0.1019408694005079,0.020524349879273613,0.027053410001604866,-0.05474787128797394,5.0
0.31603500297113596,-0.47404050397940173,0.1019408694005079,0.0003872882073954126,-0.0041208149890581145,-0.016460682824360032,5.0
0.329656283361776,-0.4808000136143987,0.1019408694005079,0.004096749317657185,-0.028732044937645553,-0.008969711030504361,5.0
0.329656283361776,-0.4976989356059138,0.12506358148477917,0.012045588090589561,-0.024356715465479326,-0.02728097640245932,5.0
0.33419681613197394,-0.5010787200042167,0.11350222386157509,0.034832262417472594,-0.03365429101074567,-0.014796022566721787,5.0
0.347818414442567,-0.5010787200042167,0.13084425871531277,0.04172125687572705,-0.0013862338604976726,-0.011466702051445293,5.0
0.33419681613197394,-0.5112180140375165,0.11350222386157509,0.06132839462294598,0.012286671782304541,-0.029777966154433132,5.0
0.3114944702009384,-0.5010787200042167,0.09616019216997432,0.08835445065208891,0.013380504984172285,-0.03643660718498612,5.0
0.3251160685115311,-0.5112180140375165,0.08459883612783867,0.08464499277349856,0.013380504984172285,-0.008137380267201677,5.0
0.347818414442567,-0.49431915120761066,0.08459883612783867,0.07616623098481451,0.03142874114142347,-0.026448645639156644,5.0
0.347818414442567,-0.48417979801270183,0.08459883612783867,0.05549924629718462,0.0407263166866898,-0.01313136230908354,5.0
0.34327788167236906,-0.5078382296392137,0.1019408694005079,0.04755040590841653,0.01502125311932153,0.003515242091439166,5.0
0.347818414442567,-0.49431915120761066,0.12506358148477917,0.034302339401720915,0.0008014311361561275,-0.01979000460860365,5.0
0.35689947998296245,-0.49431915120761066,0.1019408694005079,0.01681489200068326,0.010645923647155296,-0.02062233283397209,5.0
0.33419681613197394,-0.5010787200042167,0.06725680325043658,0.0321826489545499,0.0008014311361561275,-0.023951655887182833,5.0
0.34327788167236906,-0.5145977984358195,0.07303748087623728,0.030062958507378886,0.013380504984172285,-0.03310728666970963,5.0
0.347818414442567,-0.5010787200042167,0.09616019216997432,0.052319709818510245,0.010645923647155296,-0.06972981487568529,5.0
0.33419681613197394,-0.49431915120761066,0.11928290425424559,0.05390947805784743,0.002442179844560876,-0.016460682824360032,5.0
0.33873734890217183,-0.5010787200042167,0.11350222386157509,0.06132839462294598,-0.021075217527528462,-0.018957673845300966,5.0
0.33873734890217183,-0.5010787200042167,0.1019408694005079,0.07510638495331115,-0.035841957414481145,-0.03976592770026261,5.0
0.347818414442567,-0.5010787200042167,0.09037951493944074,0.07086700405896912,-0.03201354454324878,-0.02062233283397209,5.0
0.35235894721276456,-0.5044585044025195,0.06725680325043658,0.08517491578925024,-0.016699888055362225,-0.05308320976136857,5.0
0.347818414442567,-0.5044585044025195,0.07881815889730509,0.08411506975774687,-0.027638213403430187,-0.0580771943411847,5.0
0.3659805455233576,-0.48417979801270183,0.03835341512143306,0.07404653892180778,-0.007949228277203572,-0.06640049689834306,5.0
0.35689947998296245,-0.4774202883777049,0.07881815889730509,0.06503785411737203,-0.014512223319279108,-0.05641253281457932,5.0
0.3614400127531597,-0.48417979801270183,0.07303748087623728,0.05125986459492474,0.018302751057272398,-0.016460682824360032,5.0
0.3251160685115311,-0.49431915120761066,0.07303748087623728,0.039601566226576575,-0.014512223319279108,-0.050586222547329016,5.0
0.329656283361776,-0.48417979801270183,0.08459883612783867,0.04119133421343943,-0.025997465268280937,-0.057244863577882,5.0
0.3705210782935563,-0.4808000136143987,0.1019408694005079,0.04278110220030229,0.012286671782304541,-0.022286994360577458,5.0
0.347818414442567,-0.47066071958109884,0.1019408694005079,0.04808032892416821,-0.006308480142054326,-0.013963691803419102,5.0
0.347818414442567,-0.48417979801270183,0.07303748087623728,0.04914017414775372,0.020490415793355515,0.00767689313208701,5.0
0.35235894721276456,-0.48417979801270183,0.08459883612783867,0.04119133421343943,-0.0024800662285392318,-0.002311069365467812,5.0
0.33419681613197394,-0.4774202883777049,0.07881815889730509,0.03165272593879822,-0.02052830259424696,0.011006213964605282,5.0
0.329656283361776,-0.5078382296392137,0.1019408694005079,0.04384094762586726,-0.011230726215154432,0.021826506908221008,5.0
0.33873734890217183,-0.4976989356059138,0.1019408694005079,0.06927723501171405,0.012833588383238413,0.006844563003267885,5.0
0.347818414442567,-0.5010787200042167,0.03835341512143306,0.06980715802746575,-0.009589977246179,-0.0048080597519251835,5.0
0.3251160685115311,-0.5010787200042167,0.08459883612783867,0.07457646193755944,-0.005214647357099675,0.006844563003267885,5.0
0.33419681613197394,-0.4976989356059138,0.10772154663104147,0.07245676987455274,0.007911342310138306,0.020161846650582762,5.0
0.34327788167236906,-0.4976989356059138,0.10772154663104147,0.06927723501171405,0.011739756015196855,0.0251558274234975,5.0
0.34327788167236906,-0.4976989356059138,0.032572736309831006,0.06185831763869765,0.016115086321189274,-0.0048080597519251835,5.0
0.33419681613197394,-0.49431915120761066,0.032572736309831006,0.04914017414775372,-0.0041208149890581145,-0.014796022566721787,5.0
0.33419681613197394,-0.49431915120761066,0.032572736309831006,0.04914017414775372,-0.0041208149890581145,-0.014796022566721787,5.0
0.35689947998296245,-0.49431915120761066,0.09037951493944074,0.05390947805784743,0.024865745265521745,-0.012299031545780858,5.0
0.329656283361776,-0.48417979801270183,0.1019408694005079,0.06450793110162036,-0.0008393175722486202,0.01766485562964183,5.0
0.3205755357413339,-0.48417979801270183,0.1019408694005079,0.07298669289030442,-0.027091296802496306,-0.01812534308199828,5.0
0.34327788167236906,-0.4774202883777049,0.1019408694005079,0.04861025113200204,-0.0035738988050373352,-0.011466702051445293,5.0
0.347818414442567,-0.48417979801270183,0.09037951493944074,0.05072994238709091,0.010645923647155296,-0.0014787392366486889,5.0
0.33419681613197394,-0.4875595824110047,0.07881815889730509,0.057618936744355635,-0.0046677311730788954,-0.0006464091078295667,5.0
0.33419681613197394,-0.4875595824110047,0.16552832209851429,0.06291816367020102,-0.005214647357099675,-0.01313136230908354,5.0
0.3251160685115311,-0.4774202883777049,0.09616019216997432,0.04808032892416821,-0.015059139920212981,-0.01562835333002447,5.0
0.34327788167236906,-0.48417979801270183,0.09616019216997432,0.04278110220030229,-0.0172468046562961,-0.012299031545780858,5.0
0.347818414442567,-0.5010787200042167,0.09616019216997432,0.06344808668595271,-0.009589977246179,-0.025616314875853943,5.0
0.347818414442567,-0.4909393668093078,0.08459883612783867,0.051789787610676416,0.022131163928504748,-0.03144262768103851,5.0
0.33419681613197394,-0.48417979801270183,0.09037951493944074,0.05125986459492474,-0.008496144878137444,-0.030610296917735813,5.0
0.34327788167236906,-0.48417979801270183,0.09037951493944074,0.051789787610676416,-0.005214647357099675,0.005179902507698303,5.0
0.35689947998296245,-0.4774202883777049,0.09037951493944074,0.0560291693129363,0.0013483473722910434,-0.04059825846356528,5.0
0.3705210782935563,-0.4808000136143987,0.11928290425424559,0.06132839462294598,0.013380504984172285,-0.04475991228007871,5.0
0.33419681613197394,-0.4605213663861898,0.04991477037303446,0.045960638073038275,0.01775583445633852,-0.00647272000956343,5.0
0.3205755357413339,-0.4605213663861898,0.12506358148477917,0.05390947805784743,0.001895263660540096,0.0010182514670504595,5.0
0.33419681613197394,-0.46728093518279584,0.11928290425424559,0.04543071546124552,-0.017793721257229975,0.014335535114365337,5.0
0.347818414442567,-0.47066071958109884,0.1019408694005079,0.05072994238709091,-0.009589977246179,0.0010182514670504595,5.0
0.3614400127531597,-0.48417979801270183,0.1019408694005079,0.04914017414775372,0.012286671782304541,-0.01979000460860365,5.0
0.33873734890217183,-0.4774202883777049,0.04413409235196664,0.046490560684831025,-0.00029240133611370433,0.010173883835786159,5.0
0.33419681613197394,-0.4808000136143987,0.11350222386157509,0.04702048370058271,-0.03310737440981179,0.005179902507698303,5.0
0.35689947998296245,-0.4808000136143987,0.1019408694005079,0.05390947805784743,-0.030372794740447163,0.039305441516873284,5.0
0.35689947998296245,-0.5010787200042167,0.09616019216997432,0.05973862719152664,-0.024356715465479326,0.025988156917833065,5.0
0.347818414442567,-0.5044585044025195,0.08459883612783867,0.06344808668595271,-0.01943446939237921,0.010173883835786159,5.0
0.35235894721276456,-0.48417979801270183,0.07303748087623728,0.07086700405896912,-0.011777641982262119,0.013503204351062652,5.0
0.35689947998296245,-0.4909393668093078,0.07881815889730509,0.098422981488028,0.011739756015196855,0.03181446972301762,5.0
0.35689947998296245,-0.4909393668093078,0.07881815889730509,0.09100406573084732,-0.02052830259424696,0.009341553706967036,5.0
0.33419681613197394,-0.4808000136143987,0.11350222386157509,0.10107259656678641,-0.0019331500445184525,0.018497186392944516,5.0
0.35235894721276456,-0.4774202883777049,0.06725680325043658,0.09312375456218261,-0.015606056521146853,0.018497186392944516,5.0
0.3614400127531597,-0.47066071958109884,0.07881815889730509,0.0862347618207536,-0.01943446939237921,0.023491167165859254,5.0
0.3614400127531597,-0.47066071958109884,0.07881815889730509,0.06503785411737203,-0.009589977246179,-0.003143399494286938,5.0
0.35689947998296245,-0.4808000136143987,0.08459883612783867,0.07298669289030442,-0.011230726215154432,0.005179902507698303,5.0
0.347818414442567,-0.4808000136143987,0.13662493594584632,0.062388240654449346,-0.023262883931263956,0.021826506908221008,5.0
0.33419681613197394,-0.49431915120761066,0.11928290425424559,0.06768746758029473,-0.027091296802496306,0.025988156917833065,5.0
0.33419681613197394,-0.49431915120761066,0.11928290425424559,0.06662762154879137,-0.022169050729396206,0.01766485562964183,5.0
0.35235894721276456,-0.4774202883777049,0.07303748087623728,0.057618936744355635,0.011739756015196855,0.010173883835786159,5.0
0.35689947998296245,-0.46728093518279584,0.07303748087623728,0.051789787610676416,-0.013965306718345236,0.028485149207741117,5.0
0.347818414442567,-0.4774202883777049,0.09616019216997432,0.03907164351379409,-0.02380979886454544,0.009341553706967036,5.0
0.3614400127531597,-0.4774202883777049,0.1019408694005079,0.038541720902001336,-0.007949228277203572,-0.022286994360577458,5.0
0.35235894721276456,-0.4774202883777049,0.1019408694005079,0.04013148888886419,0.012833588383238413,-0.03144262768103851,5.0
0.35689947998296245,-0.48417979801270183,0.09616019216997432,0.05020001937133923,-0.016699888055362225,0.018497186392944516,5.0
0.35689947998296245,-0.4774202883777049,0.09616019216997432,0.0533795558500136,-0.013418390951237548,0.039305441516873284,5.0
0.3614400127531597,-0.4774202883777049,0.07881815889730509,0.0533795558500136,-0.006308480142054326,0.025988156917833065,5.0
0.35689947998296245,-0.4875595824110047,0.08459883612783867,0.039601566226576575,-0.01943446939237921,0.020994176144918327,5.0
0.34327788167236906,-0.4470022879545869,0.03835341512143306,0.04755040590841653,-0.03365429101074567,0.00767689313208701,5.0
0.347818414442567,-0.4808000136143987,0.03835341512143306,0.06874731199596239,-0.036388874015415025,0.009341553706967036,5.0
0.35689947998296245,-0.48417979801270183,0.08459883612783867,0.058678782775858994,-0.007402312510095883,0.0010182514670504595,5.0
0.35235894721276456,-0.47066071958109884,0.07303748087623728,0.05390947805784743,0.007364425709204435,-0.008969711030504361,5.0
0.347818414442567,-0.48417979801270183,0.07303748087623728,0.033772417193887086,-0.029825878139513297,0.027652818444438433,5.0
0.347818414442567,-0.4808000136143987,0.07303748087623728,0.03801179829020858,-0.041311120088515126,0.0384731107535706,5.0
0.3251160685115311,-0.4605213663861898,0.07303748087623728,0.023703886357947988,-0.032560457808877924,0.010173883835786159,5.0
0.35235894721276456,-0.48417979801270183,0.07303748087623728,0.030062958507378886,-0.022169050729396206,0.0001859213382313367,5.0
0.35689947998296245,-0.5044585044025195,0.09037951493944074,0.034832262417472594,-0.0013862338604976726,0.012670874222243531,5.0
0.347818414442567,-0.4875595824110047,0.09037951493944074,0.04331102481209504,0.008458258077245994,-0.024783984112551272,5.0
0.33419681613197394,-0.49431915120761066,0.09616019216997432,0.03165272593879822,-0.010136893847112874,0.006012232715827871,5.0
0.329656283361776,-0.47404050397940173,0.07881815889730509,0.0062164381489924776,-0.0046677311730788954,-0.0056403905152278685,5.0
0.34327788167236906,-0.4808000136143987,0.13662493594584632,0.007806207196247514,-0.02052830259424696,-0.010634371288142605,5.0
0.347818414442567,-0.49431915120761066,0.1019408694005079,0.016284968984931585,-0.036388874015415025,-0.018957673845300966,5.0
0.33873734890217183,-0.5112180140375165,0.06725680325043658,0.02158419591077698,-0.016699888055362225,-0.03227495590640692,5.0
0.33419681613197394,-0.5010787200042167,0.06725680325043658,0.015225122953428222,-0.013418390951237548,-0.03976592770026261,5.0
0.347818414442567,-0.4976989356059138,0.05569544799883517,0.025823576805119004,-0.021622134128462325,-0.07389146869219872,5.0
0.347818414442567,-0.4875595824110047,0.026792059079297423,0.019464505463605966,-0.021075217527528462,-0.07722078666954098,5.0
0.33873734890217183,-0.4808000136143987,0.026792059079297423,0.02529365378936732,-0.013965306718345236,-0.1105139918223059,5.0
0.33419681613197394,-0.47066071958109884,0.06725680325043658,0.013635355522008886,-0.021075217527528462,-0.07555613021880409,5.0
0.35689947998296245,-0.46390115078449295,0.12506358148477917,-0.00014263480835626218,0.020490415793355515,-0.08720875075330468,5.0
0.3614400127531597,-0.45038201319128074,0.07303748087623728,0.0003872882073954126,0.02650649506832336,-0.10718467892083212,5.0
0.3614400127531597,-0.44362250355628374,0.07303748087623728,0.0009172112231470874,0.03799173368202045,-0.07888544819614635,5.0
0.35689947998296245,-0.43010336596307197,0.09037951493944074,-0.02186946552748951,0.03471023741172196,-0.10219069434101605,5.0
0.35689947998296245,-0.43010336596307197,0.12506358148477917,-0.03140807334767694,0.047289312562591536,-0.07555613021880409,5.0
0.35235894721276456,-0.436862934759678,0.08459883612783867,-0.04465613581478329,0.04017940008575594,-0.08221476617348858,5.0
0.35235894721276456,-0.44362250355628374,0.07303748087623728,-0.06161365939215138,0.04127323328762369,-0.07722078666954098,5.0
0.33873734890217183,-0.4909393668093078,0.04991477037303446,-0.060023896808239184,0.0691659599234227,-0.13381924304304407,5.0
0.34327788167236906,-0.5179775828341227,-0.00789200746604104,-0.07592157435410393,0.08174503507429227,-0.1929146866305868,5.0
0.33419681613197394,-0.5112180140375165,-0.00789200746604104,-0.06638296653391651,0.06424371718562732,-0.21205828403481153,5.0
0.3205755357413339,-0.47404050397940173,0.03835341512143306,-0.04465613581478329,0.04236706648949142,-0.2262078968592202,5.0
0.33873734890217183,-0.46728093518279584,0.03835341512143306,-0.02080961949598615,0.011739756015196855,-0.18209439685938886,5.0
0.35689947998296245,-0.4064449343365603,0.10772154663104147,-0.05525458966647407,-0.016152971454428355,-0.0522508840739344,5.0
0.33873734890217183,-0.4064449343365603,0.13662493594584632,-0.06373335145515811,-0.08014217207238211,0.055119713329953066,5.0
0.33873734890217183,-0.4098247187348632,0.13662493594584632,-0.0674428125654199,-0.10311265597038578,0.09090991077262606,5.0
0.33873734890217183,-0.43010336596307197,0.09037951493944074,-0.051545128556212294,-0.10858181530911501,0.07842495947482275,5.0
0.3705210782935563,-0.45038201319128074,0.07881815889730509,-0.04041675815211268,-0.08068908867331599,0.03181446972301762,5.0
0.3796021438339507,-0.4537617975895839,0.04413409235196664,-0.04571598184628665,-0.006855395909162012,-0.0522508840739344,5.0
0.3886832093743451,-0.45038201319128074,0.009450027387696644,-0.05790420474523246,0.06041530097909023,-0.10635234815752946,5.0
0.3614400127531597,-0.46390115078449295,0.03835341512143306,-0.04571598184628665,0.07901045206962291,-0.15213050968396616,5.0
0.3614400127531597,-0.48417979801270183,0.07303748087623728,-0.043066366767528244,0.12659216299782236,-0.173771089226362,5.0
0.3659805455233576,-0.46728093518279584,0.06725680325043658,-0.01233085447563068,0.13260823893748547,-0.1787650738061781,5.0
0.33873734890217183,-0.43010336596307197,0.06725680325043658,0.007276284180495845,0.07080670972622431,-0.0805501097227517,5.0
0.3659805455233576,-0.4064449343365603,0.13662493594584632,-0.012860777491382348,0.015568169720255402,0.0251558274234975,5.0
0.35689947998296245,-0.4132045031331661,0.11350222386157509,-0.009151319612792006,-0.003026982621016557,0.14834070298530033,5.0
0.3659805455233576,-0.4132045031331661,0.11928290425424559,0.007806207196247514,-0.03857653708384576,0.19078954145852633,5.0
0.347818414442567,-0.43348315036137497,0.08459883612783867,0.021054272895025285,-0.03201354454324878,0.18829253901688134,5.0
0.35689947998296245,-0.45038201319128074,0.08459883612783867,0.03112280373096439,-0.053343275303146094,0.17913691077228874,5.0
0.3705210782935563,-0.436862934759678,0.04413409235196664,0.034302339401720915,-0.015606056521146853,0.12670011329116754,5.0
0.3705210782935563,-0.45038201319128074,0.04991477037303446,0.0321826489545499,0.04017940008575594,0.11837681580987768,5.0
0.3614400127531597,-0.45038201319128074,0.04991477037303446,0.026353499820870683,0.03361640420985421,0.06760466970362485,5.0
0.347818414442567,-0.4537617975895839,0.06725680325043658,0.020524349879273613,-0.006308480142054326,0.0701016569176644,5.0
0.347818414442567,-0.4808000136143987,0.04413409235196664,0.03271257197030158,-0.0019331500445184525,0.05428738256665039,5.0
0.34327788167236906,-0.4909393668093078,0.021011381848763836,0.0358921076410581,-0.0172468046562961,0.0376407799902679,5.0
0.3659805455233576,-0.49431915120761066,0.021011381848763836,0.06609770014887541,-0.02927896153857942,-0.01812534308199828,5.0
0.3796021438339507,-0.48417979801270183,0.009450027387696644,0.08994421969934395,0.060962217580024104,-0.055580202051276645,5.0
0.37506161106375385,-0.4808000136143987,0.04991477037303446,0.08941429668359226,0.09104261061955861,-0.05974185586779005,5.0
0.34327788167236906,-0.46728093518279584,0.08459883612783867,0.062388240654449346,0.005723677157142099,-0.023951655887182833,5.0
0.3705210782935563,-0.4470022879545869,0.04991477037303446,0.06980715802746575,-0.009043061479071317,-0.022286994360577458,5.0
0.3614400127531597,-0.436862934759678,0.09037951493944074,0.0862347618207536,0.01994349919242163,0.018497186392944516,5.0
0.3614400127531597,-0.436862934759678,0.09037951493944074,0.10372220518220197,-0.022715967330330076,0.05844903638316381,5.0
0.3614400127531597,-0.436862934759678,0.08459883612783867,0.10796158930821542,-0.02052830259424696,0.09840088764235022,5.0
0.35235894721276456,-0.43010336596307197,0.06725680325043658,0.13180811209035537,0.006270593341162877,0.12087379794804873,5.0
0.35689947998296245,-0.436862934759678,0.07881815889730509,0.1365774127687777,0.009005174678179866,0.13752040306236546,5.0
0.3614400127531597,-0.4165842875314691,0.10772154663104147,0.14346640551020667,0.016115086321189274,0.18829253901688134,5.0
0.3659805455233576,-0.41996407192977225,0.1019408694005079,0.14028687387903943,0.007364425709204435,0.2290767362669759,5.0
0.34327788167236906,-0.44362250355628374,0.04413409235196664,0.1551247053934008,-0.04076420348758126,0.26653159016038575,5.0
0.35235894721276456,-0.48417979801270183,0.07303748087623728,0.1598940060718231,-0.0019331500445184525,0.2640345877187407,5.0
0.35235894721276456,-0.48417979801270183,0.07303748087623728,0.16254362761392435,0.07025979312529046,0.2648669286337803,5.0
0.35235894721276456,-0.5010787200042167,0.07303748087623728,0.18056099722279584,0.027600326602538725,0.24405866970295023,5.0
0.3251160685115311,-0.4976989356059138,0.04991477037303446,0.18109091377520467,0.005176760973121319,0.22491507229872545,5.0
0.3251160685115311,-0.5078382296392137,0.026792059079297423,0.19168937409023828,0.001895263660540096,0.20077751061815854,5.0
0.33419681613197394,-0.5314967204273346,0.032572736309831006,0.20705712215700853,-0.015059139920212981,0.13502341077245741,5.0
0.3251160685115311,-0.5382562300623316,0.032572736309831006,0.20228782147858623,-0.06045318777998169,0.12670011329116754,5.0
0.3251160685115311,-0.5382562300623316,0.032572736309831006,0.20970674369910977,-0.014512223319279108,0.07426331073417783,5.0
0.3614400127531597,-0.4909393668093078,0.026792059079297423,0.20758705163610305,0.015568169720255402,0.059281367146466486,5.0
0.347818414442567,-0.4808000136143987,0.04991477037303446,0.19009959857964043,-0.021622134128462325,0.08341894405463889,5.0
0.347818414442567,-0.4808000136143987,0.04991477037303446,0.15936408951941428,-0.04349878315694588,0.0942392338258368,5.0
0.33419681613197394,-0.47066071958109884,0.06725680325043658,0.1551247053934008,-0.03748270388197802,0.08092195176473081,5.0
0.35235894721276456,-0.46728093518279584,0.1019408694005079,0.1381671818160327,0.006817509942096749,0.06510767741371679,5.0
0.35235894721276456,-0.46728093518279584,0.1019408694005079,0.10531197422945703,0.012833588383238413,0.051790395352610825,5.0
0.347818414442567,-0.44362250355628374,0.1019408694005079,0.08517491578925024,-0.014512223319279108,0.07259864920757245,5.0
0.33419681613197394,-0.4470022879545869,0.08459883612783867,0.07722607378464644,-0.024356715465479326,0.09673622611574485,5.0
0.347818414442567,-0.47066071958109884,0.1019408694005079,0.06132839462294598,0.015568169720255402,0.0942392338258368,5.0
0.33419681613197394,-0.4605213663861898,0.07303748087623728,0.052849632834261924,0.011739756015196855,0.12670011329116754,5.0
0.3024134046605433,-0.47066071958109884,0.09616019216997432,0.044370870237660016,-0.0347481242126134,0.14334671840548424,5.0
0.31603500297113596,-0.49431915120761066,0.07303748087623728,0.04119133421343943,-0.054984025105947694,0.13086176710768097,5.0
0.3251160685115311,-0.5044585044025195,0.13084425871531277,0.07033708104321741,-0.02052830259424696,0.0942392338258368,5.0
0.35235894721276456,-0.5112180140375165,0.03835341512143306,0.08729460462058554,-0.0035738988050373352,0.06926932615436174,5.0
0.329656283361776,-0.5281169360290314,0.05569544799883517,0.06927723501171405,-0.019981385993313092,0.06843700046692752,5.0
0.33419681613197394,-0.5348764456640285,0.04413409235196664,0.07722607378464644,-0.07795450566864662,0.06011369790976918,5.0
0.35235894721276456,-0.5483955832572404,0.015230704618230265,0.098422981488028,-0.06264085418371719,0.015167864608700898,5.0
0.3614400127531597,-0.5382562300623316,0.04413409235196664,0.09312375456218261,-0.010136893847112874,0.027652818444438433,5.0
0.31603500297113596,-0.5314967204273346,0.07303748087623728,0.07457646193755944,-0.04951486243191372,0.0418024312688471,5.0
0.34327788167236906,-0.5247371516307284,0.04991477037303446,0.04702048370058271,-0.06975076332524804,0.0376407799902679,5.0
0.3659805455233576,-0.5213573672324253,0.009450027387696644,0.058678782775858994,-0.018340637858163845,-0.023119325123880152,5.0
0.3614400127531597,-0.5112180140375165,0.04991477037303446,0.057089013728603956,0.06533754371688559,-0.03726893794828879,5.0
0.347818414442567,-0.5010787200042167,0.04991477037303446,0.014695201553512246,0.020490415793355515,-0.04808923025742096,5.0
0.33419681613197394,-0.49431915120761066,0.06725680325043658,-0.011271008444127317,-0.026544380201562443,-0.018957673845300966,5.0
0.329656283361776,-0.5078382296392137,0.07303748087623728,-0.007561550565536964,-0.030372794740447163,-0.00647272000956343,5.0
0.35235894721276456,-0.5044585044025195,0.1019408694005079,0.008866053227750881,0.013380504984172285,-0.018957673845300966,5.0
0.33873734890217183,-0.49431915120761066,0.08459883612783867,-0.00014263480835626218,-0.003026982621016557,0.014335535114365337,5.0
0.3251160685115311,-0.4976989356059138,0.1019408694005079,-0.008091473581288639,-0.041311120088515126,0.030982138959714925,5.0
0.30695393743074045,-0.5213573672324253,0.1019408694005079,0.014695201553512246,0.005723677157142099,0.005179902507698303,5.0
0.34327788167236906,-0.5247371516307284,0.07881815889730509,0.014165278537760576,0.05658688477255312,-0.002311069365467812,5.0
0.33419681613197394,-0.5078382296392137,0.07303748087623728,0.012045588090589561,0.04236706648949142,0.016832524866339144,5.0
0.3205755357413339,-0.5044585044025195,0.07303748087623728,0.01310543412209291,-0.0024800662285392318,0.04013777228017598,5.0
0.34327788167236906,-0.5213573672324253,0.08459883612783867,0.01999442847935764,0.009005174678179866,0.016000195372003582,5.0
0.33419681613197394,-0.5247371516307284,0.07881815889730509,0.03324249417813541,0.004082928605079759,0.019329515887280074,5.0
0.31603500297113596,-0.5281169360290314,0.07881815889730509,0.05549924629718462,-0.02380979886454544,-0.0006464091078295667,5.0
0.3251160685115311,-0.5314967204273346,0.07303748087623728,0.07722607378464644,-0.005761563541120453,-0.0006464091078295667,5.0
0.347818414442567,-0.5483955832572404,0.05569544799883517,0.07298669289030442,-0.0046677311730788954,0.001850581595869584,5.0
0.347818414442567,-0.5078382296392137,0.08459883612783867,0.06980715802746575,-0.005214647357099675,-0.03310728666970963,5.0
0.33873734890217183,-0.5010787200042167,0.08459883612783867,0.06609770014887541,0.019396582591487768,-0.011466702051445293,5.0
0.35689947998296245,-0.49431915120761066,0.05569544799883517,0.059208704175774965,0.0013483473722910434,-0.028945635391130434,5.0
0.33419681613197394,-0.5010787200042167,0.08459883612783867,0.05443940026568126,-0.028732044937645553,-0.01812534308199828,5.0
0.34327788167236906,-0.5010787200042167,0.1597476448679807,0.06927723501171405,-0.05224944543658308,-0.034771948196315,5.0
0.3251160685115311,-0.4875595824110047,0.08459883612783867,0.08464499277349856,-0.024356715465479326,-0.008137380267201677,5.0
0.3251160685115311,-0.48417979801270183,0.07303748087623728,0.08146545791065987,0.008458258077245994,-0.024783984112551272,5.0
0.3251160685115311,-0.49431915120761066,0.07881815889730509,0.057089013728603956,0.005723677157142099,0.03431145947499141,5.0
0.33873734890217183,-0.4976989356059138,0.10772154663104147,0.03536218502926535,0.011739756015196855,0.014335535114365337,5.0
0.33419681613197394,-0.5010787200042167,0.1019408694005079,0.027943267252290016,-0.014512223319279108,0.03347912871168874,5.0
0.33419681613197394,-0.5044585044025195,0.08459883612783867,0.03536218502926535,-0.03857653708384576,0.05844903638316381,5.0
0.33873734890217183,-0.5078382296392137,0.09037951493944074,0.03271257197030158,-0.03420120761167953,0.03431145947499141,5.0
0.347818414442567,-0.5247371516307284,0.14240561317637992,0.05390947805784743,-0.0019331500445184525,0.024323497929161938,5.0
0.33419681613197394,-0.5179775828341227,0.1019408694005079,0.06662762154879137,-0.009043061479071317,0.011006213964605282,5.0
0.3251160685115311,-0.5078382296392137,0.1019408694005079,0.05814885976010733,-0.030919711341381047,0.039305441516873284,5.0
0.33873734890217183,-0.5112180140375165,0.07303748087623728,0.0560291693129363,-0.027638213403430187,0.009341553706967036,5.0
0.35235894721276456,-0.5078382296392137,0.07303748087623728,0.05443940026568126,-0.0369357906163489,0.013503204351062652,5.0
0.347818414442567,-0.5078382296392137,0.07303748087623728,0.04702048370058271,-0.0024800662285392318,0.019329515887280074,5.0
0.33419681613197394,-0.5010787200042167,0.07303748087623728,0.03801179829020858,-0.03967037028571351,0.03014980819641224,5.0
0.347818414442567,-0.5112180140375165,0.05569544799883517,0.04384094762586726,-0.05771860477531233,0.035976121001596785,5.0
0.33873734890217183,-0.5078382296392137,0.07881815889730509,0.02741334504445619,-0.039123453684779645,0.023491167165859254,5.0
0.33419681613197394,-0.49431915120761066,0.09037951493944074,0.017874736416350907,-0.052796358702212214,0.024323497929161938,5.0
0.3205755357413339,-0.5145977984358195,0.03835341512143306,0.026883422836622362,-0.05170252883564922,0.020161846650582762,5.0
0.347818414442567,-0.5112180140375165,0.06725680325043658,0.025823576805119004,-0.04951486243191372,0.03347912871168874,5.0
0.347818414442567,-0.5078382296392137,0.05569544799883517,0.03112280373096439,-0.0702976799261819,0.005179902507698303,5.0
0.3251160685115311,-0.5247371516307284,0.04991477037303446,0.0358921076410581,-0.0620939375827833,-0.008969711030504361,5.0
0.33419681613197394,-0.5010787200042167,0.04991477037303446,0.017874736416350907,-0.0380296204829119,-0.04392758151677603,5.0
0.34327788167236906,-0.49431915120761066,0.1019408694005079,0.0284731902680417,0.0013483473722910434,-0.049753891784026345,5.0
0.3796021438339507,-0.5078382296392137,0.07303748087623728,0.026353499820870683,0.009005174678179866,-0.04226291999017066,5.0
0.3886832093743451,-0.5179775828341227,0.03835341512143306,0.044370870237660016,0.07463512593276143,0.0026829118833095974,5.0
0.329656283361776,-0.48417979801270183,0.032572736309831006,0.052849632834261924,0.07846353546868905,0.005179902507698303,5.0
0.2842512735797523,-0.47066071958109884,0.06725680325043658,0.0109857420590862,-0.023262883931263956,-0.003143399494286938,5.0
0.30695393743074045,-0.48417979801270183,0.07303748087623728,-0.0065017045340335965,-0.06756309692151254,-0.010634371288142605,5.0
0.347818414442567,-0.4976989356059138,0.07303748087623728,-0.012860777491382348,-0.011777641982262119,-0.025616314875853943,5.0
0.3614400127531597,-0.5179775828341227,0.07303748087623728,0.005156592117489116,0.03744482041639133,-0.05641253281457932,5.0
0.33419681613197394,-0.4976989356059138,0.04991477037303446,0.029533035491627203,0.0647906337865612,-0.01562835333002447,5.0
0.3114944702009384,-0.4976989356059138,0.026792059079297423,0.015755045969179895,0.047836225828220676,-0.011466702051445293,5.0
0.31603500297113596,-0.48417979801270183,0.026792059079297423,0.0056865151332408026,-0.010136893847112874,-0.008137380267201677,5.0
0.33419681613197394,-0.4909393668093078,0.026792059079297423,0.004626669101737435,-0.005761563541120453,0.013503204351062652,5.0
0.34327788167236906,-0.5078382296392137,0.09616019216997432,0.0009172112231470874,-0.00029240133611370433,0.006012232715827871,5.0
0.33419681613197394,-0.5078382296392137,0.09616019216997432,0.034302339401720915,-0.024356715465479326,-0.00647272000956343,5.0
0.33419681613197394,-0.5078382296392137,0.09616019216997432,0.03271257197030158,-0.014512223319279108,0.00767689313208701,5.0
0.3251160685115311,-0.5078382296392137,0.032572736309831006,0.034302339401720915,-0.0369357906163489,0.046796413310728965,5.0
0.31603500297113596,-0.5179775828341227,0.015230704618230265,0.04013148888886419,-0.04951486243191372,0.044299423558755144,5.0
0.31603500297113596,-0.5179775828341227,0.015230704618230265,0.045960638073038275,-0.04951486243191372,0.048461072299400075,5.0
0.33419681613197394,-0.5247371516307284,-0.031014716388175382,0.06079847322303001,-0.04568644956068136,0.042634762032149776,5.0
0.34327788167236906,-0.5247371516307284,0.009450027387696644,0.08040561187915654,-0.035295040813547285,0.008509223260906133,5.0
0.33873734890217183,-0.4976989356059138,-0.04257607084924254,0.07510638495331115,-0.028732044937645553,0.010173883835786159,5.0
0.34327788167236906,-0.5010787200042167,-0.0021113302355074267,0.06450793110162036,-0.022715967330330076,-0.008137380267201677,5.0
0.347818414442567,-0.5044585044025195,-0.0021113302355074267,0.057089013728603956,-0.029825878139513297,0.0251558274234975,5.0
0.34327788167236906,-0.4976989356059138,0.009450027387696644,0.04755040590841653,-0.035295040813547285,0.009341553706967036,5.0
0.347818414442567,-0.5078382296392137,0.021011381848763836,0.04278110220030229,-0.029825878139513297,0.006012232715827871,5.0
0.347818414442567,-0.4909393668093078,0.03835341512143306,0.044370870237660016,-0.026544380201562443,0.00767689313208701,5.0
0.33419681613197394,-0.5010787200042167,0.04991477037303446,0.03324249417813541,-0.029825878139513297,0.01766485562964183,5.0
0.329656283361776,-0.5179775828341227,0.032572736309831006,0.044370870237660016,-0.01232455858319599,0.028485149207741117,5.0
0.33419681613197394,-0.5010787200042167,-0.013672684696574604,0.04278110220030229,-0.021075217527528462,0.023491167165859254,5.0
0.33419681613197394,-0.5010787200042167,-0.0021113302355074267,0.051789787610676416,-0.0172468046562961,0.018497186392944516,5.0
0.33419681613197394,-0.5010787200042167,-0.00789200746604104,0.05496932328143294,-0.011230726215154432,0.013503204351062652,5.0
0.34327788167236906,-0.5078382296392137,0.03835341512143306,0.059208704175774965,-0.016152971454428355,0.0010182514670504595,5.0
0.33419681613197394,-0.5010787200042167,0.03835341512143306,0.05496932328143294,-0.0035738988050373352,0.014335535114365337,5.0
0.3251160685115311,-0.5179775828341227,0.07303748087623728,0.06185831763869765,-0.011777641982262119,-0.0056403905152278685,5.0
0.33419681613197394,-0.5179775828341227,0.07303748087623728,0.06344808668595271,-0.01232455858319599,0.013503204351062652,5.0
0.33873734890217183,-0.49431915120761066,0.015230704618230265,0.05496932328143294,0.002442179844560876,-0.013963691803419102,5.0
0.33419681613197394,-0.49431915120761066,0.021011381848763836,0.05125986459492474,-0.010683809614220562,-0.021454663597274774,5.0
0.33873734890217183,-0.5010787200042167,0.021011381848763836,0.052849632834261924,-0.013965306718345236,-0.0056403905152278685,5.0
0.33419681613197394,-0.5010787200042167,0.04991477037303446,0.04755040590841653,-0.0013862338604976726,0.020161846650582762,5.0
0.329656283361776,-0.49431915120761066,0.03835341512143306,0.05020001937133923,-0.017793721257229975,0.006844563003267885,5.0
0.33419681613197394,-0.5145977984358195,0.026792059079297423,0.05973862719152664,-0.013418390951237548,-0.007305050772866113,5.0
0.329656283361776,-0.5145977984358195,0.015230704618230265,0.06980715802746575,-0.007949228277203572,-0.00647272000956343,5.0
0.34327788167236906,-0.5078382296392137,0.03835341512143306,0.07033708104321741,-0.005761563541120453,-0.003143399494286938,5.0
0.3251160685115311,-0.5078382296392137,0.03835341512143306,0.08252530071049183,-0.017793721257229975,-0.007305050772866113,5.0
0.33873734890217183,-0.5112180140375165,0.03835341512143306,0.05973862719152664,0.007364425709204435,0.006844563003267885,5.0
0.3251160685115311,-0.4976989356059138,0.03835341512143306,0.059208704175774965,-0.006308480142054326,0.011838544093424408,5.0
0.34327788167236906,-0.48417979801270183,0.03835341512143306,0.05020001937133923,0.015568169720255402,0.011838544093424408,5.0
0.347818414442567,-0.49431915120761066,0.04991477037303446,0.04861025113200204,0.0029890960285816545,0.018497186392944516,5.0
0.329656283361776,-0.5010787200042167,0.032572736309831006,0.04490079284945277,-0.010136893847112874,0.03680844922696523,5.0
0.33873734890217183,-0.5044585044025195,0.026792059079297423,0.04861025113200204,-0.024356715465479326,0.025988156917833065,5.0
0.34327788167236906,-0.5010787200042167,0.04413409235196664,0.03801179829020858,-0.00029240133611370433,0.011838544093424408,5.0
0.33419681613197394,-0.5044585044025195,0.026792059079297423,0.04225117958850953,0.002442179844560876,0.03014980819641224,5.0
0.33419681613197394,-0.5044585044025195,0.04413409235196664,0.0533795558500136,-0.0008393175722486202,0.020994176144918327,5.0
0.34327788167236906,-0.5145977984358195,0.05569544799883517,0.044370870237660016,0.008458258077245994,0.011838544093424408,5.0
0.347818414442567,-0.5010787200042167,0.05569544799883517,0.044370870237660016,-0.009043061479071317,0.015167864608700898,5.0
0.3251160685115311,-0.4976989356059138,0.026792059079297423,0.04914017414775372,0.0013483473722910434,0.035976121001596785,5.0
0.33873734890217183,-0.5247371516307284,0.021011381848763836,0.059208704175774965,-0.0019331500445184525,0.020994176144918327,5.0
0.347818414442567,-0.5010787200042167,0.032572736309831006,0.0560291693129363,0.011192839414262985,0.014335535114365337,5.0
0.3251160685115311,-0.5010787200042167,0.015230704618230265,0.05655909071285227,-0.006308480142054326,0.011006213964605282,5.0
0.34327788167236906,-0.5010787200042167,0.021011381848763836,0.05973862719152664,-0.0024800662285392318,0.01766485562964183,5.0
0.34327788167236906,-0.5078382296392137,0.021011381848763836,0.046490560684831025,-0.0024800662285392318,0.024323497929161938,5.0
0.31603500297113596,-0.49431915120761066,-0.013672684696574604,0.04702048370058271,-0.005214647357099675,0.013503204351062652,5.0
0.3251160685115311,-0.5044585044025195,-0.0021113302355074267,0.03642203025285085,0.0046298447891005385,0.020161846650582762,5.0
0.33419681613197394,-0.5145977984358195,-0.00789200746604104,0.05072994238709091,0.006817509942096749,0.00767689313208701,5.0
0.33419681613197394,-0.5145977984358195,-0.01945336192710818,0.04490079284945277,0.002442179844560876,0.011838544093424408,5.0
0.33419681613197394,-0.5078382296392137,-0.0021113302355074267,0.018934582447854276,-0.007402312510095883,0.011838544093424408,5.0
0.33873734890217183,-0.5112180140375165,-0.0021113302355074267,0.029003113283793378,-0.011230726215154432,0.023491167165859254,5.0
0.33873734890217183,-0.5044585044025195,0.015230704618230265,0.02741334504445619,0.0046298447891005385,0.030982138959714925,5.0
0.3251160685115311,-0.5010787200042167,0.009450027387696644,0.03271257197030158,-0.0041208149890581145,0.0026829118833095974,5.0
0.33419681613197394,-0.5179775828341227,0.009450027387696644,0.03695195286464361,-0.003026982621016557,0.010173883835786159,5.0
0.3251160685115311,-0.5112180140375165,-0.00789200746604104,0.03907164351379409,-0.0172468046562961,0.0251558274234975,5.0
0.3251160685115311,-0.49431915120761066,0.015230704618230265,0.0231739633421963,-0.006855395909162012,0.005179902507698303,5.0
0.35235894721276456,-0.5010787200042167,0.009450027387696644,0.04013148888886419,-0.005761563541120453,0.03181446972301762,5.0
0.35235894721276456,-0.5010787200042167,0.009450027387696644,0.023703886357947988,-0.013418390951237548,0.016832524866339144,5.0
0.329656283361776,-0.5281169360290314,0.015230704618230265,0.030062958507378886,0.00955209127911374,-0.0056403905152278685,5.0
0.33419681613197394,-0.5112180140375165,0.032572736309831006,0.033772417193887086,-0.0035738988050373352,-0.0048080597519251835,5.0
0.33419681613197394,-0.5112180140375165,0.032572736309831006,0.0321826489545499,-0.0041208149890581145,-0.01562835333002447,5.0
0.329656283361776,-0.5145977984358195,0.032572736309831006,0.03695195286464361,-0.01232455858319599,0.008509223260906133,5.0
0.33419681613197394,-0.5145977984358195,0.032572736309831006,0.03271257197030158,-0.010683809614220562,0.009341553706967036,5.0
0.35689947998296245,-0.5078382296392137,0.021011381848763836,0.04119133421343943,-0.006855395909162012,0.0001859213382313367,5.0
0.33419681613197394,-0.5010787200042167,-0.0021113302355074267,0.03801179829020858,-0.005214647357099675,0.012670874222243531,5.0
0.33419681613197394,-0.5179775828341227,-0.031014716388175382,0.0284731902680417,-0.010136893847112874,-0.0056403905152278685,5.0
0.33873734890217183,-0.5213573672324253,-0.01945336192710818,0.01999442847935764,-0.015606056521146853,0.010173883835786159,5.0
0.33419681613197394,-0.4976989356059138,0.0036693469950261513,0.033772417193887086,-0.0035738988050373352,0.012670874222243531,5.0
0.33419681613197394,-0.4909393668093078,0.026792059079297423,0.03112280373096439,-0.007402312510095883,-0.01812534308199828,5.0
0.3251160685115311,-0.5010787200042167,0.021011381848763836,0.0321826489545499,0.001895263660540096,-0.0056403905152278685,5.0
0.33873734890217183,-0.5044585044025195,0.03835341512143306,0.04967009716350541,0.0046298447891005385,-0.0039757296231060614,5.0
0.33873734890217183,-0.5179775828341227,0.026792059079297423,0.04013148888886419,-0.005761563541120453,-0.0048080597519251835,5.0
0.34327788167236906,-0.5247371516307284,0.026792059079297423,0.04967009716350541,-0.006855395909162012,-0.009802041793807049,5.0
0.34327788167236906,-0.5010787200042167,-0.0021113302355074267,0.052849632834261924,0.02103733239428938,-0.01979000460860365,5.0
0.34327788167236906,-0.5145977984358195,0.021011381848763836,0.045960638073038275,0.01502125311932153,0.001850581595869584,5.0
0.33419681613197394,-0.5179775828341227,0.0036693469950261513,0.04755040590841653,0.011192839414262985,-0.029777966154433132,5.0
0.33419681613197394,-0.5010787200042167,-0.0021113302355074267,0.04543071546124552,0.011192839414262985,-0.008137380267201677,5.0
0.329656283361776,-0.5078382296392137,0.026792059079297423,0.052319709818510245,-0.010136893847112874,-0.028945635391130434,5.0
0.329656283361776,-0.5078382296392137,0.021011381848763836,0.052319709818510245,-0.0008393175722486202,-0.008137380267201677,5.0
0.34327788167236906,-0.5179775828341227,0.03835341512143306,0.06768746758029473,0.007364425709204435,0.008509223260906133,5.0
0.33873734890217183,-0.5078382296392137,0.03835341512143306,0.06609770014887541,-0.018340637858163845,0.02265883640255657,5.0
0.347818414442567,-0.5078382296392137,0.04991477037303446,0.07192685009047246,-0.007402312510095883,0.015167864608700898,5.0
0.33873734890217183,-0.4976989356059138,0.026792059079297423,0.07775599680039813,-0.008496144878137444,0.006012232715827871,5.0
0.329656283361776,-0.5010787200042167,-0.00789200746604104,0.06927723501171405,-0.0041208149890581145,-0.009802041793807049,5.0
0.347818414442567,-0.4976989356059138,0.03835341512143306,0.07775599680039813,-0.007949228277203572,0.03014980819641224,5.0
0.35235894721276456,-0.5044585044025195,0.009450027387696644,0.08199537769474016,-0.0013862338604976726,0.012670874222243531,5.0
0.347818414442567,-0.5078382296392137,0.032572736309831006,0.07298669289030442,0.009005174678179866,-0.01313136230908354,5.0
0.3251160685115311,-0.5078382296392137,0.03835341512143306,0.07563630796906282,0.02377191373130638,0.011838544093424408,5.0
0.34327788167236906,-0.5044585044025195,0.021011381848763836,0.07775599680039813,0.021584247327570884,0.015167864608700898,5.0
0.3251160685115311,-0.5078382296392137,0.032572736309831006,0.08464499277349856,0.029787991338621846,0.005179902507698303,5.0
0.33419681613197394,-0.4875595824110047,0.03835341512143306,0.0809355348949082,0.022678080529438628,0.011006213964605282,5.0
0.33419681613197394,-0.4875595824110047,0.032572736309831006,0.05814885976010733,0.025959578467389492,0.005179902507698303,5.0
0.33419681613197394,-0.4808000136143987,0.04991477037303446,0.057089013728603956,0.020490415793355515,-0.008137380267201677,5.0
0.35235894721276456,-0.48417979801270183,0.04991477037303446,0.04702048370058271,0.019396582591487768,0.016832524866339144,5.0
0.33873734890217183,-0.4976989356059138,0.015230704618230265,0.04384094762586726,0.016662001254470777,0.021826506908221008,5.0
0.35235894721276456,-0.5010787200042167,0.015230704618230265,0.04861025113200204,-0.0013862338604976726,0.023491167165859254,5.0
0.35235894721276456,-0.4909393668093078,0.032572736309831006,0.03536218502926535,-0.0041208149890581145,0.011006213964605282,5.0
0.34327788167236906,-0.5010787200042167,0.009450027387696644,0.04861025113200204,0.016662001254470777,0.014335535114365337,5.0
0.34327788167236906,-0.5010787200042167,0.009450027387696644,0.04861025113200204,0.015568169720255402,0.024323497929161938,5.0
0.347818414442567,-0.5010787200042167,0.04413409235196664,0.05125986459492474,0.00955209127911374,-0.0014787392366486889,5.0
0.3614400127531597,-0.5010787200042167,0.03835341512143306,0.0533795558500136,0.005176760973121319,-0.00647272000956343,5.0
0.3614400127531597,-0.5010787200042167,0.03835341512143306,0.04331102481209504,-0.00029240133611370433,0.015167864608700898,5.0
0.35689947998296245,-0.5078382296392137,0.06725680325043658,0.04808032892416821,0.005176760973121319,0.011006213964605282,5.0
0.33419681613197394,-0.5078382296392137,-0.0021113302355074267,0.05549924629718462,0.008458258077245994,0.015167864608700898,5.0
0.33873734890217183,-0.5010787200042167,0.021011381848763836,0.04967009716350541,0.012286671782304541,0.005179902507698303,5.0
0.347818414442567,-0.5010787200042167,0.03835341512143306,0.0560291693129363,0.02541266186645561,0.0001859213382313367,5.0
0.34327788167236906,-0.4976989356059138,0.009450027387696644,0.057618936744355635,0.001895263660540096,0.005179902507698303,5.0
0.34327788167236906,-0.4909393668093078,0.009450027387696644,0.044370870237660016,0.0029890960285816545,-0.008969711030504361,5.0
0.33873734890217183,-0.49431915120761066,0.009450027387696644,0.0358921076410581,0.00955209127911374,0.0001859213382313367,5.0
0.347818414442567,-0.5145977984358195,0.026792059079297423,0.025823576805119004,0.014474336518387658,-0.002311069365467812,5.0
0.35689947998296245,-0.4976989356059138,-0.0021113302355074267,0.023703886357947988,0.01392742075127997,-0.030610296917735813,5.0
0.35235894721276456,-0.5010787200042167,0.04991477037303446,0.026353499820870683,0.03306948760892035,-0.0006464091078295667,5.0
0.3251160685115311,-0.49431915120761066,0.021011381848763836,0.02741334504445619,0.0035360124210589805,0.024323497929161938,5.0
0.329656283361776,-0.5145977984358195,0.032572736309831006,0.025823576805119004,-0.0019331500445184525,0.016832524866339144,5.0
0.33873734890217183,-0.5044585044025195,0.07303748087623728,0.04225117958850953,0.010099007046221423,0.020161846650582762,5.0
0.3251160685115311,-0.5010787200042167,0.07303748087623728,0.04490079284945277,0.0029890960285816545,0.0026829118833095974,5.0
0.33873734890217183,-0.48417979801270183,0.015230704618230265,0.034302339401720915,-0.0024800662285392318,0.029317477433109557,5.0
0.347818414442567,-0.4976989356059138,0.03835341512143306,0.04914017414775372,0.0035360124210589805,0.029317477433109557,5.0
0.33419681613197394,-0.4976989356059138,0.021011381848763836,0.057089013728603956,-0.00029240133611370433,0.035143790238294115,5.0
0.31603500297113596,-0.5044585044025195,0.021011381848763836,0.05549924629718462,-0.008496144878137444,0.010173883835786159,5.0
0.33873734890217183,-0.5078382296392137,0.03835341512143306,0.05549924629718462,0.009005174678179866,-0.008137380267201677,5.0
0.33419681613197394,-0.5010787200042167,0.015230704618230265,0.059208704175774965,-0.006308480142054326,0.016000195372003582,5.0
0.35235894721276456,-0.5010787200042167,0.04991477037303446,0.051789787610676416,-0.0024800662285392318,0.0251558274234975,5.0
0.34327788167236906,-0.5078382296392137,0.07881815889730509,0.07298669289030442,0.005176760973121319,0.012670874222243531,5.0
0.34327788167236906,-0.5145977984358195,0.04413409235196664,0.06503785411737203,-0.006308480142054326,0.013503204351062652,5.0
0.31603500297113596,-0.5010787200042167,0.03835341512143306,0.052319709818510245,0.008458258077245994,0.008509223260906133,5.0
0.3251160685115311,-0.4875595824110047,0.04413409235196664,0.05549924629718462,-0.005761563541120453,0.00767689313208701,5.0
0.3251160685115311,-0.5044585044025195,0.03835341512143306,0.06556777713312373,-0.0035738988050373352,0.005179902507698303,5.0
0.329656283361776,-0.5078382296392137,0.04991477037303446,0.059208704175774965,-0.0035738988050373352,0.020161846650582762,5.0
0.347818414442567,-0.49431915120761066,0.032572736309831006,0.05443940026568126,0.007911342310138306,0.016000195372003582,5.0
0.329656283361776,-0.4976989356059138,0.04991477037303446,0.07139692707472078,-0.011230726215154432,0.03181446972301762,5.0
0.33419681613197394,-0.5145977984358195,0.0036693469950261513,0.06185831763869765,-0.009589977246179,0.016000195372003582,5.0
0.33419681613197394,-0.5010787200042167,0.03835341512143306,0.06132839462294598,-0.016152971454428355,0.016000195372003582,5.0
0.33873734890217183,-0.49431915120761066,0.04413409235196664,0.07245676987455274,-0.008496144878137444,0.024323497929161938,5.0
0.33419681613197394,-0.49431915120761066,0.021011381848763836,0.07775599680039813,-0.006308480142054326,0.027652818444438433,5.0
0.33419681613197394,-0.49431915120761066,0.04991477037303446,0.06609770014887541,0.0013483473722910434,0.018497186392944516,5.0
0.33873734890217183,-0.49431915120761066,-0.0021113302355074267,0.051789787610676416,-0.0024800662285392318,0.018497186392944516,5.0
0.347818414442567,-0.49431915120761066,0.04413409235196664,0.03801179829020858,-0.00029240133611370433,0.011006213964605282,5.0
0.35235894721276456,-0.48417979801270183,0.04991477037303446,0.04543071546124552,0.023224997130372498,-0.0014787392366486889,5.0
0.33873734890217183,-0.49431915120761066,0.009450027387696644,0.04384094762586726,0.021584247327570884,-0.0048080597519251835,5.0
0.347818414442567,-0.49431915120761066,0.021011381848763836,0.03642203025285085,0.014474336518387658,-0.0039757296231060614,5.0
0.33419681613197394,-0.4808000136143987,0.009450027387696644,0.024233809373699667,0.015568169720255402,0.0010182514670504595,5.0
0.33419681613197394,-0.4909393668093078,0.009450027387696644,0.023703886357947988,0.009005174678179866,0.0010182514670504595,5.0
0.34327788167236906,-0.5010787200042167,0.032572736309831006,0.02158419591077698,0.011192839414262985,-0.007305050772866113,5.0
0.3251160685115311,-0.5044585044025195,-0.031014716388175382,0.03271257197030158,0.016662001254470777,0.018497186392944516,5.0
0.3251160685115311,-0.5010787200042167,0.021011381848763836,0.038541720902001336,-0.005761563541120453,0.03431145947499141,5.0
0.33419681613197394,-0.4976989356059138,0.026792059079297423,0.0358921076410581,-0.00029240133611370433,0.03680844922696523,5.0
0.347818414442567,-0.5112180140375165,0.021011381848763836,0.044370870237660016,-0.006308480142054326,0.024323497929161938,5.0
0.347818414442567,-0.5078382296392137,-0.0021113302355074267,0.05020001937133923,0.0029890960285816545,0.013503204351062652,5.0
0.33419681613197394,-0.5078382296392137,-0.0021113302355074267,0.046490560684831025,0.007364425709204435,-0.002311069365467812,5.0
0.34327788167236906,-0.5112180140375165,-0.0021113302355074267,0.04808032892416821,-0.012871475184129863,0.006844563003267885,5.0
0.347818414442567,-0.5044585044025195,0.026792059079297423,0.06397800808586866,-0.011777641982262119,0.024323497929161938,5.0
0.33873734890217183,-0.5044585044025195,0.03835341512143306,0.062388240654449346,0.013380504984172285,-0.009802041793807049,5.0
0.31603500297113596,-0.5078382296392137,0.021011381848763836,0.06185831763869765,-0.015059139920212981,0.0010182514670504595,5.0
0.34327788167236906,-0.49431915120761066,0.08459883612783867,0.04755040590841653,-0.006308480142054326,0.013503204351062652,5.0
0.347818414442567,-0.49431915120761066,0.05569544799883517,0.05020001937133923,0.011192839414262985,0.035143790238294115,5.0
0.33419681613197394,-0.49431915120761066,0.04991477037303446,0.044370870237660016,-0.01943446939237921,0.016832524866339144,5.0
0.33419681613197394,-0.5078382296392137,0.05569544799883517,0.052319709818510245,-0.014512223319279108,0.008509223260906133,5.0
0.347818414442567,-0.5078382296392137,0.04413409235196664,0.059208704175774965,0.01392742075127997,-0.009802041793807049,5.0
0.34327788167236906,-0.4909393668093078,0.04991477037303446,0.06291816367020102,0.007364425709204435,-0.007305050772866113,5.0
0.329656283361776,-0.4976989356059138,0.04413409235196664,0.07457646193755944,0.00955209127911374,0.003515242091439166,5.0
0.33873734890217183,-0.4976989356059138,0.04991477037303446,0.07775599680039813,-0.013965306718345236,0.008509223260906133,5.0
0.34327788167236906,-0.5010787200042167,0.05569544799883517,0.07722607378464644,-0.0046677311730788954,0.005179902507698303,5.0
0.33419681613197394,-0.5145977984358195,0.009450027387696644,0.07510638495331115,-0.015059139920212981,0.03014980819641224,5.0
0.34327788167236906,-0.5078382296392137,0.03835341512143306,0.06609770014887541,-0.006308480142054326,0.00767689313208701,5.0
0.33419681613197394,-0.49431915120761066,0.026792059079297423,0.06980715802746575,-0.0019331500445184525,-0.013963691803419102,5.0
0.33873734890217183,-0.4875595824110047,0.009450027387696644,0.05973862719152664,-0.008496144878137444,0.016000195372003582,5.0
0.3251160685115311,-0.4875595824110047,0.021011381848763836,0.05655909071285227,0.0029890960285816545,0.008509223260906133,5.0
0.33419681613197394,-0.5078382296392137,0.05569544799883517,0.05973862719152664,-0.0019331500445184525,0.03181446972301762,5.0
0.33419681613197394,-0.49431915120761066,0.021011381848763836,0.06132839462294598,-0.015606056521146853,0.0384731107535706,5.0
0.34327788167236906,-0.4976989356059138,-0.0021113302355074267,0.06079847322303001,-0.003026982621016557,0.009341553706967036,5.0
0.34327788167236906,-0.5078382296392137,0.021011381848763836,0.05390947805784743,0.009005174678179866,0.0010182514670504595,5.0
0.33419681613197394,-0.5112180140375165,-0.0021113302355074267,0.052319709818510245,0.0008014311361561275,-0.0056403905152278685,5.0
0.33873734890217183,-0.5078382296392137,0.04991477037303446,0.06609770014887541,-0.006308480142054326,0.024323497929161938,5.0
0.33419681613197394,-0.49431915120761066,-0.00789200746604104,0.045960638073038275,-0.0013862338604976726,0.009341553706967036,5.0
0.3251160685115311,-0.5010787200042167,0.015230704618230265,0.057089013728603956,0.0008014311361561275,0.019329515887280074,5.0
0.33419681613197394,-0.49431915120761066,0.026792059079297423,0.05020001937133923,0.007911342310138306,0.00767689313208701,5.0
0.33419681613197394,-0.49431915120761066,0.026792059079297423,0.04861025113200204,-0.0046677311730788954,0.019329515887280074,5.0
0.33419681613197394,-0.4875595824110047,0.03835341512143306,0.05496932328143294,-0.014512223319279108,-0.02728097640245932,5.0
0.3251160685115311,-0.4875595824110047,0.04991477037303446,0.05549924629718462,-0.013418390951237548,0.0376407799902679,5.0
0.329656283361776,-0.5010787200042167,0.04413409235196664,0.04755040590841653,-0.024356715465479326,0.023491167165859254,5.0
0.33419681613197394,-0.5078382296392137,0.04413409235196664,0.0358921076410581,-0.01232455858319599,0.024323497929161938,5.0
0.329656283361776,-0.4875595824110047,0.04413409235196664,0.05020001937133923,-0.0019331500445184525,0.0010182514670504595,5.0
0.33419681613197394,-0.5044585044025195,0.03835341512143306,0.044370870237660016,-0.008496144878137444,0.0010182514670504595,5.0
0.35689947998296245,-0.5078382296392137,0.04991477037303446,0.052849632834261924,-0.007402312510095883,-0.01812534308199828,5.0
0.347818414442567,-0.5112180140375165,0.021011381848763836,0.0533795558500136,-0.0008393175722486202,0.005179902507698303,5.0
0.347818414442567,-0.5010787200042167,0.032572736309831006,0.0533795558500136,0.01502125311932153,0.00767689313208701,5.0
0.33419681613197394,-0.49431915120761066,-0.0021113302355074267,0.03748187547643636,0.0029890960285816545,-0.003143399494286938,5.0
0.329656283361776,-0.4976989356059138,0.021011381848763836,0.03907164351379409,-0.012871475184129863,0.011838544093424408,5.0
0.33419681613197394,-0.5010787200042167,0.032572736309831006,0.04013148888886419,-0.007402312510095883,0.011006213964605282,5.0
0.347818414442567,-0.4976989356059138,0.04991477037303446,0.05390947805784743,-0.053343275303146094,-0.018957673845300966,5.0
0.347818414442567,-0.5416360144606343,0.08459883612783867,0.05973862719152664,-0.03365429101074567,-0.030610296917735813,5.0
0.3251160685115311,-0.5517753676555432,-0.013672684696574604,0.07563630796906282,0.0046298447891005385,-0.062238843081829635,5.0
0.30695393743074045,-0.5247371516307284,-0.031014716388175382,0.06291816367020102,0.016662001254470777,-0.02062233283397209,5.0
0.347818414442567,-0.49431915120761066,0.021011381848763836,0.06662762154879137,0.039632483484822074,0.0026829118833095974,5.0
0.347818414442567,-0.49431915120761066,0.032572736309831006,0.04755040590841653,0.0407263166866898,-0.03560427895961767,5.0
0.3251160685115311,-0.4808000136143987,0.06725680325043658,0.04172125687572705,-0.02490363206641319,-0.03643660718498612,5.0
0.33873734890217183,-0.4774202883777049,0.009450027387696644,0.02529365378936732,-0.035295040813547285,-0.0048080597519251835,5.0
0.35235894721276456,-0.47066071958109884,0.03835341512143306,0.025823576805119004,-0.003026982621016557,0.03014980819641224,5.0
0.33873734890217183,-0.46728093518279584,0.04991477037303446,0.014165278537760576,-0.01232455858319599,0.07925729023812546,5.0
0.33419681613197394,-0.47066071958109884,0.04413409235196664,0.009925896027582832,-0.022715967330330076,0.08258661329133618,5.0
0.33419681613197394,-0.47066071958109884,0.04413409235196664,0.027943267252290016,-0.018887552791445345,0.039305441516873284,5.0
0.33419681613197394,-0.5348764456640285,0.021011381848763836,0.05655909071285227,-0.030372794740447163,-0.007305050772866113,5.0
0.33873734890217183,-0.5416360144606343,0.03835341512143306,0.05814885976010733,-0.03146662794231491,-0.043095250753473355,5.0
0.33873734890217183,-0.5416360144606343,0.03835341512143306,0.07775599680039813,-0.0046677311730788954,-0.025616314875853943,5.0
0.347818414442567,-0.5010787200042167,0.04991477037303446,0.07616623098481451,0.006270593341162877,-0.01812534308199828,5.0
0.347818414442567,-0.5010787200042167,0.04991477037303446,0.06874731199596239,-0.0046677311730788954,0.01766485562964183,5.0
0.3205755357413339,-0.47066071958109884,0.021011381848763836,0.06715754456454304,0.004082928605079759,0.028485149207741117,5.0
0.3205755357413339,-0.48417979801270183,0.032572736309831006,0.060268550207278344,0.017208917855404647,0.003515242091439166,5.0
0.3205755357413339,-0.5112180140375165,0.03835341512143306,0.059208704175774965,0.01392742075127997,-0.024783984112551272,5.0
0.329656283361776,-0.5078382296392137,0.015230704618230265,0.06503785411737203,-0.0035738988050373352,-0.030610296917735813,5.0
0.347818414442567,-0.5010787200042167,0.009450027387696644,0.06821738898021072,0.023224997130372498,-0.01812534308199828,5.0
0.329656283361776,-0.5382562300623316,0.021011381848763836,0.07298669289030442,0.0046298447891005385,-0.01979000460860365,5.0
0.33419681613197394,-0.5247371516307284,0.03835341512143306,0.07086700405896912,-0.012871475184129863,-0.008137380267201677,5.0
0.34327788167236906,-0.4976989356059138,0.04991477037303446,0.07510638495331115,0.036350987214523574,0.035976121001596785,5.0
0.3205755357413339,-0.48417979801270183,0.04991477037303446,0.057089013728603956,0.012833588383238413,0.06594000817701946,5.0
0.3114944702009384,-0.48417979801270183,0.06725680325043658,0.04331102481209504,-0.0380296204829119,0.07842495947482275,5.0
0.329656283361776,-0.5145977984358195,0.032572736309831006,0.051789787610676416,-0.0008393175722486202,0.02265883640255657,5.0
0.33419681613197394,-0.5179775828341227,0.021011381848763836,0.05549924629718462,-0.0024800662285392318,-0.028945635391130434,5.0
0.3705210782935563,-0.5179775828341227,-0.02523403915764176,0.06397800808586866,-0.012871475184129863,-0.03976592770026261,5.0
0.37506161106375385,-0.5314967204273346,-0.0021113302355074267,0.06927723501171405,0.0046298447891005385,-0.021454663597274774,5.0
0.347818414442567,-0.5179775828341227,0.009450027387696644,0.062388240654449346,0.00955209127911374,-0.011466702051445293,5.0
0.3251160685115311,-0.49431915120761066,0.0036693469950261513,0.07457646193755944,0.01994349919242163,0.0326468004863203,5.0
0.31603500297113596,-0.5078382296392137,0.04991477037303446,0.05814885976010733,-0.011777641982262119,0.056784374856558434,5.0
0.31603500297113596,-0.4808000136143987,0.032572736309831006,0.05496932328143294,-0.030372794740447163,0.055119713329953066,5.0
0.33419681613197394,-0.4976989356059138,0.021011381848763836,0.06450793110162036,-0.0024800662285392318,0.01766485562964183,5.0
0.3251160685115311,-0.5010787200042167,0.021011381848763836,0.0782859198161498,0.014474336518387658,-0.022286994360577458,5.0
0.35689947998296245,-0.4875595824110047,0.05569544799883517,0.07404653892180778,-0.006308480142054326,-0.021454663597274774,5.0
0.35235894721276456,-0.49431915120761066,0.05569544799883517,0.05973862719152664,-0.021622134128462325,0.009341553706967036,5.0
0.3659805455233576,-0.5078382296392137,0.06725680325043658,0.04914017414775372,-0.0024800662285392318,-0.008137380267201677,5.0
0.347818414442567,-0.49431915120761066,0.07303748087623728,0.05655909071285227,0.020490415793355515,-0.007305050772866113,5.0
0.33873734890217183,-0.49431915120761066,0.05569544799883517,0.05072994238709091,-0.023262883931263956,0.04596408254742626,5.0
0.33873734890217183,-0.48417979801270183,0.04991477037303446,0.052319709818510245,-0.05060869563378147,0.04013777228017598,5.0
0.33419681613197394,-0.4774202883777049,0.04991477037303446,0.05443940026568126,-0.0008393175722486202,0.039305441516873284,5.0
0.329656283361776,-0.4774202883777049,0.06725680325043658,0.062388240654449346,0.016662001254470777,0.020161846650582762,5.0
0.329656283361776,-0.4774202883777049,0.06725680325043658,0.052319709818510245,0.0035360124210589805,0.04346709279545247,5.0
0.347818414442567,-0.4808000136143987,0.032572736309831006,0.04225117958850953,-0.011230726215154432,0.025988156917833065,5.0
0.3659805455233576,-0.5145977984358195,0.032572736309831006,0.052849632834261924,-0.0046677311730788954,-0.0014787392366486889,5.0
0.35689947998296245,-0.5078382296392137,0.032572736309831006,0.052849632834261924,-0.010683809614220562,-0.002311069365467812,5.0
0.34327788167236906,-0.4808000136143987,0.032572736309831006,0.044370870237660016,0.007364425709204435,-0.012299031545780858,5.0
0.347818414442567,-0.4909393668093078,0.04991477037303446,0.05020001937133923,0.002442179844560876,0.021826506908221008,5.0
0.329656283361776,-0.4808000136143987,0.05569544799883517,0.0358921076410581,0.005176760973121319,0.01766485562964183,5.0
0.329656283361776,-0.49431915120761066,0.05569544799883517,0.024233809373699667,-0.008496144878137444,0.013503204351062652,5.0
0.3251160685115311,-0.5078382296392137,0.032572736309831006,0.026883422836622362,-0.011230726215154432,0.01766485562964183,5.0
0.347818414442567,-0.49431915120761066,0.026792059079297423,0.025823576805119004,-0.017793721257229975,0.02265883640255657,5.0
0.35235894721276456,-0.5010787200042167,0.021011381848763836,0.03748187547643636,0.009005174678179866,0.01766485562964183,5.0
0.3251160685115311,-0.5179775828341227,0.026792059079297423,0.024233809373699667,-0.0172468046562961,0.0026829118833095974,5.0
0.3251160685115311,-0.5179775828341227,0.026792059079297423,0.03271257197030158,-0.007949228277203572,-0.00647272000956343,5.0
0.34327788167236906,-0.5078382296392137,0.03835341512143306,0.05125986459492474,0.0035360124210589805,0.011838544093424408,5.0
0.33419681613197394,-0.5078382296392137,0.08459883612783867,0.052319709818510245,0.001895263660540096,0.006844563003267885,5.0
0.33419681613197394,-0.5078382296392137,0.08459883612783867,0.033772417193887086,0.005723677157142099,0.00767689313208701,5.0
0.33419681613197394,-0.4909393668093078,0.04991477037303446,0.0321826489545499,-0.011777641982262119,0.005179902507698303,5.0
0.33873734890217183,-0.4909393668093078,0.021011381848763836,0.01310543412209291,-0.003026982621016557,0.04097010050554439,5.0
0.33873734890217183,-0.4909393668093078,0.021011381848763836,0.016284968984931585,-0.0035738988050373352,0.027652818444438433,5.0
0.329656283361776,-0.5044585044025195,0.03835341512143306,0.03165272593879822,-0.005761563541120453,0.010173883835786159,5.0
0.347818414442567,-0.5010787200042167,0.0036693469950261513,0.019464505463605966,-0.018887552791445345,0.016000195372003582,5.0
0.347818414442567,-0.5010787200042167,0.0036693469950261513,0.03695195286464361,-0.017793721257229975,0.003515242091439166,5.0
0.347818414442567,-0.5179775828341227,-0.0021113302355074267,0.0284731902680417,-0.012871475184129863,0.020161846650582762,5.0
0.3251160685115311,-0.5078382296392137,-0.00789200746604104,0.04755040590841653,-0.011777641982262119,-0.0014787392366486889,5.0
0.3251160685115311,-0.5078382296392137,-0.00789200746604104,0.03907164351379409,0.001895263660540096,0.018497186392944516,5.0
0.33873734890217183,-0.4976989356059138,0.021011381848763836,0.04278110220030229,-0.006308480142054326,0.018497186392944516,5.0
0.33873734890217183,-0.4976989356059138,0.03835341512143306,0.03695195286464361,-0.0041208149890581145,0.02682048768113575,5.0
0.33873734890217183,-0.4976989356059138,0.03835341512143306,0.02741334504445619,-0.008496144878137444,0.02265883640255657,5.0
0.33873734890217183,-0.5010787200042167,0.009450027387696644,0.023703886357947988,-0.003026982621016557,0.013503204351062652,5.0
0.34327788167236906,-0.5078382296392137,0.009450027387696644,0.0284731902680417,-0.010136893847112874,0.006012232715827871,5.0
0.33873734890217183,-0.5010787200042167,0.021011381848763836,0.012575511106341235,-0.005761563541120453,0.021826506908221008,5.0
0.33873734890217183,-0.49431915120761066,0.009450027387696644,0.02211411892652865,-0.0041208149890581145,0.0326468004863203,5.0
0.33873734890217183,-0.5044585044025195,-0.00789200746604104,0.02741334504445619,-0.011777641982262119,0.016832524866339144,5.0
0.33419681613197394,-0.5145977984358195,0.032572736309831006,0.03324249417813541,-0.0019331500445184525,0.016000195372003582,5.0
0.33419681613197394,-0.5179775828341227,-0.013672684696574604,0.03536218502926535,0.004082928605079759,-0.003143399494286938,5.0
0.329656283361776,-0.5112180140375165,-0.01945336192710818,0.03695195286464361,-0.016699888055362225,-0.01979000460860365,5.0
0.33419681613197394,-0.5112180140375165,-0.01945336192710818,0.052319709818510245,0.012833588383238413,-0.0014787392366486889,5.0
0.34327788167236906,-0.5078382296392137,-0.0021113302355074267,0.04172125687572705,-0.011230726215154432,-0.02062233283397209,5.0
0.347818414442567,-0.5078382296392137,0.04991477037303446,0.05020001937133923,-0.009589977246179,0.03347912871168874,5.0
0.33419681613197394,-0.5078382296392137,0.021011381848763836,0.04543071546124552,0.004082928605079759,0.00767689313208701,5.0
0.33419681613197394,-0.5010787200042167,0.021011381848763836,0.04278110220030229,-0.018887552791445345,0.014335535114365337,5.0
0.33873734890217183,-0.5044585044025195,0.015230704618230265,0.033772417193887086,-0.011777641982262119,0.02682048768113575,5.0
0.33419681613197394,-0.5010787200042167,0.04991477037303446,0.04861025113200204,0.0029890960285816545,0.03014980819641224,5.0
0.3205755357413339,-0.5078382296392137,0.04991477037303446,0.034832262417472594,-0.013418390951237548,0.00767689313208701,5.0
0.33419681613197394,-0.5247371516307284,0.015230704618230265,0.05072994238709091,-0.013965306718345236,0.016000195372003582,5.0
0.33873734890217183,-0.5247371516307284,0.021011381848763836,0.046490560684831025,-0.006855395909162012,0.014335535114365337,5.0
0.347818414442567,-0.5145977984358195,-0.031014716388175382,0.05390947805784743,-0.010683809614220562,0.015167864608700898,5.0
0.33419681613197394,-0.5044585044025195,-0.013672684696574604,0.05443940026568126,-0.0024800662285392318,0.0001859213382313367,5.0
0.3251160685115311,-0.5044585044025195,0.009450027387696644,0.06609770014887541,0.005723677157142099,0.006012232715827871,5.0
0.347818414442567,-0.5112180140375165,-0.031014716388175382,0.0533795558500136,0.0035360124210589805,0.016832524866339144,5.0
0.34327788167236906,-0.5112180140375165,-0.0021113302355074267,0.06556777713312373,-0.0041208149890581145,-0.008137380267201677,5.0
0.347818414442567,-0.5044585044025195,0.009450027387696644,0.06450793110162036,0.007911342310138306,-0.010634371288142605,5.0
0.33873734890217183,-0.5010787200042167,0.03835341512143306,0.06927723501171405,-0.0024800662285392318,-0.0048080597519251835,5.0
0.347818414442567,-0.5010787200042167,-0.013672684696574604,0.05496932328143294,0.011739756015196855,0.020161846650582762,5.0
0.34327788167236906,-0.49431915120761066,-0.013672684696574604,0.045960638073038275,0.0046298447891005385,-0.002311069365467812,5.0
0.329656283361776,-0.5010787200042167,-0.013672684696574604,0.05496932328143294,0.010645923647155296,0.011838544093424408,5.0
0.3251160685115311,-0.5010787200042167,0.021011381848763836,0.04914017414775372,-0.0035738988050373352,0.010173883835786159,5.0
0.329656283361776,-0.5010787200042167,0.015230704618230265,0.04543071546124552,-0.005214647357099675,-0.009802041793807049,5.0
0.33419681613197394,-0.4976989356059138,0.032572736309831006,0.039601566226576575,0.0035360124210589805,0.023491167165859254,5.0
0.33419681613197394,-0.49431915120761066,0.021011381848763836,0.04967009716350541,0.0035360124210589805,-0.002311069365467812,5.0
0.33419681613197394,-0.5078382296392137,-0.0021113302355074267,0.03801179829020858,-0.008496144878137444,-0.007305050772866113,5.0
0.34327788167236906,-0.5112180140375165,0.015230704618230265,0.03907164351379409,0.010099007046221423,-0.00647272000956343,5.0
0.34327788167236906,-0.5078382296392137,0.03835341512143306,0.05125986459492474,-0.0013862338604976726,0.00767689313208701,5.0
0.33419681613197394,-0.5044585044025195,0.009450027387696644,0.04278110220030229,-0.0041208149890581145,-0.0056403905152278685,5.0
0.33873734890217183,-0.5010787200042167,0.009450027387696644,0.05496932328143294,-0.0024800662285392318,0.013503204351062652,5.0
0.33419681613197394,-0.5112180140375165,-0.0021113302355074267,0.05655909071285227,0.011192839414262985,0.021826506908221008,5.0
