acc_x,acc_y,acc_z,gyro_x,gyro_y,gyro_z,activity
-0.9022394064081732,0.27382183093934254,1.9553592294513071,0.07993714559997596,-0.10455815552200667,0.1561083843221103,0.0
-0.9343267814448284,0.315700147554013,1.9811133153556664,-0.0031548451434185547,-0.010975134145758687,0.11502223412938448,0.0
-0.9450226147294384,0.3366393058613481,1.9553592294513071,-0.04417494468128697,0.2078067854784514,0.08626192231289978,0.0
-0.959283725775585,0.3104653465230738,1.9811133153556664,-0.031027475071536907,0.2558629314342498,0.06297976830982961,0.0
-0.969979559060195,0.3052305684003453,1.9753901851546978,-0.051011625799510574,0.2640830746525518,0.09516392040772766,0.0
-0.969979559060195,0.2842914100930101,1.9896980106571194,0.003681835974805045,0.20211593014801796,0.11570699550409055,0.0
-0.994936378573777,0.2528826726320073,1.978251750255182,0.06836737632023919,0.21096838376994057,0.019839300585102613,0.0
-1.0198933229045333,0.2947609892466777,1.9639439247527604,0.10938747265097591,0.17872016757373932,0.020524070311779417,0.0
-1.0198933229045333,0.279056609062071,1.9896980106571194,0.10149899345083124,0.0320224688112845,0.0807837644994853,0.0
-1.0127627673814603,0.279056609062071,1.9753901851546978,0.036813454508517196,0.020008432322334922,0.10338114877587866,0.0
-1.0341544339506799,0.2842914100930101,1.9324669090090834,0.05995299647556813,0.15975063952265306,0.08968577094628385,0.0
-1.041284927065166,0.26858702990840344,1.983974880456151,0.12358674034264705,0.08829874641703829,0.10269637904920186,0.0
-1.0127627673814603,0.2842914100930101,1.9925595757576038,0.11254286689673913,0.12117926530462898,0.13351100839768767,0.0
-1.0091974896199234,0.2895261882157386,1.978251750255182,0.07678175456134441,0.06427066958302356,0.14789114760198857,0.0
-1.0198933229045333,0.2947609892466777,1.9725286200542134,0.10938747265097591,0.05415358744162883,0.14378254594586912,0.0
-1.0377196493036296,0.2895261882157386,1.9725286200542134,0.2045751349221994,0.07122616500127578,0.13419576977239378,0.0
-1.0341544339506799,0.3052305684003453,1.983974880456151,0.24980242678775205,-0.02488612305420533,0.13419576977239378,0.0
-1.02345860066607,0.3418740839840766,1.978251750255182,0.21298951957756793,-0.010342816993935959,0.1424130064925155,0.0
-1.02345860066607,0.3418740839840766,1.978251750255182,0.1893240691486072,0.09082801116821365,0.12186992304418186,0.0
-1.0270238784276067,0.3366393058613481,1.9582207945517915,0.15882195042994957,0.09525423797917495,0.12118515331750507,0.0
-1.0198933229045333,0.3261697267076805,1.9553592294513071,0.12148314417880489,0.06743226016228163,0.14378254594586912,0.0
-1.0555460381113126,0.315700147554013,1.983974880456151,0.11990544705592328,-0.00022573364750511093,0.17185807968370628,0.0
-1.0555460381113126,0.315700147554013,1.983974880456151,0.10938747265097591,-0.05334041898695026,0.18555345751330107,0.0
-1.0555460381113126,0.3261697267076805,1.9725286200542134,0.1172759518511206,0.044668823416085704,0.2239005455032612,0.0
-1.0555460381113126,0.3261697267076805,1.9725286200542134,0.14251908657443624,-0.11214596519999495,0.23006346469138164,0.0
-1.0448502048267025,0.32093492567674137,1.9668054898532448,0.23297367030554167,-0.08875021033794739,0.18555345751330107,0.0
-1.0448502048267025,0.32093492567674137,1.9668054898532448,0.28030455833493656,-0.0969703381317873,0.18076007777853412,0.0
-1.0519807603497762,0.3366393058613481,1.969667054953729,0.28503764328931797,-0.08748557410624418,0.15953222460352365,0.0
-1.0270238784276067,0.3418740839840766,1.978251750255182,0.24822472325060702,-0.014136722796958986,0.15131500458734334,0.0
-1.0270238784276067,0.315700147554013,1.9639439247527604,0.14882987506596268,-0.025518441170056957,0.18623823559194858,0.0
-1.0020669340968504,0.2999957673694062,1.9553592294513071,0.13147521954279173,0.06996152876957255,0.1294023900376268,0.0
-1.0377196493036296,0.3366393058613481,1.978251750255182,0.10675797744617321,-0.010342816993935959,0.1561083843221103,0.0
-1.0662418713959225,0.3418740839840766,1.9610823596522757,0.08835152384108116,-0.021092218215211202,0.20678131068831157,0.0
-1.0198933229045333,0.3523436631377442,1.9238822137076304,0.11306876593769967,0.09525423797917495,0.16090176405687728,0.0
-0.9878059478678779,0.3418740839840766,1.983974880456151,0.13042342146087066,0.21033605794185786,0.11707653495744419,0.0
-1.0448502048267025,0.3523436631377442,1.9982827059585724,0.11096516977385752,0.1926311661224749,0.17596669804376713,0.0
-1.0127627673814603,0.36281324229141176,1.9982827059585724,0.151459363856502,0.2609214763610626,0.10269637904920186,0.0
-1.0091974896199234,0.37328284435329007,2.006867401260026,0.11780185089208113,0.2394226758465699,0.08694669203957661,0.0
-1.0341544339506799,0.39945678078335367,2.0183136616619635,0.11937954801496274,0.12434085588388705,0.10269637904920186,0.0
-1.0091974896199234,0.37328284435329007,1.9753901851546978,0.1146464630605813,0.10790059258397615,0.07462084531136473,0.0
-1.0270238784276067,0.38375242350695754,2.0154520965614786,0.1898499746038311,0.04213955095267926,0.10338114877587866,0.0
-1.0555460381113126,0.3785176224760185,2.0268983569634162,0.27925274742448875,-0.0033873220576981894,0.1492606870553422,0.0
-1.02345860066607,0.36281324229141176,1.9954211408580877,0.2960815167352259,-0.100764246826897,0.12050038359082824,0.0
-0.994936378573777,0.3942220026606252,2.0040058361595414,0.41966769514700153,-0.3227077666706541,0.03764330095074364,0.0
-1.0020669340968504,0.3942220026606252,2.0297599220639007,0.5816445227916865,-0.7811381153105241,0.19650977314013007,0.0
-1.0163280451429966,0.41516116096796063,1.969667054953729,0.5369431107243042,-0.5933397351615988,0.21910716576849412,0.0
-1.0020669340968504,0.4413350973980241,1.983974880456151,0.4364964644577388,-0.5775317591286152,0.32113779657954405,0.0
-0.969979559060195,0.45180469945990215,1.9725286200542134,0.3302649223263439,-0.3884687890213733,0.3677021045856845,0.0
-0.9521531702525116,0.4570394546744201,1.969667054953729,0.3655001388279098,-0.06661909170760308,0.30881192479542,0.0
-0.9343267814448284,0.46227425570535946,1.9496360992503385,0.29502970582477805,-0.19308263775561507,0.2841602480429379,0.0
-0.9664142812986581,0.43086554115256726,1.9038512580042397,0.41861590989360725,-0.39289502354456557,0.16980377885564657,0.0
-1.005632211858387,0.4570394546744201,1.9009896929037553,0.5516682582141458,-0.43399566251376503,0.1109136157693236,0.0
-0.9557184480140484,0.4570394546744201,1.9238822137076304,0.5416762213357393,-0.4807871876623224,0.09584869013440447,0.0
-0.9450226147294384,0.4884482150436337,1.898128127803271,0.331842625863489,-0.3694992609702869,0.07804468559277807,0.0
-0.920065795215856,0.4884482150436337,1.8666509116979428,0.17249531266639676,-0.181700911670286,0.10269637904920186,0.0
-0.9093699619312463,0.5198569295964259,1.8895434325018179,0.05259041471281813,-0.062192864896641775,0.18349915668524136,0.0
-0.9165005174543195,0.5198569295964259,1.8695124767984275,-0.0131469205074054,0.09778351044258139,0.16501038241693816,0.0
-0.891543573123563,0.530326531658304,1.883820302300849,-0.05784830691773417,0.29127273049747787,0.08900100121960705,0.0
-0.891543573123563,0.514622174381908,1.8952665627027867,-0.03733826356306338,0.33932887645327636,-0.02877931660106817,0.0
-0.9058046841697095,0.4884482150436337,1.9324669090090834,-0.022613096830431688,0.4575722792829863,-0.14587486469506658,0.0
-0.8951088508850998,0.46227425570535946,1.9553592294513071,0.07204866639983126,0.3481813146507367,-0.23078625233919622,0.0
-0.8344992537561513,0.46750905673629845,1.938190039210052,0.060478895516528665,0.0320224688112845,-0.3259691858834781,0.0
-0.8665867536099808,0.48321341401269435,1.9410516043105364,-0.0036807441843791045,0.32541789332900295,-0.44306471727353497,0.0
-0.8665867536099808,0.48321341401269435,1.9410516043105364,0.052064517275423446,0.49614364578877923,-0.44306471727353497,0.0
-0.9771101145832679,0.514622174381908,1.9410516043105364,0.10833567456905484,0.36588622189458186,-0.33692550151030715,0.0
-1.0020669340968504,0.5198569295964259,1.9410516043105364,0.18090969732176534,0.1142237660302612,-0.18353716625440838,0.0
-0.9985016563353138,0.5250917306273649,1.9238822137076304,0.17249531266639676,0.06932921065372094,-0.1171145528785819,0.0
-0.994936378573777,0.5512656899656392,1.929605343908599,0.12358674034264705,0.17619091053479505,-0.07808270351391577,0.0
-0.9806753923448045,0.5565004909965783,1.9238822137076304,0.16565863154817315,0.050359682602634695,-0.013714392793142618,0.0
-0.9806753923448045,0.5931440065803094,1.9353284741095675,0.20878232724988371,-0.02868002982125725,0.007513453856890719,0.0
-0.9878059478678779,0.5774396493039132,1.9353284741095675,0.2634757890241994,0.15848600329094983,-0.006866699963358944,0.0
-0.9985016563353138,0.47797861298175526,1.8723740418989117,0.3081771754345282,0.044668823416085704,-0.0013885463259298042,0.0
-0.9985016563353138,0.47797861298175526,1.8723740418989117,-0.20509995500126085,-1.8143451608134151,1.6139821719404108,0.0
-0.9414573369679019,0.6088483638567055,1.7064036667941207,-0.3044947903573784,-1.0163602384648542,0.7895199889555377,0.0
-0.9022394064081732,0.6350223231949796,1.8609277814969745,0.40652022553725137,-0.6135739148688505,0.8196498235214346,0.0
-1.1518083504470402,0.3418740839840766,2.0297599220639007,0.3176433453432909,-1.5620504408188605,2.080994841566992,0.0
-1.1268514061162838,0.7030745991479247,1.929605343908599,0.2450693418333707,-1.4261021924431543,2.179601548576922,0.0
-0.9878059478678779,0.7030745991479247,1.8952665627027867,0.23139596676839663,-0.9436437091275361,1.8776183413195984,0.0
-0.6918885177462085,0.49891777128909065,1.7207114922965427,0.05469400927309444,-0.6919812686876776,1.313368420616734,0.0
-0.6883232399846724,0.4361002963670851,1.649172464965259,-0.03996775235360266,-0.6647916436916758,1.2236637117016322,0.0
-0.8594561980869075,0.5460308889346999,1.7550501733215296,-0.48487803953583847,-0.6344403741307982,1.6756114306373824,0.0
-0.9842406701063414,0.5093873733509687,1.795111984547485,-0.7004965308729182,-0.8696625589829772,2.431596540730925,0.0
-0.7489328371136204,0.3680480433223509,1.7407423478191077,-0.7793812972173115,-1.3559148430224695,2.999955230129325,0.0
-0.6063219762865037,0.200534765409564,1.6692034206686497,-0.887716461169602,-1.4204113062637964,2.9253153382735215,0.0
-0.6491051846077692,0.09060417856900159,1.7207114922965427,-0.7557158467883505,-1.6417224771427774,2.7513840114409676,0.0
-0.791716045434886,0.16912602794856124,1.8265892006528128,-0.66000231113322,-1.6126358900869897,2.9184675240791638,0.0
-0.7703243788656661,0.16912602794856124,1.8380354610547505,-0.7962100665280487,-1.8023311089000034,3.4970976675060363,0.0
-0.7703243788656661,0.16912602794856124,1.8380354610547505,-1.1007054124020352,-2.158958248599994,3.897002853806466,0.0
-0.3282309349725178,-0.21301363406851667,1.8065582449494226,-0.9881631074361674,-2.66923869816416,3.755255612256043,0.0
-0.18562007414540097,-0.4381095973264753,1.8065582449494226,-0.0688921803636421,-2.1210192541956707,2.515138430681555,0.0
-0.317535101687908,-0.4538139546028716,1.8866818674013335,0.6326566463794345,-1.4988186600826234,2.1597432348552648,0.0
-0.3745794210553198,-0.35958776512807356,1.9439131694110208,1.16171078652962,-1.4159851025895285,1.98033368339353,0.0
-0.3496224767245633,-0.4485791993883538,1.835173895954266,1.3441976062148686,-1.7024250162645325,2.003615904212366,0.0
-0.3496224767245633,-0.4485791993883538,1.835173895954266,1.1837985334214358,-0.5623561860460252,0.6936522606286668,0.0
0.04612248108578301,-1.322789138898335,1.4545864388556249,1.4772499545354072,-1.7675536356648578,0.032165147313314504,0.0
0.021165536755026807,-0.8202492478894481,1.4746173945590153,0.7809601117876726,-1.5241113230188392,0.21157469042307853,0.0
0.04968775884731982,-0.8778319675969357,1.471755829458531,-0.7604489573997857,-1.2806690103728204,0.40467961971440813,0.0
0.04968775884731982,-0.8778319675969357,1.471755829458531,-1.1911599704760871,-1.750481100522482,0.6731091521244211,0.0
0.17803750862829004,-0.7783709312747774,1.5032329453830335,-1.3568181234788128,-2.2557029434619853,2.9047721629535097,0.0
0.19586389743597293,-1.108162754794044,1.3744628164037138,-0.4354435681711283,-3.7043427674246865,3.6532249981489344,0.0
0.12455834220524055,-1.3070847358055175,1.457448003956109,0.006311331179607735,-3.5892609783109273,5.293932093990677,0.0
0.2136902862436561,-1.3018499347745787,1.2228001666205193,-0.2203509951177995,-4.496004647434891,7.001062078823278,0.0
0.3990842305748639,-1.626406957262906,0.9395058728479335,-1.0113025882672704,-7.602581167534464,6.72646959381726,0.0
0.3883883972902543,-1.7049287894613077,0.9080287068330183,-1.9495059128856917,-10.757214388870477,6.012939755771262,0.0
0.1887333419128999,-1.6578155801828556,1.0453835311137913,-2.0178727240679275,-9.766372603144026,6.164273723383336,0.0
0.14951528653599705,-1.5688241459225756,1.0911684725407151,-1.7486126203525614,-8.853938418027798,5.323377534668578,0.0
0.16021111982060687,-1.375136965942041,0.8937208813305967,-1.199048488161812,-9.98009592578386,3.956577928602967,0.0
-0.14283686582413552,-1.3332586493273708,1.0053217198878355,-0.5527189837484311,-8.623142066662796,2.9657166936836585,0.0
-0.31040454616483465,-1.4170152825567117,1.0711375168373247,-0.4780413584176149,-4.881086094635973,2.5240404287763822,0.0
-0.21057701847615745,-1.4170152825567117,0.6504883987839664,-0.8072539399739564,-3.613289082137751,2.4062602696431514,0.0
-0.2925781573571515,-1.4641284002023212,0.24987012373056958,-1.4383323272996382,-5.451436803767196,3.4032843235269308,0.0
-0.3389267682571277,-1.4117805731586148,0.14685399612803768,-1.6413292929677716,-6.470100370648647,3.1677237379974055,0.0
-0.24266439351281302,-0.8464232530441435,0.24987012373056958,-2.015769050932926,-5.708789883595017,0.5067102672293995,0.0
-0.12501047701645265,-1.0767539486084095,0.2670394767656662,-2.677349723748114,-4.401156791236988,-1.396948303432589,0.0
-0.14283686582413552,-1.8410332497343544,0.2527316763084508,-2.0178727240679275,-2.6686064186094636,-0.4238911983344672,0.0
0.24934281422467425,-1.809624626814405,0.03811475084714019,-1.2279729161718516,-2.612962362716672,-1.0415530407905331,0.0
2.256590199820221,-4.416549858985847,0.37864029027769874,-0.3297379443234842,0.9982039058612554,-2.432319395194507,0.0
1.6897120342732928,-3.401000658171879,0.08676125580922339,-2.391260850722008,-0.7741826083239254,-0.7498413543774497,0.0
0.591608730429145,-2.8879912567339563,-0.45407342584400984,-3.078084574875087,-2.0995205153790275,-0.5382476508178169,0.0
0.0924710919857592,-2.296460023097632,-0.37108818820120154,-2.4754044920192664,-1.9654691056674092,-1.0504550388853608,0.0
0.17803750862829004,-2.0923031494223765,-0.39684222401514807,-2.3318341885365705,-1.539919299051823,-0.5533125681007655,0.0
0.3384745086287419,-2.1237119556080115,-0.44548873054255667,-2.2014113803206787,-3.3439217036051216,1.282553791268248,0.0
-0.2640560600820327,-2.4273298656054245,-1.1294013369363487,-2.084661934341233,-6.975954616538545,4.437285825723671,0.0
0.1887333419128999,-2.500616896772887,-0.5170277077834277,0.16723633508531816,-0.8917937007500145,4.687226767608737,0.0
-0.057270324364430726,-1.8410332497343544,-0.336749457085802,0.7194299304095528,2.1136123526982424,3.424512226813765,0.0
-0.7132800594982543,-1.437954486680468,-0.8375222977718971,-0.5863764710557984,-0.03563552331145169,1.3866387229073578,0.0
-0.9414573369679019,-0.7469622167219856,-0.7173368140036178,-0.25032723403828666,1.945415872701873,-2.2426383897042967,0.0
-1.1304166838778207,-0.24965717256045863,-0.7631218055209549,-0.7236360630181282,1.8644791538728664,-6.099943412052765,0.0
-1.1304166838778207,-0.24965717256045863,-0.7631218055209549,-1.4967071529175748,0.7661433038761035,-8.448017259712971,0.0
0.2636039252708209,-1.2599716181599083,-0.44548873054255667,-0.37812060477774667,2.403846190492819,-6.962753033810367,0.0
0.8625693410372316,-2.1080075525151942,-0.93195374572623,-0.47698957316422064,1.179679058578278,-4.750948069439872,0.0
0.8625693410372316,-2.1080075525151942,-0.93195374572623,-0.7146957600790089,0.5505229574786317,-4.16410092314806,0.0
0.9909190908182012,-1.7991550247525268,-0.7430908498175642,-0.8088316435111015,1.1246674056358807,-4.924194935568666,0.0
0.9909190908182012,-1.7991550247525268,-0.7430908498175642,-1.4099338688874565,0.44176433409892696,-4.5229202933345904,0.0
0.5452603691635176,-1.0819887496393483,-0.8060451818473948,-0.6557951188055359,0.573286440498214,-3.7039359340843037,0.0
0.5452603691635176,-1.0819887496393483,-0.8060451818473948,-0.10623098661478673,1.0399368860829998,-3.474538167519251,0.0
0.40621478609793776,-0.9458841977334592,-0.7602602404204706,0.32921313707294964,0.4569399688793658,-5.04950763686308,0.0
-0.11787992149337932,-1.3018499347745787,-0.6858596980791154,0.16828813316723923,0.7288365890264761,-4.394183417679937,0.0
-0.11787992149337932,-1.3018499347745787,-0.6858596980791154,-0.6926080131871932,1.2321614699061931,-0.8368070846094926,0.0
1.0657896741761237,-2.1446511597317675,-0.15074815132282715,-0.012095122425484318,-0.06535445547589985,-0.5450953313806436,0.0
0.17803750862829004,-1.0034669174409467,-0.49413523706996526,0.011570316778515565,-0.26579915166847085,-1.6222374349336408,0.0
0.17803750862829004,-1.0034669174409467,-0.49413523706996526,0.24349163829622567,0.5492583366713906,-1.4996636455065206,0.0
-0.22840328246666639,-0.42764004108101844,-0.6286284962502536,0.04838322559226552,1.0222319479902302,-2.1652594523496704,0.0
0.12812361996677707,0.043491067366326346,-0.7230599442045865,-0.47698957316422064,0.733262792700744,-3.231445307091605,0.0
0.8768304520833793,-0.34911818597440625,-0.44262716544207237,0.3839065860187385,1.242278559759819,-0.24722070907549842,0.0
0.7876987576793114,-0.34911818597440625,-0.6572440971646845,-0.15671726888994483,-0.3511620433228212,-1.2586249689793458,0.0
0.6700448411829507,-0.0926134738013393,-0.45693494085408143,-0.02787208724003707,-0.7431989975105028,-1.226440750065682,0.0
0.3242136472169432,-0.050735151459616275,-0.4483502956430411,-0.09518711316887882,-1.2635964752304447,-2.0132406231392426,0.0
0.3242136472169432,-0.2182484350994558,-0.45407342584400984,-0.13305181846098402,-1.7814646496380555,-1.68729046709626,0.0
0.2671692030323574,-0.014091621558253366,-0.5198892728839116,-0.44648744161703624,-2.61422716861746,-1.592107533551978,0.0
-0.043009338135458305,0.2947609892466777,-0.29382610580456864,-0.5574520430457589,-1.8655628896362406,-1.2510924268181645,0.0
-0.043009338135458305,0.2947609892466777,-0.29382610580456864,0.04838322559226552,-1.4343223202369941,-1.2209626590680334,0.0
0.8875262853679883,-0.008856831981419535,-0.9348153108267143,0.29134843178084435,-0.7684917221445673,-1.1353664515854025,0.0
0.777002924394703,0.3052305684003453,-1.103647351212815,0.14672627890212056,2.100966021230136,-0.20476501942941883,0.0
0.6771753967060243,0.3523436631377442,-1.243863740594072,-0.10833458277862888,3.643821175044646,0.08283807367951572,0.0
0.07820998093961255,0.36281324229141176,-1.158016887760367,0.031028568866420164,9.358076031621138,-0.025355470055676795,0.0
-0.04657461589699511,0.19006518625589644,-0.528473918094952,-0.1167489674339975,3.9555537516558656,-0.3156976316313552,0.0
-0.04657461589699511,0.19006518625589644,-0.528473918094952,-0.1167489674339975,3.9555537516558656,-0.3156976316313552,0.0
0.15308056429753356,0.006847536749081845,0.24987012373056958,-0.03891595427168159,1.8360248463717748,-1.3462753603624462,0.0
0.33134420274001647,-0.09784826337817307,-0.053455138268009926,0.09624000945548923,1.2201474179927814,-3.060937620093166,0.0
1.0265718684335698,0.7815964313463262,0.14685399612803768,0.10412848865563393,-0.8968522456768275,-0.19997163969465187,0.0
-0.25336022679742287,0.9595793456833075,-0.142163456021374,0.01998469662318664,-0.3859395165579668,1.3421287324332185,0.0
0.2778650363169667,0.37328284435329007,-0.1879484224935046,-0.07204757460940531,-0.03247393658830916,2.7808289175927428,0.0
1.311793340453454,-0.06120473061328385,-0.32530324677427747,0.04890912463322607,0.6826774051304636,0.228693925238028,0.0
0.41334534162101055,0.2895261882157386,-0.16505592673483627,0.0026300411000156573,0.6814127226253737,0.5834044432093195,0.0
0.7235237579716529,-0.07690910507083788,-0.07062449130310647,-0.006310239389181783,-0.23165400426140814,0.18692299696665474,0.0
0.719958480210117,0.0801345965518077,-0.30813388121657753,0.056797605436936606,0.9748081432869767,-0.0575396242415675,0.0
0.559521480209666,0.0801345965518077,-0.322441681673793,-0.016302314753168623,2.1256264046116553,-0.09109331996880446,0.0
0.3563008974364245,0.14818686964122604,-0.18222529229253598,-0.12726693542468145,3.708317638285973,-0.007551469690035754,0.0
-0.21057701847615745,0.3261697267076805,0.23556232327335416,-0.264000596274734,2.0206615819558245,0.2588237765078664,0.0
0.36699673072103434,0.22147392371689922,0.16688491113296783,0.26873476660527795,-0.047017241684549654,1.1147854170316969,0.0
0.4240411749056204,0.14295208006439222,0.07245346004798417,0.2824081544987786,-0.5143000092413026,1.060003838897552,0.0
0.3242136472169432,0.3889872016296861,0.006637603616129777,0.008414925739884036,-1.0422853043514637,0.931951958472783,0.0
0.08890581422422268,-0.0926134738013393,0.04097630968632297,-0.04049365139456319,-1.4083972543503847,-0.23352533124590347,0.0
0.6950015358793602,0.11154333687633677,-0.18222529229253598,0.04627963103198922,-0.5497097928800685,1.6886220637962126,0.0
0.6950015358793602,0.11154333687633677,-0.18222529229253598,-0.22981719068361595,-0.08305935500751398,1.0476780005213109,0.0
0.8376123967064748,-0.18683969763845298,0.05528410701288757,-0.10728278469670781,-0.4890073154561623,1.168197405600664,0.0
0.20655973072058278,-0.09784826337817307,-0.07348604388098766,-0.0378641626040239,-0.861442431189137,-0.13560331879491438,0.0
0.20655973072058278,-0.09784826337817307,-0.07348604388098766,-0.057322407876773646,-0.3859395165579668,-0.2561227071703262,0.0
0.5559562024481272,-0.040265572305948655,-0.16791749183532056,-0.2256099983559316,-0.12858622078767473,-1.2182234799376774,0.0
1.1406605071683906,0.043491067366326346,-0.23659490397570687,-0.11201586965108926,0.738953678880102,-0.7197115198115528,0.0
1.1406605071683906,0.043491067366326346,-0.23659490397570687,-0.011569223384523791,0.2583922038976563,-0.5800185957931318,0.0
0.8661346187987703,0.0016127471722480467,-0.05917825594637542,0.03576165722837904,0.06616762393057843,-0.40814148626892965,0.0
0.4953464805020046,0.1272477056068382,-0.027701102454063417,-0.014198718589326463,0.08893106453288992,-0.2588617860770335,0.0
0.4953464805020046,0.1272477056068382,-0.027701102454063417,0.06731557823831812,0.007362078681562609,-0.20818885971083217,0.0
0.5630867579712024,0.11677812645317062,-0.08779384433820306,0.1135946649786602,0.03391942123078157,-0.19449348188123738,0.0
0.6058698414752928,0.10630854729950298,-0.06776292620262213,0.15356296002034417,0.33616729358624936,-0.22599287260442932,0.0
0.6450878968521945,0.0801345965518077,-0.10782476247378414,0.006311331179607735,0.9982039058612554,-0.18422194433305591,0.0
0.6450878968521945,0.0801345965518077,-0.10782476247378414,0.17512481428546284,1.6140813959380977,-0.06233301232830518,0.0
0.777002924394703,0.1220129160300044,0.043837868525505724,0.4159864211030679,1.4092103572510988,0.026002223949208578,0.0
0.7306543134947253,0.13248250091072464,0.1067921696401595,0.4180900172669101,0.9722789016724945,0.17185807968370628,0.0
0.6486531746137305,0.14818686964122604,0.13254620193212382,0.5579790723627258,-0.07800081008070106,0.057501610496415126,0.0
0.5238687025942973,0.10107375772266919,0.09534593350076574,0.0352357584880871,-2.753969341112738,0.3163444001408358,0.0
0.10316667563602086,0.043491067366326346,0.2670394767656662,-0.21246252874618157,4.171806192514486,0.019839300585102613,0.0
0.777002924394703,0.0801345965518077,-0.03342422013242894,-0.29187323903137913,-0.5965013180286259,-0.03288793287313637,0.0
0.4775200916943214,0.02778669756200258,0.20980829998201087,-0.03733826356306338,0.13951647523986357,-0.03631177941852775,0.0
0.6058698414752928,0.09060417856900159,0.0009144859377642404,0.0752040574384628,-0.4561268042808027,-0.08698470160874361,0.0
0.41691061938254736,0.06966501739814007,0.04956098933452205,-0.1998409517631286,-0.15893747492409008,-0.1547768627898944,0.0
0.5096075915481524,0.14818686964122604,0.03811475084714019,-0.09676481670602383,-0.11973377487798323,-0.004812391827324844,0.0
0.6165656747599018,-0.024561203575447263,-0.1021016447954185,-0.1730201199169313,0.6226072072612535,0.09105530204766676,0.0
0.6130003969983653,0.006847536749081845,0.0123607212944953,-0.044700843722247495,0.2735678232536327,-0.02398593164631951,0.0
0.5203034248327614,0.012082327757678809,0.006637603616129777,-0.1398884995792076,0.2090714217101547,-0.06164824260162836,0.0
0.40621478609793776,0.043491067366326346,0.09248437427025162,-0.08887633750587914,-0.40048284093478487,-0.06918070541908793,5.0
0.5131728693096889,0.06443022782130628,0.02380695665122636,-0.033131071235379075,-0.21078752957499816,-0.0424747027826337,5.0
0.630826785806049,0.06443022782130628,-0.004808631740601282,0.02419188574373925,-0.04764955980040129,-0.07534362878319388,5.0
0.591608730429145,0.03825627743155175,0.029530074329591913,-0.015776415712208097,-0.031841618472457554,-0.06301778205498199,5.0
0.570217063859927,0.10107375772266919,0.09820749253561417,0.15514066355748915,0.09904814667428465,0.0006657618101042899,5.0
0.5060423137866159,-0.050735151459616275,0.1067921696401595,0.0589011999972129,-0.5307402956779066,-0.08766947133542041,5.0
0.49891175826354056,-0.0926134738013393,-0.044870455489160015,0.08046304464093648,-0.011607452261610302,-0.07808270351391577,5.0
0.559521480209666,-0.003622042404585751,-0.030562667554547777,0.1325270176247128,0.13003171121432047,-0.021246854827604935,5.0
0.5345645358789063,0.06966501739814007,0.03525319200795742,0.151459363856502,-0.053972737102801885,-0.008921008099393038,5.0
0.5488256469250541,0.06966501739814007,-0.007670196841085645,0.05574580735501552,0.017479161786986237,-0.01234485412278625,5.0
0.5452603691635176,-0.014091621558253366,0.20694673488152654,0.2534837264887393,-0.7488898836898606,-0.10068008779030914,5.0
0.5452603691635176,-0.014091621558253366,0.20694673488152654,0.450695719320883,-0.9430114295728401,0.04106714958412771,5.0
0.5987392859522197,0.14295208006439222,-0.03342422013242894,0.41125331049163294,-0.9784211823626816,0.15679316240075783,5.0
0.5987392859522197,0.14295208006439222,-0.03342422013242894,0.25611321527927866,-0.09823497436349052,0.03353468676666813,5.0
0.5987392859522197,0.14295208006439222,-0.03342422013242894,0.25611321527927866,-0.09823497436349052,0.03353468676666813,5.0
0.5345645358789063,0.04872585765904173,-0.05917825594637542,0.15198526931172593,-0.17158382181666013,-0.059593933421597925,5.0
0.6272615080445096,0.200534765409564,-0.18222529229253598,-0.10675689207001066,0.4967759870413242,-0.021246854827604935,5.0
0.6950015358793602,0.20576955498639782,-0.0362857852329133,-0.18090859911707594,1.0702881556438772,-0.08082178242062302,5.0
0.591608730429145,0.0853693889921678,0.015222280133678061,0.07099686831791019,1.3750652869663471,-0.03973562596391913,5.0
0.10316667563602086,-0.014091621558253366,0.37291716007673015,0.5748077903593558,-0.1810686012666655,0.023947918945163474,5.0
0.4739548139327852,0.09060417856900159,0.04097630968632297,0.08729972896629179,0.12560548440335917,0.039012840404097276,5.0
0.5773476193829995,0.059195438244472494,0.03525319200795742,-0.06205549924541847,0.02317002097353522,-0.08766947133542041,5.0
0.5880434526676085,0.16912602794856124,-0.013393314519451182,-0.02892387890769477,0.0313901506954329,-0.039050856237242325,5.0
0.5167381470712249,0.09583896814583542,0.020945397812043614,-0.0473303389270502,0.045301141531937324,-0.0993105483369555,5.0
0.5630867579712024,0.09583896814583542,-0.02483954987618224,-0.11306766773301034,0.33996118685689686,-0.08903901078877405,5.0
0.5630867579712024,0.09583896814583542,-0.02483954987618224,-0.042071348517444804,0.10853291069982776,-0.013714392793142618,5.0
0.37412728624410796,0.16912602794856124,-0.044870455489160015,0.09203281712780494,-0.1684222389496332,-0.08972378051545084,5.0
0.6165656747599018,0.1272477056068382,-0.1879484224935046,0.13410471474759442,-0.2910918763025355,0.16364084296358453,5.0
0.6843059522290962,0.0801345965518077,0.05528410701288757,-0.1646057480900895,0.009259031583074123,0.16295608158887845,5.0
0.6843059522290962,0.0801345965518077,0.05528410701288757,-0.007362034263971164,0.300757479098559,-0.0034428534179675617,5.0
0.4882159249789321,0.017317117334512605,0.1067921696401595,-0.30186530156683894,0.6472675906427731,-0.18353716625440838,5.0
0.44186756371330355,0.017317117334512605,0.08962281543106887,-0.05469291908623434,-0.2986796936927548,-0.059593933421597925,5.0
0.44186756371330355,0.017317117334512605,0.08962281543106887,-0.10938638086054996,-0.10013192871104538,-0.07260454987648662,5.0
0.5809128971445354,0.10107375772266919,0.015222280133678061,0.047331428312127374,0.09525423797917495,-0.03699654705721188,5.0
0.5666520357327384,0.15865644879489366,0.043837868525505724,0.0862479308843707,0.00799439631539978,0.029426072582592628,5.0
0.5666520357327384,0.15865644879489366,0.043837868525505724,-0.14041440503443153,-0.12542463792064776,0.026686993675885375,5.0
0.4810853694558582,0.14818686964122604,0.006637603616129777,-0.30186530156683894,-0.3068998214865947,-0.040420393602603265,5.0
0.4276064526671569,0.04872585765904173,0.12682308268843293,-0.08782453942395807,-0.8393112894220996,0.021208840038456234,5.0
0.4240411749056204,0.05396064723587552,0.11251528770985637,0.16513273892147598,-1.022683465896757,0.1472063862272825,5.0
0.641522619090658,0.043491067366326346,-0.013393314519451182,0.33657571081787035,-0.46497924247826306,0.0739360755846879,5.0
0.6700448411829507,0.043491067366326346,-0.013393314519451182,0.29713330198862026,-0.27085769659528386,-0.04795285642006283,5.0
0.6023045637137557,0.059195438244472494,-0.016254867097332343,0.15619246163941022,-0.21711069530905205,-0.06575685678570388,5.0
0.5773476193829995,0.012082327757678809,-0.05059357316752554,0.1567183542661074,-0.32650165994130165,-0.03699654705721188,5.0
0.5060423137866159,-0.014091621558253366,-0.053455138268009926,0.26032040760696284,-0.34547118799238785,0.010937300402282088,5.0
0.6379573413291221,-0.008856831981419535,-0.11927098530791198,0.4107274178649358,0.24701047781232718,0.016415456127703912,5.0
0.6486531746137305,-0.003622042404585751,-0.11354788015214949,0.5406243847682378,0.46705702788406717,-0.002758084735287087,5.0
0.5844781749060726,0.006847536749081845,-0.06776292620262213,0.4044166293734094,0.4000313538771825,-0.02467070137299632,5.0
0.5167381470712249,0.043491067366326346,-0.0362857852329133,0.22666288181401523,0.15089820132519266,-0.03631177941852775,5.0
0.5238687025942973,0.09583896814583542,-0.019116432197816707,0.24138804213238352,0.020008432322334922,0.047230072948233656,5.0
0.591608730429145,0.06966501739814007,-0.044870455489160015,0.05048682015254183,0.326682514136244,-0.030148855010425458,5.0
0.570217063859927,0.0801345965518077,-0.039147337810794464,0.06836737632023919,0.33490264193008384,-0.04863762614673966,5.0
0.5096075915481524,0.16912602794856124,-0.04773202058964435,0.21456721028618622,0.35134289751776376,0.14789114760198857,5.0
0.6094351192368287,0.16912602794856124,-0.07348604388098766,0.015251608461673498,0.2116006941735611,-0.009605777304071679,5.0
0.4846506472173956,0.15342165921805986,-0.004808631740601282,-0.04627854084512913,-0.010342816993935959,-0.00618193128067847,5.0
0.5096075915481524,0.11677812645317062,-0.039147337810794464,-0.0894022301325763,-0.05713432768205997,0.016415456127703912,5.0
0.573782341621463,0.059195438244472494,-0.04773202058964435,-0.09308351700503667,0.09019569305236202,-0.009605777304071679,5.0
0.5559562024481272,0.07489980697497386,-0.010531749418966806,-0.08835043205065522,0.03771332799783349,-0.010975315713428968,5.0
0.5381298136404451,0.059195438244472494,-0.004808631740601282,-0.09097992084119452,0.004200490150865921,-0.01029054650875032,5.0
0.5345645358789063,0.06443022782130628,-0.019116432197816707,-0.08572094326011592,-0.014769040912810602,0.004089607311499334,5.0
0.5238687025942973,0.05396064723587552,0.006637603616129777,-0.05837420595869472,-0.04575260930896198,-0.004812391827324844,5.0
0.5488256469250541,0.05396064723587552,-0.016254867097332343,-0.022613096830431688,-0.028047711705405643,0.011622070128958911,5.0
0.5630867579712024,0.05396064723587552,-0.042008902911278824,-0.0026289461024580287,0.003568172456776944,0.0006657618101042899,5.0
0.55239092468659,0.03825627743155175,-0.039147337810794464,-0.005258441307260719,-0.004651957807386975,0.004089607311499334,5.0
0.5452603691635176,0.05396064723587552,-0.04773202058964435,0.015251608461673498,-0.03879711389070977,0.015730686401027108,5.0
0.55239092468659,0.05396064723587552,-0.039147337810794464,0.017355203021949796,-0.02488612305420533,0.007513453856890719,5.0
0.5630867579712024,0.059195438244472494,-0.03342422013242894,0.014725709420712949,-0.010342816993935959,-1.900687257618088e-05,5.0
0.5416950914019816,0.06966501739814007,-0.05917825594637542,0.014199810379752415,-0.023621488750559885,-0.010975315713428968,5.0
0.5274339803558339,0.059195438244472494,-0.019116432197816707,0.002104142059055125,-0.029312347937108876,-0.020562085622926298,5.0
0.5381298136404451,0.059195438244472494,-0.03342422013242894,0.009466722218239262,-0.05017883226380774,0.010252530675605288,5.0
0.5416950914019816,0.043491067366326346,-0.027701102454063417,-0.010517428509734405,-0.041326382498000684,0.004774377038176145,5.0
0.5488256469250541,0.05396064723587552,-0.04773202058964435,-0.016828210586997464,-0.049546514147956126,-1.900687257618088e-05,5.0
0.5452603691635176,0.059195438244472494,-0.042008902911278824,-0.007362034263971164,-0.08053008254410751,0.0013505304927847648,5.0
0.5381298136404451,0.043491067366326346,-0.016254867097332343,-0.001577151227668647,-0.07357458326973974,0.015730686401027108,5.0
0.5416950914019816,0.043491067366326346,-0.001947072901418521,0.03839115062917015,-0.10645510986956151,0.019839300585102613,5.0
0.5416950914019816,0.043491067366326346,-0.001947072901418521,0.07047096927694965,-0.09823497436349052,0.01915453085842581,5.0
0.5488256469250541,0.0016127471722480467,-0.019116432197816707,0.08467023696862079,-0.09823497436349052,0.03284991703999133,5.0
0.5345645358789063,0.0016127471722480467,-0.019116432197816707,0.10202489249179177,-0.11088132896829173,0.026686993675885375,5.0
0.5345645358789063,0.0016127471722480467,-0.019116432197816707,0.12884572433798905,-0.1191014567621316,0.03353468676666813,5.0
0.5345645358789063,0.06966501739814007,-0.030562667554547777,0.1404154968248575,-0.10898437462073687,0.054077761863031065,5.0
0.5416950914019816,0.06966501739814007,-0.03342422013242894,0.1456744808201995,-0.10961669273658851,0.054077761863031065,5.0
0.5416950914019816,0.06966501739814007,-0.03342422013242894,0.1435708846563573,-0.08305935500751398,0.043121454588172806,5.0
0.55239092468659,0.07489980697497386,-0.05059357316752554,0.13042342146087066,-0.09507339149646356,0.036273765673375376,5.0
0.5666520357327384,0.06443022782130628,-0.039147337810794464,0.098343599205068,-0.12036609299383484,0.017100223766388048,5.0
0.5488256469250541,0.06966501739814007,-0.05631669084589106,0.09624000945548923,-0.12226304734138968,0.022578379491809866,5.0
0.5630867579712024,0.059195438244472494,-0.02483954987618224,0.10570618577851554,-0.1424972193364103,0.04654530322155684,5.0
0.559521480209666,0.043491067366326346,-0.039147337810794464,0.11149106881481806,-0.13996794687300376,0.026002223949208578,5.0
0.5452603691635176,0.043491067366326346,-0.04773202058964435,0.10991337169193645,-0.13743867440959737,0.05955591967644556,5.0
0.5203034248327614,0.02778669756200258,-0.03342422013242894,0.12937162337894959,-0.14818807466684372,0.07051222695130384,5.0
0.5666520357327384,-0.08214389464767172,-0.016254867097332343,0.19458305955821256,-0.10961669273658851,0.024632684495854946,5.0
0.6094351192368287,-0.11355263210867447,-0.039147337810794464,0.1914276653124493,-0.0052842749592097015,-0.017138239142784686,5.0
0.5345645358789063,0.043491067366326346,-0.07348604388098766,0.12358674034264705,-0.04259101872970392,0.01778499349306485,5.0
0.5060423137866159,0.19006518625589644,-0.07348604388098766,-0.008939731386852778,-0.11593987389510464,0.047230072948233656,5.0
0.49891175826354056,0.23717829244740057,-0.07634760898147201,-0.0894022301325763,-0.16273138361919975,0.0561320710430615,5.0
0.5488256469250541,0.23717829244740057,-0.08207072665983754,-0.17144242920831304,-0.08938252845379902,0.01778499349306485,5.0
0.5666520357327384,0.17959560710222883,-0.09351696201656862,-0.24612004171060245,-0.07420690138559136,-1.900687257618088e-05,5.0
0.5630867579712024,0.1272477056068382,-0.0906554094386874,-0.28345885437601054,-0.071677636634416,-0.03151839341978274,5.0
0.55239092468659,0.0853693889921678,-0.1021016447954185,-0.30502068298407553,-0.100764246826897,-0.0178230084127131,5.0
0.5416950914019816,0.06966501739814007,-0.07348604388098766,-0.31027968622220764,-0.10645510986956151,0.0020353002194615764,5.0
0.5416950914019816,0.04872585765904173,-0.09637852711705294,-0.28661423579324685,-0.11720451012680788,-0.009605777304071679,5.0
0.5559562024481272,0.017317117334512605,-0.07348604388098766,-0.26925957385581245,-0.07483921950144298,-0.004127623144644375,5.0
0.559521480209666,0.0016127471722480467,-0.0906554094386874,-0.22929127239986524,-0.015401359028662217,-0.019192546952569927,5.0
0.5666520357327384,-0.01932641399861347,-0.09351696201656862,-0.1772273122446157,-0.021092218215211202,-0.019192546952569927,5.0
0.559521480209666,-0.040265572305948655,-0.08779384433820306,-0.14251800119827374,0.020640750438186535,-0.03631177941852775,5.0
0.55239092468659,-0.040265572305948655,-0.07920916155935318,-0.10412739045094459,0.018111479902837853,-0.03425747023849731,5.0
0.5274339803558339,-0.04550036188278245,-0.07348604388098766,-0.045226742763208046,0.00040658398633205983,-0.022616393236962226,5.0
0.5381298136404451,-0.04550036188278245,-0.06490137362474094,0.006311331179607735,-0.02425380686641151,0.0006657618101042899,5.0
0.5416950914019816,-0.04550036188278245,-0.07348604388098766,0.018932898541265564,0.009259031583074123,-0.0034428534179675617,5.0
0.5666520357327384,-0.029795993152281087,-0.08779384433820306,0.03628755586844812,0.01684684367113462,-0.03494223996517412,5.0
0.5844781749060726,-0.03503078272911486,-0.09924007969493413,0.05469400927309444,0.057315178020886905,-0.03151839341978274,5.0
0.573782341621463,-0.06120473061328385,-0.11927098530791198,0.08204074176381809,0.05225663309407399,-0.03220316314645955,5.0
0.5488256469250541,-0.040265572305948655,-0.13930191596609603,0.11990544705592328,0.045301141531937324,-0.03631177941852775,5.0
0.559521480209666,-0.040265572305948655,-0.11354788015214949,0.15987374851187064,0.06616762393057843,-0.017138239142784686,5.0
0.5666520357327384,-0.040265572305948655,-0.10782476247378414,0.18511688964944967,0.14141343729964953,-0.04384424014799464,5.0
0.5666520357327384,-0.024561203575447263,-0.12213255040839628,0.20983412533180484,0.15658905665562609,-0.02467070137299632,5.0
0.5309992581173698,-0.003622042404585751,-0.11068631505166518,0.2166708064500284,0.12497316628750754,-0.07328931960316344,5.0
0.5345645358789063,-0.003622042404585751,-0.0906554094386874,0.2303441686864757,0.10347436577301485,-0.04589854932802508,5.0
0.5416950914019816,-0.003622042404585751,-0.10782476247378414,0.22087799877771278,0.10853291069982776,-0.040420393602603265,5.0
0.5345645358789063,0.07489980697497386,-0.10782476247378414,0.20720463654126545,0.06869689253786933,-0.04932239587341646,5.0
0.5238687025942973,0.0801345965518077,-0.09351696201656862,0.19510896501343652,0.00799439631539978,-0.03836608651056551,5.0
0.5416950914019816,0.09060417856900159,-0.1021016447954185,0.18248738803038358,-0.014136722796958986,-0.025355470055676795,5.0
0.5416950914019816,0.05396064723587552,-0.07920916155935318,0.17354711074831783,-0.043855654961407135,-0.02467070137299632,5.0
0.5345645358789063,0.04872585765904173,-0.09351696201656862,0.1856427822761468,-0.041326382498000684,-0.01234485412278625,5.0
0.5309992581173698,0.02778669756200258,-0.07348604388098766,0.18511688964944967,-0.029944664124902716,-0.0013885463259298042,5.0
0.55239092468659,0.022551907627227984,-0.08779384433820306,0.18669458035806788,-0.009710498878084346,-0.005497161554001658,5.0
0.55239092468659,0.022551907627227984,-0.08779384433820306,0.18196149540368642,0.001671219374510014,-0.0007037765992529926,5.0
0.5488256469250541,0.02778669756200258,-0.07634760898147201,0.17617661236738394,-0.011607452261610302,-0.01166008491810761,5.0
0.5488256469250541,0.02778669756200258,-0.07634760898147201,0.15356296002034417,0.01052366733276291,0.03353468676666813,5.0
0.5488256469250541,-0.008856831981419535,-0.06490137362474094,0.17196942003969962,-0.063457501128345,0.0006657618101042899,5.0
0.5844781749060726,-0.003622042404585751,-0.08493229176032194,0.18459098419422573,-0.011607452261610302,-0.017138239142784686,5.0
0.55239092468659,-0.003622042404585751,-0.07634760898147201,0.17196942003969962,0.011155984484585636,0.0013505304927847648,5.0
0.55239092468659,-0.003622042404585751,-0.07634760898147201,0.14882987506596268,-0.0337385728200124,-0.008921008099393038,5.0
0.5416950914019816,0.05396064723587552,-0.07634760898147201,0.11306876593769967,-0.03753247765900653,-0.01987731615724857,5.0
0.5274339803558339,0.0801345965518077,-0.08779384433820306,0.08835152384108116,-0.048281877916252894,-0.00618193128067847,5.0
0.570217063859927,0.0853693889921678,-0.07920916155935318,0.04996092111158129,0.044668823416085704,-0.03973562596391913,5.0
0.559521480209666,0.10630854729950298,-0.09924007969493413,0.03155446770693497,0.008626713949236952,-0.0007037765992529926,5.0
0.5488256469250541,0.09060417856900159,-0.11354788015214949,-0.005258441307260719,0.04277186906853086,0.0034048396728152,5.0
0.5666520357327384,0.06966501739814007,-0.11068631505166518,-0.006836135223010638,0.05352126932577722,-0.014399161997821262,5.0
0.559521480209666,0.059195438244472494,-0.09637852711705294,-0.0036807441843791045,0.07881397467926407,-0.018507777747891287,5.0
0.55239092468659,0.059195438244472494,-0.1021016447954185,-0.0031548451434185547,0.0800786109109673,-0.03631177941852775,5.0
0.5345645358789063,0.059195438244472494,-0.09637852711705294,-0.0031548451434185547,0.07249080123297902,-0.030833624737102272,5.0
0.5416950914019816,0.059195438244472494,-0.053455138268009926,0.010518520300160341,0.07944629279511567,-0.06918070541908793,5.0
0.5488256469250541,0.059195438244472494,-0.05917825594637542,0.036813454508517196,0.06616762393057843,-0.03631177941852775,5.0
0.5452603691635176,0.059195438244472494,-0.039147337810794464,0.05364221279473922,0.0383456461136851,-0.03562700969185094,5.0
0.5381298136404451,0.02778669756200258,-0.039147337810794464,0.07572995647942334,0.020008432322334922,-0.019192546952569927,5.0
0.5345645358789063,0.017317117334512605,-0.03342422013242894,0.09203281712780494,0.01052366733276291,-0.04932239587341646,5.0
0.5416950914019816,0.02778669756200258,-0.030562667554547777,0.09624000945548923,-0.016033675216456055,-0.013714392793142618,5.0
0.5488256469250541,0.02778669756200258,-0.053455138268009926,0.09045512000492331,0.028860880160084208,-0.03151839341978274,5.0
0.55239092468659,0.02778669756200258,-0.04773202058964435,0.08782562800725233,0.018111479902837853,-0.04589854932802508,5.0
0.5630867579712024,0.0801345965518077,-0.027701102454063417,0.06889327536119973,0.041507232836827626,-0.018507777747891287,5.0
0.559521480209666,0.0801345965518077,-0.03342422013242894,0.05101271919350237,0.024434657205238453,-0.03699654705721188,5.0
0.55239092468659,0.043491067366326346,-0.03342422013242894,0.05259041471281813,0.05099200071848631,-0.03151839341978274,5.0
0.5488256469250541,0.043491067366326346,-0.03342422013242894,0.04365013743075238,0.0566828599050353,-0.021246854827604935,5.0
0.5452603691635176,0.05396064723587552,-0.039147337810794464,0.04680553007294976,0.04846272825507985,-0.023301162441640867,5.0
0.5452603691635176,0.059195438244472494,-0.039147337810794464,0.04838322559226552,0.04087491472097602,-0.018507777747891287,5.0
0.5452603691635176,0.043491067366326346,-0.04773202058964435,0.059427099038173434,0.02127306855403815,-0.01576870060292786,5.0
0.5488256469250541,0.02778669756200258,-0.0362857852329133,0.05784940191529182,0.0256992915088839,-0.030833624737102272,5.0
0.5488256469250541,0.059195438244472494,-0.044870455489160015,0.04680553007294976,0.02633160962473553,-0.015083931332999446,5.0
0.55239092468659,0.06443022782130628,-0.05917825594637542,0.04470193471089053,0.03265478692713613,-0.03562700969185094,5.0
0.5452603691635176,0.05396064723587552,-0.053455138268009926,0.027873176625114245,0.019376114206483306,-0.01576870060292786,5.0
0.5309992581173698,0.02778669756200258,-0.042008902911278824,0.03944294790930831,0.04213955095267926,-0.007551469690035754,5.0
0.5416950914019816,0.02778669756200258,-0.06490137362474094,0.04575373199102868,0.0256992915088839,-0.008236238372716228,5.0
0.5345645358789063,0.017317117334512605,-0.05059357316752554,0.059427099038173434,0.01178830260043725,-0.008236238372716228,5.0
0.5416950914019816,0.012082327757678809,-0.044870455489160015,0.06836737632023919,0.014949891251637551,-0.0034428534179675617,5.0
0.5452603691635176,0.012082327757678809,-0.04773202058964435,0.10307669057371285,0.019376114206483306,-0.018507777747891287,5.0
0.5416950914019816,0.012082327757678809,-0.05059357316752554,0.098343599205068,0.009259031583074123,-0.029464086327744988,5.0
0.5167381470712249,0.04872585765904173,-0.039147337810794464,0.06836737632023919,-0.02488612305420533,-0.052061470604138356,5.0
0.5416950914019816,0.09583896814583542,-0.044870455489160015,0.06836737632023919,-0.06851604605515792,-0.01234485412278625,5.0
0.5844781749060726,0.13771729048755843,-0.05917825594637542,0.0352357584880871,-0.001490369156186674,-0.01576870060292786,5.0
0.5630867579712024,0.13771729048755843,-0.09351696201656862,0.015777507502634028,-0.029312347937108876,-0.025355470055676795,5.0
0.5309992581173698,0.04872585765904173,-0.04773202058964435,0.023140088463601098,-0.06914836417100954,0.02326314921848667,5.0
0.5488256469250541,0.017317117334512605,-0.05917825594637542,0.05521990831405498,-0.05713432768205997,0.018469763219741673,5.0
0.559521480209666,0.012082327757678809,-0.07348604388098766,0.09676590208218638,-0.004651957807386975,-0.0013885463259298042,5.0
0.5488256469250541,0.02778669756200258,-0.06490137362474094,0.11149106881481806,-0.014136722796958986,-0.00618193128067847,5.0
0.5274339803558339,0.02778669756200258,-0.06776292620262213,0.09518821137356816,-0.03942943200656139,0.006828686218206584,5.0
0.5309992581173698,0.043491067366326346,-0.053455138268009926,0.10675797744617321,-0.07863312819655266,0.03490422622002177,5.0
0.5345645358789063,0.043491067366326346,-0.08779384433820306,0.11306876593769967,-0.08938252845379902,0.012306839855635719,5.0
0.5559562024481272,0.043491067366326346,-0.05917825594637542,0.12463853842456812,-0.06092823252105409,0.021893609765133038,5.0
0.5488256469250541,0.03825627743155175,-0.07348604388098766,0.11517236210154183,-0.052075782755247046,0.006828686218206584,5.0
0.5416950914019816,0.05396064723587552,-0.05917825594637542,0.10307669057371285,-0.08116240065995914,0.01778499349306485,5.0
0.5488256469250541,0.05396064723587552,-0.06776292620262213,0.08677382992533124,-0.09633802001593568,0.03421945649334494,5.0
0.55239092468659,0.06443022782130628,-0.07348604388098766,0.07678175456134441,-0.07989776442825591,0.008198223583567518,5.0
0.5488256469250541,0.06443022782130628,-0.07634760898147201,0.06258249007680497,-0.06661909170760308,0.024632684495854946,5.0
0.5452603691635176,0.022551907627227984,-0.07348604388098766,0.06889327536119973,-0.052075782755247046,0.017100223766388048,5.0
0.5416950914019816,0.04872585765904173,-0.062039808524256584,0.05574580735501552,-0.05334041898695026,0.021208840038456234,5.0
0.5452603691635176,0.03825627743155175,-0.053455138268009926,0.04996092111158129,-0.06472213736004821,0.020524070311779417,5.0
0.5274339803558339,0.04872585765904173,-0.04773202058964435,0.04627963103198922,-0.06661909170760308,0.03011084230926944,5.0
0.5345645358789063,0.043491067366326346,-0.08207072665983754,0.013148013901397193,-0.059663596289350855,0.03353468676666813,5.0
0.5488256469250541,0.03825627743155175,-0.07348604388098766,0.0068372302205682665,-0.06535445547589985,0.013676377220996653,5.0
0.559521480209666,0.012082327757678809,-0.09924007969493413,-0.012095122425484318,-0.04195870061385229,-0.004812391827324844,5.0
0.5488256469250541,0.012082327757678809,-0.08493229176032194,-0.009465630427813322,0.014317573135785935,-0.02193162403228358,5.0
0.5452603691635176,0.012082327757678809,-0.08779384433820306,-0.006310239389181783,-0.001490369156186674,-0.013714392793142618,5.0
0.5488256469250541,0.022551907627227984,-0.07920916155935318,-0.023664894912352765,0.003568172456776944,0.0006657618101042899,5.0
0.5559562024481272,0.022551907627227984,-0.07634760898147201,-0.013672819548365932,0.033287105042987736,-1.900687257618088e-05,5.0
0.5345645358789063,0.059195438244472494,-0.039147337810794464,-0.03944185331264212,0.025066973393032294,-0.009605777304071679,5.0
0.5345645358789063,0.059195438244472494,-0.06490137362474094,-0.044700843722247495,0.017479161786986237,-0.015083931332999446,5.0
0.5488256469250541,0.059195438244472494,-0.05917825594637542,-0.0499598277175895,0.008626713949236952,-0.0007037765992529926,5.0
0.5452603691635176,0.022551907627227984,-0.06490137362474094,-0.03155337411249746,-0.001490369156186674,0.010252530675605288,5.0
0.5452603691635176,0.006847536749081845,-0.07348604388098766,-0.03996775235360266,-0.00718122834273566,0.0006657618101042899,5.0
0.5559562024481272,0.022551907627227984,-0.07634760898147201,-0.026294390117155467,-0.0052842749592097015,-0.01029054650875032,5.0
0.5559562024481272,0.022551907627227984,-0.07634760898147201,-0.02208719778947114,-0.009710498878084346,0.004774377038176145,5.0
0.5559562024481272,0.022551907627227984,-0.07634760898147201,-0.02208719778947114,-0.009710498878084346,0.004774377038176145,5.0
0.5416950914019816,-0.003622042404585751,-0.07920916155935318,-0.013672819548365932,0.03581637365027865,-0.009605777304071679,5.0
0.5488256469250541,-0.003622042404585751,-0.07920916155935318,0.003155936933844513,0.011155984484585636,-0.013029623588463978,5.0
0.5416950914019816,-0.003622042404585751,-0.08779384433820306,0.025243683023877403,-0.00718122834273566,0.00956776303692115,5.0
0.5416950914019816,0.012082327757678809,-0.0906554094386874,0.03576165722837904,-0.006548910226884044,0.012306839855635719,5.0
0.5416950914019816,-0.003622042404585751,-0.09351696201656862,0.03628755586844812,-0.02488612305420533,0.015730686401027108,5.0
0.5381298136404451,-0.003622042404585751,-0.09351696201656862,0.04680553007294976,-0.029312347937108876,0.024632684495854946,5.0
0.5416950914019816,0.006847536749081845,-0.09637852711705294,0.04470193471089053,-0.010975134145758687,0.008198223583567518,5.0
0.5345645358789063,0.0016127471722480467,-0.09351696201656862,0.05101271919350237,-0.031841618472457554,0.006143916491529777,5.0
0.5452603691635176,0.012082327757678809,-0.09637852711705294,0.05259041471281813,-0.04575260930896198,-0.00618193128067847,5.0
0.5416950914019816,0.022551907627227984,-0.08779384433820306,0.0631083891177655,-0.052708100871098645,0.017100223766388048,5.0
0.5345645358789063,0.02778669756200258,-0.1021016447954185,0.0610047945574892,-0.05081115037965936,0.021893609765133038,5.0
0.5345645358789063,-0.003622042404585751,-0.07634760898147201,0.07362636352271287,-0.063457501128345,0.013676377220996653,5.0
0.5381298136404451,0.0016127471722480467,-0.09637852711705294,0.052064517275423446,-0.06598677359175145,0.022578379491809866,5.0
0.5452603691635176,0.006847536749081845,-0.12213255040839628,0.04365013743075238,-0.04259101872970392,-0.0013885463259298042,5.0
0.5488256469250541,0.006847536749081845,-0.1249941155088806,0.04365013743075238,-0.019827581983507963,-0.002073315008610277,5.0
0.5488256469250541,0.006847536749081845,-0.1249941155088806,0.05311631375377867,-0.017930629564010907,-0.0013885463259298042,5.0
0.5416950914019816,0.012082327757678809,-0.11354788015214949,0.04575373199102868,-0.04069406438214906,-0.008236238372716228,5.0
0.5452603691635176,0.012082327757678809,-0.10782476247378414,0.043124239191574765,-0.028047711705405643,-0.004812391827324844,5.0
0.5345645358789063,0.012082327757678809,-0.11068631505166518,0.05574580735501552,-0.04195870061385229,0.0013505304927847648,5.0
0.5309992581173698,0.022551907627227984,-0.08779384433820306,0.03470985979790659,-0.07357458326973974,0.006828686218206584,5.0
0.5345645358789063,0.03825627743155175,-0.09351696201656862,0.039968846549377386,-0.06408981924419661,0.012991609582312541,5.0
0.5381298136404451,0.03825627743155175,-0.07920916155935318,0.04049474559033792,-0.06029591440520249,0.01915453085842581,5.0
0.5274339803558339,0.022551907627227984,-0.10496319737329961,0.036813454508517196,-0.10455815552200667,0.036958531224066844,5.0
0.5345645358789063,0.02778669756200258,-0.10496319737329961,0.06258249007680497,-0.10519047363785829,0.03969761013077408,5.0
0.5416950914019816,0.022551907627227984,-0.11354788015214949,0.07047096927694965,-0.06978068228686117,0.03284991703999133,5.0
0.5630867579712024,-0.008856831981419535,-0.12213255040839628,0.06363428815872604,-0.06029591440520249,0.01436114694767348,5.0
0.5630867579712024,0.012082327757678809,-0.1335787857651274,0.07152276735887073,-0.043855654961407135,0.012991609582312541,5.0
0.55239092468659,-0.003622042404585751,-0.1278556806093649,0.05837530095625236,-0.02235685251885665,-0.023301162441640867,5.0
0.5488256469250541,-0.008856831981419535,-0.1249941155088806,0.056797605436936606,-0.00844586361041,-0.010975315713428968,5.0
0.5488256469250541,-0.014091621558253366,-0.13071722066464292,0.04838322559226552,0.00799439631539978,-0.013714392793142618,5.0
0.5488256469250541,0.0016127471722480467,-0.1278556806093649,0.029450872946212934,-0.00844586361041,-0.01576870060292786,5.0
0.5345645358789063,0.02778669756200258,-0.1335787857651274,0.01209621581947611,-0.014136722796958986,-0.040420393602603265,5.0
0.5452603691635176,0.006847536749081845,-0.142163456021374,0.003681835974805045,-0.013504404681107371,-0.022616393236962226,5.0
0.5488256469250541,0.0016127471722480467,-0.11927098530791198,0.011570316778515565,0.023802339089386844,-0.030148855010425458,5.0
0.5416950914019816,0.0016127471722480467,-0.11068631505166518,0.010518520300160341,0.016214526519311896,-0.002758084735287087,5.0
0.5416950914019816,-0.008856831981419535,-0.09924007969493413,0.011044419341120892,0.00799439631539978,-0.018507777747891287,5.0
0.55239092468659,-0.040265572305948655,-0.11354788015214949,0.031028568866420164,0.011155984484585636,-0.02193162403228358,5.0
0.5488256469250541,-0.014091621558253366,-0.1278556806093649,0.051538618234462916,0.03581637365027865,-0.03973562596391913,5.0
0.5416950914019816,-0.014091621558253366,-0.09637852711705294,0.056797605436936606,0.030757832579581264,-0.02672500846503408,5.0
0.5452603691635176,-0.029795993152281087,-0.116409445252634,0.07099686831791019,0.033287105042987736,-0.03494223996517412,5.0
0.5488256469250541,-0.029795993152281087,-0.13071722066464292,0.06626378015639704,0.05225663309407399,-0.04315947042131783,5.0
0.559521480209666,-0.003622042404585751,-0.12213255040839628,0.06941917440216026,0.05541822367333206,-0.03425747023849731,5.0
0.5452603691635176,0.022551907627227984,-0.11927098530791198,0.0657378811154365,0.07185848311712738,-0.02398593164631951,5.0
0.5274339803558339,0.006847536749081845,-0.12213255040839628,0.07152276735887073,0.0566828599050353,-0.03357270155581683,5.0
0.5381298136404451,0.006847536749081845,-0.116409445252634,0.060478895516528665,0.05984444662817782,-0.039050856237242325,5.0
0.5488256469250541,0.006847536749081845,-0.11068631505166518,0.047857326551304986,0.061741400975732656,-0.014399161997821262,5.0
0.5488256469250541,0.017317117334512605,-0.10782476247378414,0.052064517275423446,0.05605054178918367,-0.026040239782353602,5.0
0.5416950914019816,0.012082327757678809,-0.10782476247378414,0.04470193471089053,0.058579810396474585,-0.017138239142784686,5.0
0.5452603691635176,0.02778669756200258,-0.08779384433820306,0.05311631375377867,0.034551739346633185,-0.02877931660106817,5.0
0.5381298136404451,0.022551907627227984,-0.09351696201656862,0.05311631375377867,0.0383456461136851,-0.02740977819171089,5.0
0.5488256469250541,0.006847536749081845,-0.09924007969493413,0.05784940191529182,0.03771332799783349,-0.026040239782353602,5.0
0.55239092468659,0.022551907627227984,-0.1021016447954185,0.05732350287433127,0.0649029876988752,-0.029464086327744988,5.0
0.55239092468659,0.022551907627227984,-0.10782476247378414,0.056797605436936606,0.05478590555748044,-0.05000716351210059,5.0
0.55239092468659,0.022551907627227984,-0.10782476247378414,0.03891704926923923,0.062373719091584276,-0.03631177941852775,5.0
0.5345645358789063,0.022551907627227984,-0.10782476247378414,0.04207244110965369,0.045301141531937324,-0.029464086327744988,5.0
0.5274339803558339,0.022551907627227984,-0.10782476247378414,0.024717784784699787,0.03961028234538833,-0.04110516332928007,5.0
0.5274339803558339,0.022551907627227984,-0.10782476247378414,0.06416018719968658,0.02633160962473553,-0.021246854827604935,5.0
0.5452603691635176,0.0016127471722480467,-0.09924007969493413,0.061530691994883896,0.05605054178918367,-0.0178230084127131,5.0
0.5488256469250541,0.006847536749081845,-0.11354788015214949,0.0667896791973576,0.04783041013922822,-0.03288793287313637,5.0
0.5488256469250541,0.006847536749081845,-0.11354788015214949,0.05521990831405498,0.07375543746468223,-0.030833624737102272,5.0
0.559521480209666,-0.003622042404585751,-0.12213255040839628,0.056271706395976055,0.061109082859881036,-0.03288793287313637,5.0
0.5345645358789063,0.022551907627227984,-0.07634760898147201,0.05995299647556813,0.03265478692713613,-0.03699654705721188,5.0
0.5345645358789063,0.022551907627227984,-0.07634760898147201,0.060478895516528665,0.025066973393032294,-0.03699654705721188,5.0
0.5381298136404451,0.017317117334512605,-0.0906554094386874,0.0589011999972129,0.018111479902837853,-0.02193162403228358,5.0
0.5381298136404451,0.017317117334512605,-0.0906554094386874,0.05311631375377867,0.019376114206483306,-0.02877931660106817,5.0
0.5381298136404451,0.017317117334512605,-0.0906554094386874,0.05416811183569975,0.022537702857683604,-0.021246854827604935,5.0
0.5381298136404451,-0.014091621558253366,-0.07634760898147201,0.0589011999972129,0.023802339089386844,-0.00618193128067847,5.0
0.5416950914019816,-0.014091621558253366,-0.07062449130310647,0.06521198528160765,0.016214526519311896,0.002720069946138388,5.0
0.5416950914019816,-0.003622042404585751,-0.06776292620262213,0.047331428312127374,0.01052366733276291,-0.01234485412278625,5.0
0.55239092468659,0.02778669756200258,-0.08207072665983754,0.03786525198910108,0.013052937868111594,-0.025355470055676795,5.0
0.5452603691635176,0.022551907627227984,-0.10496319737329961,0.05048682015254183,-0.0033873220576981894,0.005459146764852957,5.0
0.5488256469250541,0.0016127471722480467,-0.08493229176032194,0.0352357584880871,0.009259031583074123,-0.010975315713428968,5.0
0.559521480209666,0.012082327757678809,-0.06776292620262213,0.04470193471089053,0.01178830260043725,-0.013029623588463978,5.0
0.5488256469250541,-0.008856831981419535,-0.06776292620262213,0.04259834015061423,0.013685255983963212,-0.01987731615724857,5.0
0.5452603691635176,-0.003622042404585751,-0.07920916155935318,0.04575373199102868,0.009891349216911295,-0.020562085622926298,5.0
0.5381298136404451,0.017317117334512605,-0.07348604388098766,0.05732350287433127,-0.0033873220576981894,-0.017138239142784686,5.0
0.5416950914019816,0.012082327757678809,-0.06776292620262213,0.05574580735501552,0.00040658398633205983,-0.009605777304071679,5.0
0.5488256469250541,0.012082327757678809,-0.07062449130310647,0.05416811183569975,-0.0021226867900238453,-0.01029054650875032,5.0
0.5416950914019816,0.02778669756200258,-0.06776292620262213,0.061530691994883896,-0.0052842749592097015,0.006828686218206584,5.0
0.5416950914019816,0.02778669756200258,-0.07348604388098766,0.05469400927309444,-0.00022573364750511093,0.007513453856890719,5.0
0.5452603691635176,0.043491067366326346,-0.07920916155935318,0.05416811183569975,-0.002755004423861018,-0.004812391827324844,5.0
0.55239092468659,0.05396064723587552,-0.07348604388098766,0.04627963103198922,-0.011607452261610302,-0.00618193128067847,5.0
0.55239092468659,0.012082327757678809,-0.09637852711705294,0.04522783375185107,-0.005916593075061315,-0.01234485412278625,5.0
0.5416950914019816,-0.014091621558253366,-0.08207072665983754,0.049435023674186604,0.009891349216911295,-0.004812391827324844,5.0
0.55239092468659,0.012082327757678809,-0.08779384433820306,0.05048682015254183,0.00799439631539978,0.008198223583567518,5.0
0.559521480209666,0.006847536749081845,-0.07634760898147201,0.056271706395976055,-0.00718122834273566,-0.00618193128067847,5.0
0.5416950914019816,0.022551907627227984,-0.07920916155935318,0.04470193471089053,-0.005916593075061315,-0.021246854827604935,5.0
0.5452603691635176,0.017317117334512605,-0.09637852711705294,0.03470985979790659,-0.007813546458587277,-0.010975315713428968,5.0
0.5416950914019816,0.006847536749081845,-0.09637852711705294,0.04575373199102868,-0.009710498878084346,-0.008921008099393038,5.0
0.5488256469250541,-0.003622042404585751,-0.09351696201656862,0.04680553007294976,0.0010389016201692318,-0.008236238372716228,5.0
0.5381298136404451,-0.003622042404585751,-0.08207072665983754,0.03786525198910108,-0.009078181726261616,-0.03288793287313637,5.0
0.5416950914019816,-0.003622042404585751,-0.10496319737329961,0.052064517275423446,0.005465125539043875,-0.03288793287313637,5.0
0.5488256469250541,0.043491067366326346,-0.09637852711705294,0.029450872946212934,-0.012872087529284643,-0.02467070137299632,5.0
0.55239092468659,0.022551907627227984,-0.09351696201656862,0.029450872946212934,0.004832807905206703,-0.03220316314645955,5.0
0.5488256469250541,0.012082327757678809,-0.07062449130310647,0.0352357584880871,-0.010342816993935959,-0.015083931332999446,5.0
0.5416950914019816,0.017317117334512605,-0.1021016447954185,0.049435023674186604,-0.004651957807386975,-0.002758084735287087,5.0
0.55239092468659,0.043491067366326346,-0.09351696201656862,0.041020643829515535,0.016214526519311896,-0.005497161554001658,5.0
0.5488256469250541,0.022551907627227984,-0.09924007969493413,0.03628755586844812,0.012420619752259979,-0.023301162441640867,5.0
0.5452603691635176,0.012082327757678809,-0.0906554094386874,0.0352357584880871,-0.01856294767986252,-0.01576870060292786,5.0
0.55239092468659,0.006847536749081845,-0.09637852711705294,0.04049474559033792,-0.009078181726261616,-0.01576870060292786,5.0
0.5630867579712024,-0.003622042404585751,-0.09351696201656862,0.04575373199102868,-0.00022573364750511093,-0.021246854827604935,5.0
0.5559562024481272,0.0016127471722480467,-0.09637852711705294,0.04627963103198922,0.004200490150865921,-0.013029623588463978,5.0
0.5488256469250541,-0.003622042404585751,-0.09351696201656862,0.039968846549377386,0.003568172456776944,-0.009605777304071679,5.0
0.5488256469250541,0.022551907627227984,-0.09637852711705294,0.04259834015061423,0.0010389016201692318,-0.020562085622926298,5.0
0.5488256469250541,0.017317117334512605,-0.1021016447954185,0.03786525198910108,-0.010975134145758687,-0.018507777747891287,5.0
0.55239092468659,0.012082327757678809,-0.09637852711705294,0.04890912463322607,0.0023035370685989907,-0.017138239142784686,5.0
0.5488256469250541,0.012082327757678809,-0.08779384433820306,0.05469400927309444,-0.009710498878084346,-0.020562085622926298,5.0
0.5488256469250541,0.012082327757678809,-0.09351696201656862,0.04154654287047607,0.024434657205238453,-0.015083931332999446,5.0
0.5416950914019816,0.006847536749081845,-0.1021016447954185,0.04522783375185107,0.013052937868111594,-0.02467070137299632,5.0
0.5381298136404451,0.012082327757678809,-0.08779384433820306,0.029450872946212934,0.003568172456776944,-0.03494223996517412,5.0
0.5416950914019816,0.012082327757678809,-0.07348604388098766,0.021036493903324793,0.005465125539043875,-0.030833624737102272,5.0
0.5488256469250541,0.022551907627227984,-0.08779384433820306,0.010518520300160341,-0.00718122834273566,-0.009605777304071679,5.0
0.5559562024481272,0.012082327757678809,-0.08207072665983754,0.018407001103870873,-0.009078181726261616,-0.01029054650875032,5.0
0.55239092468659,0.006847536749081845,-0.10782476247378414,0.018932898541265564,-0.004651957807386975,-0.013029623588463978,5.0
0.5488256469250541,0.022551907627227984,-0.09924007969493413,0.03576165722837904,0.004200490150865921,-0.01166008491810761,5.0
0.5452603691635176,0.012082327757678809,-0.10782476247378414,0.056797605436936606,0.012420619752259979,-0.022616393236962226,5.0
0.5452603691635176,0.012082327757678809,-0.10782476247378414,0.06468608624064712,0.0256992915088839,-0.019192546952569927,5.0
0.5416950914019816,0.006847536749081845,-0.10496319737329961,0.06731557823831812,0.033287105042987736,-0.004127623144644375,5.0
0.5416950914019816,0.022551907627227984,-0.08779384433820306,0.07047096927694965,0.03897796422953673,-0.008921008099393038,5.0
0.5416950914019816,0.022551907627227984,-0.08779384433820306,0.06836737632023919,0.001671219374510014,-0.004812391827324844,5.0
0.5452603691635176,0.02778669756200258,-0.07920916155935318,0.07415226256367341,-0.009078181726261616,-0.010975315713428968,5.0
0.5488256469250541,0.0016127471722480467,-0.08207072665983754,0.0699450734431208,-0.009078181726261616,0.010252530675605288,5.0
0.5488256469250541,0.0016127471722480467,-0.08207072665983754,0.07415226256367341,-0.0033873220576981894,-0.006866699963358944,5.0
0.55239092468659,0.012082327757678809,-0.07634760898147201,0.05837530095625236,0.0010389016201692318,-0.010975315713428968,5.0
0.5488256469250541,0.02778669756200258,-0.08493229176032194,0.05732350287433127,-0.005916593075061315,-0.008236238372716228,5.0
0.5488256469250541,0.02778669756200258,-0.08493229176032194,0.04365013743075238,0.01052366733276291,-0.0034428534179675617,5.0
0.5416950914019816,0.02778669756200258,-0.08779384433820306,0.04259834015061423,0.018111479902837853,-0.026040239782353602,5.0
0.5345645358789063,0.017317117334512605,-0.07062449130310647,0.04838322559226552,0.011155984484585636,-0.00618193128067847,5.0
0.5345645358789063,0.017317117334512605,-0.07062449130310647,0.04470193471089053,0.01684684367113462,-0.022616393236962226,5.0
0.5416950914019816,0.012082327757678809,-0.08493229176032194,0.04154654287047607,0.006729761047725438,-0.020562085622926298,5.0
0.5381298136404451,-0.003622042404585751,-0.08493229176032194,0.03839115062917015,-0.011607452261610302,-0.008921008099393038,5.0
0.5452603691635176,-0.003622042404585751,-0.0906554094386874,0.03891704926923923,0.0010389016201692318,-0.018507777747891287,5.0
0.5488256469250541,-0.024561203575447263,-0.10782476247378414,0.03944294790930831,0.00799439631539978,-0.020562085622926298,5.0
0.5488256469250541,-0.003622042404585751,-0.0906554094386874,0.04522783375185107,0.003568172456776944,-0.013029623588463978,5.0
0.5416950914019816,0.0016127471722480467,-0.07348604388098766,0.0667896791973576,0.014949891251637551,-0.0178230084127131,5.0
0.5345645358789063,0.0016127471722480467,-0.07634760898147201,0.0667896791973576,0.004832807905206703,-0.018507777747891287,5.0
0.5416950914019816,0.0016127471722480467,-0.06776292620262213,0.05416811183569975,-0.005916593075061315,-0.008236238372716228,5.0
0.5452603691635176,-0.008856831981419535,-0.08493229176032194,0.056271706395976055,0.013685255983963212,-0.026040239782353602,5.0
0.5416950914019816,0.022551907627227984,-0.06776292620262213,0.04049474559033792,0.0023035370685989907,-0.019192546952569927,5.0
0.5345645358789063,0.012082327757678809,-0.07634760898147201,0.030502670226351086,-0.01856294767986252,-0.01234485412278625,5.0
0.5416950914019816,0.012082327757678809,-0.08779384433820306,0.03891704926923923,0.008626713949236952,-0.00618193128067847,5.0
0.5416950914019816,0.006847536749081845,-0.1021016447954185,0.04154654287047607,0.02317002097353522,-0.02467070137299632,5.0
0.5345645358789063,0.012082327757678809,-0.09351696201656862,0.03786525198910108,0.009259031583074123,-0.013029623588463978,5.0
0.5452603691635176,0.012082327757678809,-0.09351696201656862,0.03839115062917015,0.020008432322334922,-0.021246854827604935,5.0
0.55239092468659,-0.003622042404585751,-0.09351696201656862,0.03576165722837904,0.009891349216911295,-0.004812391827324844,5.0
0.5452603691635176,0.006847536749081845,-0.09351696201656862,0.025243683023877403,0.009259031583074123,-0.015083931332999446,5.0
0.5416950914019816,-0.003622042404585751,-0.10782476247378414,0.04627963103198922,0.0023035370685989907,-0.015083931332999446,5.0
0.5416950914019816,-0.014091621558253366,-0.08779384433820306,0.04838322559226552,0.0010389016201692318,-0.013714392793142618,5.0
0.5488256469250541,-0.014091621558253366,-0.1021016447954185,0.04838322559226552,0.006729761047725438,-0.014399161997821262,5.0
0.5488256469250541,0.0016127471722480467,-0.0906554094386874,0.03891704926923923,-0.002755004423861018,-0.02740977819171089,5.0
0.5274339803558339,-0.014091621558253366,-0.08493229176032194,0.05259041471281813,-0.016033675216456055,0.0013505304927847648,5.0
0.5345645358789063,0.012082327757678809,-0.0906554094386874,0.043124239191574765,-0.004651957807386975,-0.021246854827604935,5.0
0.5345645358789063,0.012082327757678809,-0.08779384433820306,0.02839907566607478,-0.0040196396915353596,-0.010975315713428968,5.0
0.5416950914019816,0.012082327757678809,-0.0906554094386874,0.037339353349032,-0.009078181726261616,-0.0280945479183877,5.0
0.5309992581173698,0.006847536749081845,-0.07348604388098766,0.029450872946212934,-0.0033873220576981894,-0.009605777304071679,5.0
0.5345645358789063,0.012082327757678809,-0.08779384433820306,0.04154654287047607,-0.017930629564010907,-0.002758084735287087,5.0
0.5416950914019816,0.017317117334512605,-0.08493229176032194,0.05416811183569975,0.014317573135785935,-0.02193162403228358,5.0
0.5452603691635176,0.022551907627227984,-0.116409445252634,0.03786525198910108,0.014949891251637551,-0.01234485412278625,5.0
0.5452603691635176,0.02778669756200258,-0.09924007969493413,0.04470193471089053,0.0060974431728810456,-0.019192546952569927,5.0
0.5416950914019816,0.03825627743155175,-0.1021016447954185,0.039968846549377386,-0.005916593075061315,-0.006866699963358944,5.0
0.5416950914019816,0.017317117334512605,-0.07920916155935318,0.02892497430614386,-0.0033873220576981894,-0.01166008491810761,5.0
0.5381298136404451,0.012082327757678809,-0.09351696201656862,0.041020643829515535,-0.015401359028662217,-0.01576870060292786,5.0
0.5381298136404451,0.006847536749081845,-0.08207072665983754,0.02892497430614386,-0.001490369156186674,-0.020562085622926298,5.0
0.5452603691635176,0.012082327757678809,-0.09351696201656862,0.03313216372736506,0.009259031583074123,-0.02193162403228358,5.0
0.5452603691635176,0.012082327757678809,-0.09351696201656862,0.023665987504561635,0.009891349216911295,-0.03357270155581683,5.0
0.5381298136404451,0.0016127471722480467,-0.07920916155935318,0.026821379344976092,-0.00022573364750511093,-0.013029623588463978,5.0
0.5452603691635176,0.012082327757678809,-0.09351696201656862,0.037339353349032,-0.010342816993935959,-0.022616393236962226,5.0
0.5416950914019816,0.012082327757678809,-0.07920916155935318,0.02892497430614386,-0.002755004423861018,-0.025355470055676795,5.0
0.5416950914019816,0.012082327757678809,-0.07920916155935318,0.031028568866420164,0.0010389016201692318,-0.02467070137299632,5.0
0.55239092468659,-0.008856831981419535,-0.0906554094386874,0.02419188574373925,0.007362078681562609,-0.01576870060292786,5.0
0.5452603691635176,0.012082327757678809,-0.08779384433820306,0.039968846549377386,0.0010389016201692318,-0.01987731615724857,5.0
0.5452603691635176,0.012082327757678809,-0.08779384433820306,0.04838322559226552,0.005465125539043875,-0.01987731615724857,5.0
0.5381298136404451,0.012082327757678809,-0.0906554094386874,0.044176036471712914,-0.0033873220576981894,-0.02193162403228358,5.0
0.5416950914019816,-0.003622042404585751,-0.09351696201656862,0.027873176625114245,-0.00844586361041,0.002720069946138388,5.0
0.5381298136404451,0.022551907627227984,-0.07634760898147201,0.04154654287047607,0.0060974431728810456,-0.018507777747891287,5.0
0.5416950914019816,0.0016127471722480467,-0.07348604388098766,0.04049474559033792,0.00040658398633205983,0.005459146764852957,5.0
0.5416950914019816,0.022551907627227984,-0.10782476247378414,0.043124239191574765,0.008626713949236952,-0.013029623588463978,5.0
0.5416950914019816,0.012082327757678809,-0.1021016447954185,0.047331428312127374,0.012420619752259979,0.004774377038176145,5.0
0.5488256469250541,0.022551907627227984,-0.09351696201656862,0.04627963103198922,0.018111479902837853,-0.007551469690035754,5.0
0.5488256469250541,0.006847536749081845,-0.08779384433820306,0.05364221279473922,0.01052366733276291,-0.02672500846503408,5.0
0.5452603691635176,-0.003622042404585751,-0.07348604388098766,0.04996092111158129,0.01052366733276291,-0.0178230084127131,5.0
0.5381298136404451,0.0016127471722480467,-0.08779384433820306,0.04207244110965369,0.009259031583074123,-0.009605777304071679,5.0
0.5416950914019816,0.02778669756200258,-0.09351696201656862,0.049435023674186604,0.006729761047725438,-0.03631177941852775,5.0
0.5488256469250541,0.012082327757678809,-0.10782476247378414,0.04838322559226552,0.019376114206483306,-0.014399161997821262,5.0
0.5488256469250541,-0.003622042404585751,-0.0906554094386874,0.04838322559226552,0.02127306855403815,-0.014399161997821262,5.0
0.5345645358789063,0.0016127471722480467,-0.09351696201656862,0.06416018719968658,-0.012239770377461916,-0.01234485412278625,5.0
0.5452603691635176,0.017317117334512605,-0.10496319737329961,0.05364221279473922,0.01178830260043725,-0.002073315008610277,5.0
0.55239092468659,0.02778669756200258,-0.09924007969493413,0.05732350287433127,0.018743797054660578,-0.023301162441640867,5.0
0.55239092468659,0.022551907627227984,-0.10782476247378414,0.05784940191529182,0.02759624392838098,-0.02398593164631951,5.0
0.55239092468659,0.012082327757678809,-0.1021016447954185,0.043124239191574765,0.008626713949236952,-0.025355470055676795,5.0
0.5488256469250541,0.02778669756200258,-0.07634760898147201,0.04049474559033792,0.020008432322334922,-0.03357270155581683,5.0
0.5488256469250541,0.0016127471722480467,-0.08779384433820306,0.043124239191574765,0.004832807905206703,-0.02672500846503408,5.0
0.55239092468659,0.012082327757678809,-0.09351696201656862,0.04627963103198922,0.0060974431728810456,-0.02740977819171089,5.0
0.5488256469250541,-0.003622042404585751,-0.10782476247378414,0.04470193471089053,0.008626713949236952,-0.013029623588463978,5.0
0.55239092468659,0.006847536749081845,-0.10782476247378414,0.04470193471089053,0.01052366733276291,-0.0034428534179675617,5.0
0.55239092468659,0.0016127471722480467,-0.0906554094386874,0.04522783375185107,0.0320224688112845,-0.030833624737102272,5.0
0.5452603691635176,0.006847536749081845,-0.09637852711705294,0.047857326551304986,0.011155984484585636,-0.03151839341978274,5.0
0.5488256469250541,0.012082327757678809,-0.08779384433820306,0.049435023674186604,0.016214526519311896,-0.02740977819171089,5.0
0.5381298136404451,0.012082327757678809,-0.08779384433820306,0.041020643829515535,0.014317573135785935,-0.02740977819171089,5.0
0.5345645358789063,0.017317117334512605,-0.0906554094386874,0.04522783375185107,0.008626713949236952,-0.021246854827604935,5.0
0.5274339803558339,0.03825627743155175,-0.08779384433820306,0.044176036471712914,0.006729761047725438,-0.004127623144644375,5.0
0.5345645358789063,0.043491067366326346,-0.07634760898147201,0.04259834015061423,0.00040658398633205983,-0.010975315713428968,5.0
0.5488256469250541,0.022551907627227984,-0.0906554094386874,0.05311631375377867,0.02949319827593582,-0.03494223996517412,5.0
0.5488256469250541,0.012082327757678809,-0.08207072665983754,0.05416811183569975,0.0060974431728810456,-0.006866699963358944,5.0
0.5381298136404451,0.006847536749081845,-0.07348604388098766,0.03628755586844812,0.013685255983963212,-0.03631177941852775,5.0
0.5488256469250541,0.012082327757678809,-0.06776292620262213,0.04207244110965369,0.01052366733276291,-0.03631177941852775,5.0
0.5416950914019816,0.022551907627227984,-0.0906554094386874,0.044176036471712914,0.00799439631539978,-0.023301162441640867,5.0
0.5416950914019816,0.012082327757678809,-0.0906554094386874,0.04680553007294976,0.004200490150865921,-0.030833624737102272,5.0
0.5345645358789063,0.012082327757678809,-0.07920916155935318,0.04207244110965369,0.013685255983963212,-0.022616393236962226,5.0
0.55239092468659,0.006847536749081845,-0.08779384433820306,0.05048682015254183,0.015582208403460281,-0.01576870060292786,5.0
0.55239092468659,0.017317117334512605,-0.0906554094386874,0.056797605436936606,0.01684684367113462,-0.02877931660106817,5.0
0.5416950914019816,0.022551907627227984,-0.08779384433820306,0.04575373199102868,0.001671219374510014,-0.03357270155581683,5.0
0.5381298136404451,0.012082327757678809,-0.09351696201656862,0.05311631375377867,0.0023035370685989907,-0.020562085622926298,5.0
0.5452603691635176,0.022551907627227984,-0.07062449130310647,0.04996092111158129,0.008626713949236952,-0.021246854827604935,5.0
0.5488256469250541,0.022551907627227984,-0.053455138268009926,0.043124239191574765,0.004832807905206703,-0.013029623588463978,5.0
0.5452603691635176,0.012082327757678809,-0.08207072665983754,0.037339353349032,0.01684684367113462,-0.018507777747891287,5.0
0.5416950914019816,0.006847536749081845,-0.07920916155935318,0.05259041471281813,0.012420619752259979,-0.03151839341978274,5.0
0.5416950914019816,0.006847536749081845,-0.07920916155935318,0.04890912463322607,0.006729761047725438,-0.014399161997821262,5.0
0.5452603691635176,0.0016127471722480467,-0.06776292620262213,0.049435023674186604,0.009891349216911295,-0.02672500846503408,5.0
0.5452603691635176,0.022551907627227984,-0.06776292620262213,0.05469400927309444,0.018111479902837853,-0.02467070137299632,5.0
0.5416950914019816,0.043491067366326346,-0.06776292620262213,0.049435023674186604,0.014949891251637551,-0.013714392793142618,5.0
0.5488256469250541,0.043491067366326346,-0.08779384433820306,0.03891704926923923,0.009259031583074123,-0.01029054650875032,5.0
0.5488256469250541,0.022551907627227984,-0.08779384433820306,0.03365806241754558,0.024434657205238453,-0.013029623588463978,5.0
0.5416950914019816,0.022551907627227984,-0.07348604388098766,0.04207244110965369,0.012420619752259979,-0.018507777747891287,5.0
0.5488256469250541,0.022551907627227984,-0.08779384433820306,0.04470193471089053,0.03581637365027865,-0.015083931332999446,5.0
0.5452603691635176,0.006847536749081845,-0.06490137362474094,0.04996092111158129,0.02317002097353522,-0.01029054650875032,5.0
0.5488256469250541,0.006847536749081845,-0.08779384433820306,0.051538618234462916,0.009259031583074123,-0.013714392793142618,5.0
0.5452603691635176,0.022551907627227984,-0.08493229176032194,0.05101271919350237,0.020640750438186535,-0.0034428534179675617,5.0
0.559521480209666,0.02778669756200258,-0.08779384433820306,0.04627963103198922,0.024434657205238453,-0.030148855010425458,5.0
0.5452603691635176,0.02778669756200258,-0.1021016447954185,0.04627963103198922,0.016214526519311896,-0.01234485412278625,5.0
0.5416950914019816,0.017317117334512605,-0.08779384433820306,0.031028568866420164,0.008626713949236952,-0.02467070137299632,5.0
0.5452603691635176,0.022551907627227984,-0.07634760898147201,0.029450872946212934,0.009891349216911295,-0.002758084735287087,5.0
0.5488256469250541,0.006847536749081845,-0.08207072665983754,0.0352357584880871,-0.0052842749592097015,-0.01987731615724857,5.0
0.5452603691635176,0.022551907627227984,-0.08779384433820306,0.051538618234462916,0.02317002097353522,-0.014399161997821262,5.0
0.5416950914019816,0.022551907627227984,-0.08779384433820306,0.05048682015254183,0.02759624392838098,-0.00618193128067847,5.0
0.5416950914019816,0.022551907627227984,-0.08779384433820306,0.05416811183569975,-0.002755004423861018,-0.01166008491810761,5.0
0.5559562024481272,-0.003622042404585751,-0.08207072665983754,0.047857326551304986,0.0023035370685989907,-0.010975315713428968,5.0
0.5488256469250541,0.022551907627227984,-0.07920916155935318,0.05048682015254183,0.016214526519311896,0.0020353002194615764,5.0
0.5488256469250541,0.022551907627227984,-0.07920916155935318,0.059427099038173434,0.014317573135785935,-0.002073315008610277,5.0
0.5452603691635176,-0.003622042404585751,-0.06776292620262213,0.04259834015061423,-0.0008580515223495036,-0.015083931332999446,5.0
0.55239092468659,0.017317117334512605,-0.07348604388098766,0.03260626498707312,0.004200490150865921,-0.022616393236962226,5.0
0.55239092468659,0.017317117334512605,-0.07348604388098766,0.04575373199102868,0.006729761047725438,-0.023301162441640867,5.0
0.55239092468659,0.022551907627227984,-0.05917825594637542,0.03891704926923923,0.01684684367113462,-0.02672500846503408,5.0
0.5452603691635176,0.022551907627227984,-0.08779384433820306,0.05469400927309444,0.004200490150865921,-0.018507777747891287,5.0
0.5452603691635176,0.022551907627227984,-0.08779384433820306,0.04890912463322607,0.0060974431728810456,-0.014399161997821262,5.0
0.5488256469250541,0.017317117334512605,-0.09637852711705294,0.04470193471089053,0.017479161786986237,-0.01987731615724857,5.0
0.5345645358789063,-0.003622042404585751,-0.07920916155935318,0.04365013743075238,0.015582208403460281,-0.01987731615724857,5.0
0.5416950914019816,0.017317117334512605,-0.07920916155935318,0.04049474559033792,-0.0033873220576981894,-0.009605777304071679,5.0
0.5416950914019816,0.017317117334512605,-0.07920916155935318,0.036813454508517196,0.0010389016201692318,-0.01576870060292786,5.0
0.5416950914019816,0.02778669756200258,-0.08493229176032194,0.03155446770693497,0.014317573135785935,-0.030833624737102272,5.0
0.5488256469250541,0.022551907627227984,-0.08779384433820306,0.03944294790930831,-0.005916593075061315,-0.022616393236962226,5.0
0.5488256469250541,0.022551907627227984,-0.08779384433820306,0.05311631375377867,-0.0008580515223495036,-0.023301162441640867,5.0
0.5488256469250541,0.012082327757678809,-0.06490137362474094,0.04470193471089053,-0.002755004423861018,-0.010975315713428968,5.0
0.5559562024481272,0.022551907627227984,-0.07348604388098766,0.04365013743075238,0.014949891251637551,-0.014399161997821262,5.0
0.55239092468659,0.022551907627227984,-0.07634760898147201,0.04049474559033792,0.009259031583074123,-0.013714392793142618,5.0
0.5488256469250541,0.022551907627227984,-0.08779384433820306,0.04522783375185107,-0.0021226867900238453,-0.017138239142784686,5.0
0.5345645358789063,0.022551907627227984,-0.08207072665983754,0.06205659103584443,-0.00022573364750511093,0.0006657618101042899,5.0
0.5452603691635176,-0.014091621558253366,-0.07062449130310647,0.06205659103584443,0.0023035370685989907,-0.01987731615724857,5.0
0.5381298136404451,0.012082327757678809,-0.08779384433820306,0.06205659103584443,0.013052937868111594,-0.00618193128067847,5.0
0.5452603691635176,0.02778669756200258,-0.0906554094386874,0.05311631375377867,0.00799439631539978,-0.008921008099393038,5.0
0.5416950914019816,0.022551907627227984,-0.08779384433820306,0.05364221279473922,0.004200490150865921,-0.0178230084127131,5.0
0.5488256469250541,0.012082327757678809,-0.09924007969493413,0.056797605436936606,0.0010389016201692318,-0.0034428534179675617,5.0
0.5488256469250541,0.012082327757678809,-0.10496319737329961,0.036813454508517196,0.003568172456776944,-0.013714392793142618,5.0
0.5488256469250541,0.022551907627227984,-0.09351696201656862,0.04207244110965369,-0.0033873220576981894,-0.02740977819171089,5.0
0.5452603691635176,0.022551907627227984,-0.09351696201656862,0.03470985979790659,0.004200490150865921,-0.023301162441640867,5.0
0.5381298136404451,0.02778669756200258,-0.09637852711705294,0.030502670226351086,0.004832807905206703,-0.008921008099393038,5.0
0.5559562024481272,0.017317117334512605,-0.08779384433820306,0.025243683023877403,0.015582208403460281,-0.015083931332999446,5.0
0.55239092468659,0.022551907627227984,-0.08779384433820306,0.027873176625114245,0.008626713949236952,-0.030148855010425458,5.0
0.5488256469250541,0.022551907627227984,-0.09637852711705294,0.02734727838593663,0.014949891251637551,-0.019192546952569927,5.0
0.5488256469250541,0.012082327757678809,-0.07920916155935318,0.03208036634700405,0.02633160962473553,-0.018507777747891287,5.0
0.55239092468659,0.006847536749081845,-0.07348604388098766,0.049435023674186604,0.009259031583074123,-0.01029054650875032,5.0
0.5488256469250541,0.012082327757678809,-0.07062449130310647,0.04470193471089053,0.0010389016201692318,-0.01987731615724857,5.0
0.559521480209666,0.006847536749081845,-0.07634760898147201,0.05416811183569975,0.0010389016201692318,-0.01576870060292786,5.0
0.55239092468659,0.006847536749081845,-0.07920916155935318,0.05259041471281813,0.003568172456776944,-0.03425747023849731,5.0
0.5488256469250541,0.012082327757678809,-0.08779384433820306,0.05784940191529182,0.003568172456776944,-0.020562085622926298,5.0
0.5416950914019816,0.012082327757678809,-0.07920916155935318,0.047331428312127374,-0.001490369156186674,-0.01234485412278625,5.0
0.5381298136404451,0.022551907627227984,-0.07062449130310647,0.05101271919350237,-0.0008580515223495036,-1.900687257618088e-05,5.0
0.5345645358789063,0.022551907627227984,-0.07634760898147201,0.04680553007294976,-0.012872087529284643,-0.01166008491810761,5.0
0.5452603691635176,0.022551907627227984,-0.08493229176032194,0.049435023674186604,0.015582208403460281,-0.029464086327744988,5.0
0.5452603691635176,0.03825627743155175,-0.08779384433820306,0.052064517275423446,0.009259031583074123,-0.0178230084127131,5.0
0.5452603691635176,0.02778669756200258,-0.1021016447954185,0.03891704926923923,0.00040658398633205983,-0.021246854827604935,5.0
0.5345645358789063,0.02778669756200258,-0.07920916155935318,0.05101271919350237,-0.001490369156186674,-0.023301162441640867,5.0
0.5345645358789063,0.022551907627227984,-0.08207072665983754,0.044176036471712914,-0.0033873220576981894,-0.01234485412278625,5.0
0.55239092468659,0.012082327757678809,-0.0906554094386874,0.04207244110965369,0.013052937868111594,-0.0007037765992529926,5.0
0.55239092468659,-0.003622042404585751,-0.07634760898147201,0.04470193471089053,0.018743797054660578,-0.01987731615724857,5.0
0.5416950914019816,0.012082327757678809,-0.08779384433820306,0.037339353349032,0.005465125539043875,-0.006866699963358944,5.0
0.5452603691635176,0.022551907627227984,-0.08779384433820306,0.03891704926923923,0.018743797054660578,-0.021246854827604935,5.0
0.5416950914019816,0.02778669756200258,-0.09351696201656862,0.04890912463322607,-0.011607452261610302,-0.004127623144644375,5.0
0.5452603691635176,0.012082327757678809,-0.07348604388098766,0.04890912463322607,-0.009078181726261616,-0.017138239142784686,5.0
0.55239092468659,0.006847536749081845,-0.07634760898147201,0.03944294790930831,0.013685255983963212,-0.008921008099393038,5.0
0.5416950914019816,0.03825627743155175,-0.07920916155935318,0.03628755586844812,-0.0033873220576981894,-0.021246854827604935,5.0
0.5452603691635176,0.022551907627227984,-0.08493229176032194,0.03786525198910108,-0.0008580515223495036,0.004089607311499334,5.0
0.5381298136404451,0.043491067366326346,-0.07348604388098766,0.03208036634700405,-0.00022573364750511093,-0.02398593164631951,5.0
0.5452603691635176,0.043491067366326346,-0.08493229176032194,0.03313216372736506,-0.009078181726261616,-0.004127623144644375,5.0
0.5416950914019816,0.043491067366326346,-0.08779384433820306,0.04154654287047607,0.01178830260043725,-0.014399161997821262,5.0
0.5488256469250541,0.043491067366326346,-0.09924007969493413,0.0352357584880871,0.011155984484585636,-0.004127623144644375,5.0
0.5488256469250541,0.043491067366326346,-0.1021016447954185,0.05311631375377867,0.00799439631539978,-0.023301162441640867,5.0
0.5345645358789063,0.017317117334512605,-0.10496319737329961,0.05048682015254183,0.006729761047725438,-0.017138239142784686,5.0
0.5416950914019816,0.022551907627227984,-0.09351696201656862,0.05048682015254183,0.004200490150865921,-0.01029054650875032,5.0
0.55239092468659,0.012082327757678809,-0.0906554094386874,0.05101271919350237,0.003568172456776944,-0.015083931332999446,5.0
0.5488256469250541,0.02778669756200258,-0.10496319737329961,0.03786525198910108,0.001671219374510014,-0.004812391827324844,5.0
0.5345645358789063,0.02778669756200258,-0.07920916155935318,0.04259834015061423,0.0060974431728810456,-0.008236238372716228,5.0
0.5416950914019816,0.02778669756200258,-0.07062449130310647,0.04365013743075238,0.015582208403460281,-0.017138239142784686,5.0
0.5488256469250541,0.02778669756200258,-0.07920916155935318,0.04838322559226552,0.0023035370685989907,-0.004127623144644375,5.0
0.5488256469250541,0.02778669756200258,-0.07920916155935318,0.03839115062917015,0.014949891251637551,-0.0034428534179675617,5.0
0.5452603691635176,0.022551907627227984,-0.08493229176032194,0.029976771586282012,0.015582208403460281,-0.01576870060292786,5.0
0.5488256469250541,0.02778669756200258,-0.07634760898147201,0.04049474559033792,-0.0033873220576981894,-0.013714392793142618,5.0
0.5416950914019816,0.012082327757678809,-0.05917825594637542,0.061530691994883896,0.0060974431728810456,-0.03425747023849731,5.0
0.5416950914019816,0.012082327757678809,-0.05917825594637542,0.06626378015639704,0.02317002097353522,-0.0034428534179675617,5.0
0.5488256469250541,0.022551907627227984,-0.07348604388098766,0.06205659103584443,0.005465125539043875,-0.025355470055676795,5.0
0.5416950914019816,0.022551907627227984,-0.06490137362474094,0.052064517275423446,0.003568172456776944,-0.015083931332999446,5.0
0.5452603691635176,0.012082327757678809,-0.07920916155935318,0.05995299647556813,0.004200490150865921,-0.0178230084127131,5.0
0.5452603691635176,0.012082327757678809,-0.07920916155935318,0.06889327536119973,0.02317002097353522,-0.01029054650875032,5.0
0.5416950914019816,0.012082327757678809,-0.039147337810794464,0.05101271919350237,-0.0021226867900238453,-0.0280945479183877,5.0
0.5416950914019816,0.022551907627227984,-0.05917825594637542,0.05416811183569975,0.007362078681562609,-0.010975315713428968,5.0
0.5416950914019816,0.022551907627227984,-0.05917825594637542,0.05837530095625236,0.014317573135785935,-0.03562700969185094,5.0
0.5452603691635176,0.022551907627227984,-0.07062449130310647,0.04890912463322607,0.009891349216911295,-0.023301162441640867,5.0
0.5452603691635176,0.017317117334512605,-0.08779384433820306,0.05784940191529182,0.009259031583074123,-0.006866699963358944,5.0
0.5452603691635176,0.017317117334512605,-0.08779384433820306,0.051538618234462916,0.014317573135785935,-0.018507777747891287,5.0
0.5488256469250541,0.017317117334512605,-0.06776292620262213,0.041020643829515535,0.018111479902837853,-0.013029623588463978,5.0
0.5452603691635176,0.02778669756200258,-0.06490137362474094,0.052064517275423446,0.001671219374510014,-0.020562085622926298,5.0
0.5452603691635176,0.022551907627227984,-0.10496319737329961,0.047331428312127374,0.03644869176613026,-0.02877931660106817,5.0
0.5488256469250541,0.022551907627227984,-0.0906554094386874,0.044176036471712914,0.005465125539043875,-0.0178230084127131,5.0
0.5416950914019816,0.012082327757678809,-0.07348604388098766,0.04890912463322607,0.00799439631539978,-0.02398593164631951,5.0
0.5416950914019816,0.012082327757678809,-0.07920916155935318,0.052064517275423446,-0.00022573364750511093,-0.022616393236962226,5.0
0.5452603691635176,0.022551907627227984,-0.07348604388098766,0.04259834015061423,0.004832807905206703,-0.0178230084127131,5.0
0.5488256469250541,0.02778669756200258,-0.08493229176032194,0.037339353349032,0.013052937868111594,-0.02672500846503408,5.0
0.559521480209666,0.022551907627227984,-0.07920916155935318,0.04522783375185107,-0.0008580515223495036,-0.0013885463259298042,5.0
0.5488256469250541,0.017317117334512605,-0.06776292620262213,0.04680553007294976,0.006729761047725438,-0.007551469690035754,5.0
0.55239092468659,0.02778669756200258,-0.07920916155935318,0.039968846549377386,-0.002755004423861018,-0.0013885463259298042,5.0
0.5559562024481272,0.022551907627227984,-0.08493229176032194,0.03155446770693497,0.001671219374510014,-0.019192546952569927,5.0
0.5416950914019816,0.022551907627227984,-0.06490137362474094,0.03576165722837904,0.02127306855403815,-0.01576870060292786,5.0
0.5452603691635176,0.022551907627227984,-0.05917825594637542,0.04207244110965369,-0.009078181726261616,-0.02672500846503408,5.0
0.5488256469250541,0.022551907627227984,-0.07920916155935318,0.029976771586282012,-0.020459900099359593,-0.008236238372716228,5.0
0.559521480209666,0.012082327757678809,-0.07348604388098766,0.044176036471712914,0.0023035370685989907,-0.00618193128067847,5.0
0.559521480209666,-0.003622042404585751,-0.07920916155935318,0.037339353349032,0.012420619752259979,-0.008921008099393038,5.0
0.5488256469250541,0.02778669756200258,-0.07920916155935318,0.03786525198910108,0.005465125539043875,-0.01576870060292786,5.0
0.55239092468659,0.022551907627227984,-0.09637852711705294,0.047857326551304986,0.0010389016201692318,-0.013714392793142618,5.0
0.5381298136404451,0.022551907627227984,-0.08493229176032194,0.037339353349032,-0.002755004423861018,0.002720069946138388,5.0
0.5416950914019816,0.022551907627227984,-0.08779384433820306,0.03839115062917015,0.01052366733276291,-0.002758084735287087,5.0
0.5488256469250541,0.04872585765904173,-0.08493229176032194,0.04627963103198922,0.006729761047725438,-0.021246854827604935,5.0
0.5345645358789063,0.05396064723587552,-0.1021016447954185,0.03365806241754558,-0.0021226867900238453,-0.0013885463259298042,5.0
0.5452603691635176,0.05396064723587552,-0.08779384433820306,0.04259834015061423,-0.023621488750559885,0.008882993310244346,5.0
0.5488256469250541,0.02778669756200258,-0.07920916155935318,0.04627963103198922,-0.0052842749592097015,-0.013029623588463978,5.0
0.5488256469250541,0.02778669756200258,-0.07062449130310647,0.05048682015254183,-0.0033873220576981894,-0.01576870060292786,5.0
0.5416950914019816,0.02778669756200258,-0.08493229176032194,0.04207244110965369,0.0023035370685989907,-0.007551469690035754,5.0
0.5452603691635176,0.02778669756200258,-0.09351696201656862,0.047857326551304986,-0.002755004423861018,-0.01029054650875032,5.0
0.5416950914019816,0.02778669756200258,-0.06776292620262213,0.04996092111158129,0.00040658398633205983,-0.01234485412278625,5.0
0.5452603691635176,0.02778669756200258,-0.09637852711705294,0.051538618234462916,-0.011607452261610302,-0.005497161554001658,5.0
0.5488256469250541,0.022551907627227984,-0.1021016447954185,0.059427099038173434,-0.005916593075061315,-0.004127623144644375,5.0
0.5452603691635176,0.022551907627227984,-0.10496319737329961,0.026821379344976092,-0.0040196396915353596,-0.007551469690035754,5.0
0.55239092468659,0.022551907627227984,-0.07062449130310647,0.04470193471089053,-0.0052842749592097015,-0.008921008099393038,5.0
0.5488256469250541,0.022551907627227984,-0.07634760898147201,0.04575373199102868,-0.011607452261610302,-0.002758084735287087,5.0
0.5416950914019816,0.012082327757678809,-0.07348604388098766,0.03891704926923923,-0.014136722796958986,0.0020353002194615764,5.0
0.5452603691635176,0.006847536749081845,-0.07348604388098766,0.047857326551304986,-0.0008580515223495036,-0.01029054650875032,5.0
0.5452603691635176,0.02778669756200258,-0.10496319737329961,0.04627963103198922,-0.014769040912810602,-0.013714392793142618,5.0
0.5416950914019816,0.012082327757678809,-0.09924007969493413,0.05048682015254183,-0.005916593075061315,0.002720069946138388,5.0
0.5416950914019816,0.022551907627227984,-0.0906554094386874,0.039968846549377386,-0.01856294767986252,-0.0007037765992529926,5.0
0.5488256469250541,0.022551907627227984,-0.07348604388098766,0.03470985979790659,-0.012872087529284643,-1.900687257618088e-05,5.0
0.5488256469250541,0.022551907627227984,-0.07348604388098766,0.04890912463322607,-0.02488612305420533,0.0006657618101042899,5.0
0.5416950914019816,0.022551907627227984,-0.08207072665983754,0.036813454508517196,-0.052708100871098645,0.021208840038456234,5.0
0.5488256469250541,0.012082327757678809,-0.07920916155935318,0.04680553007294976,-0.052075782755247046,0.01436114694767348,5.0
0.5488256469250541,0.022551907627227984,-0.07920916155935318,0.03260626498707312,-0.0489141960321045,0.015045916674350283,5.0
0.5416950914019816,0.03825627743155175,-0.07634760898147201,0.047857326551304986,-0.05017883226380774,0.004089607311499334,5.0
0.5452603691635176,0.017317117334512605,-0.08779384433820306,0.04154654287047607,-0.0489141960321045,0.012306839855635719,5.0
0.5452603691635176,0.012082327757678809,-0.10782476247378414,0.05364221279473922,-0.04195870061385229,0.005459146764852957,5.0
0.5416950914019816,0.006847536749081845,-0.09637852711705294,0.04996092111158129,-0.030576982240754325,0.007513453856890719,5.0
0.5345645358789063,-0.003622042404585751,-0.09351696201656862,0.044176036471712914,-0.04259101872970392,-0.008921008099393038,5.0
0.5345645358789063,-0.003622042404585751,-0.09351696201656862,0.04996092111158129,-0.026783077401760193,-0.0013885463259298042,5.0
0.5452603691635176,0.022551907627227984,-0.07920916155935318,0.04996092111158129,-0.02868002982125725,-0.002073315008610277,5.0
0.5345645358789063,0.017317117334512605,-0.0906554094386874,0.044176036471712914,-0.020459900099359593,-0.008236238372716228,5.0
0.5345645358789063,0.017317117334512605,-0.0906554094386874,0.047331428312127374,-0.026150759285908567,-0.017138239142784686,5.0
0.5381298136404451,-0.014091621558253366,-0.09637852711705294,0.04207244110965369,-0.038164795774858165,0.005459146764852957,5.0
0.5488256469250541,-0.003622042404585751,-0.10496319737329961,0.044176036471712914,-0.01666599333230767,-0.01029054650875032,5.0
0.5488256469250541,-0.003622042404585751,-0.10496319737329961,0.03628755586844812,-0.017298311448159288,0.002720069946138388,5.0
0.5345645358789063,0.012082327757678809,-0.1021016447954185,0.041020643829515535,-0.00844586361041,0.013676377220996653,5.0
0.5416950914019816,0.012082327757678809,-0.09351696201656862,0.03208036634700405,-0.020459900099359593,-0.009605777304071679,5.0
0.5345645358789063,0.006847536749081845,-0.09351696201656862,0.04996092111158129,-0.016033675216456055,-0.018507777747891287,5.0
0.5381298136404451,-0.003622042404585751,-0.10496319737329961,0.051538618234462916,-0.01919526386765636,-0.004812391827324844,5.0
0.5559562024481272,0.017317117334512605,-0.09637852711705294,0.04470193471089053,-0.01666599333230767,0.01915453085842581,5.0
0.5488256469250541,-0.003622042404585751,-0.1021016447954185,0.04154654287047607,-0.009710498878084346,0.01436114694767348,5.0
0.5559562024481272,-0.003622042404585751,-0.1021016447954185,0.04049474559033792,-0.021724534403005043,-0.02672500846503408,5.0
0.5488256469250541,0.0016127471722480467,-0.09637852711705294,0.047331428312127374,-0.015401359028662217,-0.00618193128067847,5.0
0.5416950914019816,-0.003622042404585751,-0.08493229176032194,0.044176036471712914,-0.02235685251885665,-0.013714392793142618,5.0
0.5416950914019816,0.0016127471722480467,-0.1335787857651274,0.044176036471712914,-0.017298311448159288,-0.0013885463259298042,5.0
0.5488256469250541,0.012082327757678809,-0.09924007969493413,0.05574580735501552,-0.01666599333230767,0.0013505304927847648,5.0
0.5488256469250541,-0.014091621558253366,-0.10496319737329961,0.05837530095625236,-0.029312347937108876,0.01778499349306485,5.0
0.5416950914019816,-0.003622042404585751,-0.11354788015214949,0.07152276735887073,-0.021092218215211202,0.0034048396728152,5.0
0.5559562024481272,-0.003622042404585751,-0.07920916155935318,0.06626378015639704,-0.015401359028662217,-0.005497161554001658,5.0
0.5488256469250541,0.006847536749081845,-0.09924007969493413,0.06521198528160765,-0.04069406438214906,0.007513453856890719,5.0
0.5452603691635176,0.012082327757678809,-0.09924007969493413,0.04627963103198922,-0.03247393658830916,0.010252530675605288,5.0
0.5345645358789063,0.012082327757678809,-0.10496319737329961,0.06205659103584443,-0.028047711705405643,-0.0007037765992529926,5.0
0.5452603691635176,0.022551907627227984,-0.10782476247378414,0.049435023674186604,-0.021724534403005043,0.006143916491529777,5.0
0.5416950914019816,-0.003622042404585751,-0.1021016447954185,0.05732350287433127,-0.025518441170056957,-0.017138239142784686,5.0
0.5416950914019816,0.012082327757678809,-0.09351696201656862,0.05364221279473922,-0.03563552331145169,-0.006866699963358944,5.0
0.5452603691635176,0.006847536749081845,-0.09924007969493413,0.06468608624064712,-0.033106254704160794,-0.004127623144644375,5.0
0.5452603691635176,-0.003622042404585751,-0.116409445252634,0.0610047945574892,-0.01856294767986252,-0.01234485412278625,5.0
0.5488256469250541,0.006847536749081845,-0.11927098530791198,0.05995299647556813,-0.007813546458587277,-0.01576870060292786,5.0
0.5488256469250541,0.0016127471722480467,-0.11927098530791198,0.06205659103584443,-0.011607452261610302,-0.01166008491810761,5.0
0.5488256469250541,-0.01932641399861347,-0.11927098530791198,0.05364221279473922,-0.014136722796958986,-0.017138239142784686,5.0
0.5416950914019816,-0.003622042404585751,-0.10782476247378414,0.05259041471281813,-0.016033675216456055,-0.014399161997821262,5.0
0.5488256469250541,-0.008856831981419535,-0.13071722066464292,0.04680553007294976,-0.007813546458587277,-0.01234485412278625,5.0
0.55239092468659,-0.014091621558253366,-0.11068631505166518,0.051538618234462916,-0.014769040912810602,-0.013029623588463978,5.0
0.5452603691635176,-0.003622042404585751,-0.116409445252634,0.041020643829515535,-0.006548910226884044,-0.014399161997821262,5.0
0.5416950914019816,0.017317117334512605,-0.10782476247378414,0.04154654287047607,-0.00022573364750511093,-0.0280945479183877,5.0
0.5416950914019816,0.012082327757678809,-0.11068631505166518,0.0352357584880871,0.001671219374510014,-0.0007037765992529926,5.0
0.5345645358789063,-0.003622042404585751,-0.09924007969493413,0.03891704926923923,0.01052366733276291,-0.007551469690035754,5.0
0.5416950914019816,-0.003622042404585751,-0.11068631505166518,0.031028568866420164,0.015582208403460281,-0.01166008491810761,5.0
0.5416950914019816,-0.003622042404585751,-0.10496319737329961,0.03365806241754558,0.01178830260043725,-0.00618193128067847,5.0
0.5416950914019816,0.0016127471722480467,-0.10782476247378414,0.02892497430614386,0.011155984484585636,-0.02467070137299632,5.0
0.5488256469250541,0.012082327757678809,-0.11927098530791198,0.03470985979790659,-0.004651957807386975,-0.021246854827604935,5.0
0.5488256469250541,-0.008856831981419535,-0.11354788015214949,0.029450872946212934,-0.0021226867900238453,-0.013714392793142618,5.0
0.5416950914019816,-0.003622042404585751,-0.11354788015214949,0.02892497430614386,0.0060974431728810456,-0.015083931332999446,5.0
0.5381298136404451,-0.003622042404585751,-0.1249941155088806,0.036813454508517196,-0.009078181726261616,-0.00618193128067847,5.0
0.5559562024481272,0.0016127471722480467,-0.11354788015214949,0.05048682015254183,-0.007813546458587277,-0.03357270155581683,5.0
0.5488256469250541,0.0016127471722480467,-0.116409445252634,0.04154654287047607,0.017479161786986237,-0.014399161997821262,5.0
0.5488256469250541,-0.014091621558253366,-0.12213255040839628,0.03944294790930831,0.035184057462484805,-0.017138239142784686,5.0
0.5416950914019816,0.017317117334512605,-0.1021016447954185,0.041020643829515535,0.023802339089386844,-0.02467070137299632,5.0
0.5452603691635176,0.017317117334512605,-0.12213255040839628,0.025243683023877403,0.012420619752259979,-0.018507777747891287,5.0
0.5452603691635176,0.017317117334512605,-0.12213255040839628,0.024717784784699787,0.012420619752259979,-0.00618193128067847,5.0
0.5416950914019816,-0.024561203575447263,-0.10782476247378414,0.03155446770693497,0.017479161786986237,-0.02672500846503408,5.0
0.5381298136404451,-0.014091621558253366,-0.11927098530791198,0.030502670226351086,0.0010389016201692318,-0.017138239142784686,5.0
0.5416950914019816,-0.003622042404585751,-0.13071722066464292,0.039968846549377386,0.011155984484585636,-0.004127623144644375,5.0
0.5488256469250541,0.0016127471722480467,-0.1335787857651274,0.044176036471712914,0.025066973393032294,-0.0007037765992529926,5.0
0.5416950914019816,-0.014091621558253366,-0.1278556806093649,0.051538618234462916,0.026963927740587135,-0.02467070137299632,5.0
0.5345645358789063,-0.003622042404585751,-0.10782476247378414,0.039968846549377386,0.018111479902837853,-0.02398593164631951,5.0
0.5452603691635176,0.0016127471722480467,-0.116409445252634,0.05311631375377867,0.013052937868111594,-0.01576870060292786,5.0
0.5416950914019816,-0.003622042404585751,-0.1278556806093649,0.04259834015061423,0.014949891251637551,-0.0178230084127131,5.0
0.5416950914019816,0.006847536749081845,-0.10782476247378414,0.04996092111158129,0.009259031583074123,-0.01234485412278625,5.0
0.5452603691635176,-0.003622042404585751,-0.1278556806093649,0.04522783375185107,0.014317573135785935,-0.020562085622926298,5.0
0.5452603691635176,-0.003622042404585751,-0.11354788015214949,0.05837530095625236,0.009259031583074123,-0.021246854827604935,5.0
0.5452603691635176,-0.014091621558253366,-0.1278556806093649,0.04680553007294976,0.02127306855403815,-0.023301162441640867,5.0
0.55239092468659,0.012082327757678809,-0.1021016447954185,0.04470193471089053,0.02949319827593582,-0.025355470055676795,5.0
0.5416950914019816,0.012082327757678809,-0.11354788015214949,0.04890912463322607,0.02633160962473553,-0.03220316314645955,5.0
0.5416950914019816,-0.003622042404585751,-0.11354788015214949,0.05311631375377867,0.013052937868111594,-0.029464086327744988,5.0
0.5416950914019816,-0.008856831981419535,-0.1021016447954185,0.059427099038173434,0.028860880160084208,-0.030148855010425458,5.0
0.5416950914019816,0.022551907627227984,-0.1335787857651274,0.07415226256367341,0.014949891251637551,-0.01029054650875032,5.0
0.5416950914019816,0.017317117334512605,-0.11354788015214949,0.06205659103584443,0.024434657205238453,-0.01576870060292786,5.0
0.5452603691635176,0.006847536749081845,-0.1021016447954185,0.061530691994883896,0.009891349216911295,-0.03288793287313637,5.0
0.5488256469250541,0.0016127471722480467,-0.12213255040839628,0.06521198528160765,0.009891349216911295,-0.030148855010425458,5.0
0.5488256469250541,-0.003622042404585751,-0.10782476247378414,0.05837530095625236,0.017479161786986237,-0.03562700969185094,5.0
0.5381298136404451,0.012082327757678809,-0.1021016447954185,0.06416018719968658,0.009259031583074123,-0.030833624737102272,5.0
0.5381298136404451,0.012082327757678809,-0.1021016447954185,0.0589011999972129,-0.01856294767986252,-0.022616393236962226,5.0
0.5488256469250541,0.006847536749081845,-0.1021016447954185,0.04680553007294976,-0.00022573364750511093,-0.009605777304071679,5.0
0.5559562024481272,0.006847536749081845,-0.1021016447954185,0.04154654287047607,0.015582208403460281,-0.03288793287313637,5.0
0.5559562024481272,0.006847536749081845,-0.1021016447954185,0.04154654287047607,0.014949891251637551,-0.029464086327744988,5.0
0.5488256469250541,-0.008856831981419535,-0.08207072665983754,0.04049474559033792,0.014317573135785935,-0.025355470055676795,5.0
0.5488256469250541,-0.008856831981419535,-0.08207072665983754,0.02576958206483794,0.02759624392838098,-0.0280945479183877,5.0
0.5488256469250541,-0.003622042404585751,-0.12213255040839628,0.026821379344976092,0.03265478692713613,-0.018507777747891287,5.0
0.5488256469250541,-0.008856831981419535,-0.11927098530791198,0.017355203021949796,0.03644869176613026,-0.002073315008610277,5.0
0.5345645358789063,0.006847536749081845,-0.13071722066464292,0.023140088463601098,0.017479161786986237,-0.015083931332999446,5.0
0.5416950914019816,-0.003622042404585751,-0.10782476247378414,0.03313216372736506,0.02633160962473553,-0.008236238372716228,5.0
0.5488256469250541,-0.003622042404585751,-0.10782476247378414,0.041020643829515535,0.024434657205238453,-0.01234485412278625,5.0
0.5345645358789063,-0.003622042404585751,-0.1021016447954185,0.026295481105798477,0.019376114206483306,-0.023301162441640867,5.0
0.5416950914019816,-0.003622042404585751,-0.12213255040839628,0.018932898541265564,0.030125516391787448,-0.017138239142784686,5.0
0.5345645358789063,0.006847536749081845,-0.11354788015214949,0.016829303980989252,0.019376114206483306,-0.017138239142784686,5.0
0.5345645358789063,-0.003622042404585751,-0.11927098530791198,0.02892497430614386,0.0440365053002341,-0.0178230084127131,5.0
0.5488256469250541,0.02778669756200258,-0.1021016447954185,0.030502670226351086,0.028228562044232585,-0.022616393236962226,5.0
0.5488256469250541,0.0016127471722480467,-0.10496319737329961,0.023665987504561635,0.02127306855403815,-0.005497161554001658,5.0
0.5452603691635176,0.012082327757678809,-0.10496319737329961,0.02576958206483794,0.028228562044232585,-0.002073315008610277,5.0
0.5381298136404451,0.022551907627227984,-0.11354788015214949,0.02839907566607478,0.030125516391787448,-0.009605777304071679,5.0
0.5488256469250541,0.006847536749081845,-0.11927098530791198,0.024717784784699787,0.015582208403460281,-0.013029623588463978,5.0
0.5416950914019816,0.022551907627227984,-0.116409445252634,0.0194587975822261,0.0383456461136851,-0.013029623588463978,5.0
0.5416950914019816,0.022551907627227984,-0.116409445252634,0.036813454508517196,0.004200490150865921,-0.01029054650875032,5.0
0.5416950914019816,0.017317117334512605,-0.09351696201656862,0.03839115062917015,0.004200490150865921,-0.010975315713428968,5.0
0.5309992581173698,0.022551907627227984,-0.08779384433820306,0.04365013743075238,0.0313901506954329,-0.00618193128067847,5.0
0.5345645358789063,0.022551907627227984,-0.1021016447954185,0.041020643829515535,0.008626713949236952,-0.02740977819171089,5.0
0.5452603691635176,0.02778669756200258,-0.1335787857651274,0.04838322559226552,0.006729761047725438,-0.02467070137299632,5.0
0.5559562024481272,0.012082327757678809,-0.10782476247378414,0.036813454508517196,0.003568172456776944,-0.020562085622926298,5.0
0.5488256469250541,0.012082327757678809,-0.09637852711705294,0.05364221279473922,0.023802339089386844,-0.017138239142784686,5.0
0.5488256469250541,0.02778669756200258,-0.12213255040839628,0.04522783375185107,0.02633160962473553,-0.02193162403228358,5.0
0.5488256469250541,0.022551907627227984,-0.10782476247378414,0.047857326551304986,0.019376114206483306,-0.040420393602603265,5.0
0.5452603691635176,-0.003622042404585751,-0.1021016447954185,0.03944294790930831,0.030757832579581264,-0.03494223996517412,5.0
0.5416950914019816,0.006847536749081845,-0.10496319737329961,0.041020643829515535,0.02190538474183199,-0.03288793287313637,5.0
0.5381298136404451,0.022551907627227984,-0.08779384433820306,0.047857326551304986,0.009259031583074123,-0.03631177941852775,5.0
0.5488256469250541,0.0016127471722480467,-0.07634760898147201,0.052064517275423446,0.014317573135785935,-0.022616393236962226,5.0
0.5488256469250541,0.0016127471722480467,-0.09637852711705294,0.056271706395976055,0.011155984484585636,-0.006866699963358944,5.0
0.5488256469250541,-0.003622042404585751,-0.09637852711705294,0.06626378015639704,0.019376114206483306,-0.004812391827324844,5.0
0.5416950914019816,0.006847536749081845,-0.09924007969493413,0.07047096927694965,0.030125516391787448,-0.017138239142784686,5.0
0.5452603691635176,0.017317117334512605,-0.1021016447954185,0.05837530095625236,0.018111479902837853,-0.014399161997821262,5.0
0.5416950914019816,0.017317117334512605,-0.11354788015214949,0.05364221279473922,-0.00022573364750511093,-0.018507777747891287,5.0
0.5416950914019816,0.022551907627227984,-0.09637852711705294,0.06205659103584443,0.02317002097353522,-0.03220316314645955,5.0
0.5488256469250541,0.022551907627227984,-0.07348604388098766,0.06731557823831812,0.028228562044232585,-0.029464086327744988,5.0
0.5452603691635176,0.022551907627227984,-0.07920916155935318,0.06626378015639704,0.022537702857683604,-0.03699654705721188,5.0
0.5452603691635176,0.022551907627227984,-0.08779384433820306,0.06626378015639704,-0.0033873220576981894,-0.03562700969185094,5.0
0.5416950914019816,0.012082327757678809,-0.09351696201656862,0.044176036471712914,0.009259031583074123,-0.01987731615724857,5.0
0.5488256469250541,0.006847536749081845,-0.1021016447954185,0.056797605436936606,0.030125516391787448,-0.03220316314645955,5.0
0.5416950914019816,0.006847536749081845,-0.10496319737329961,0.052064517275423446,0.009259031583074123,-0.03836608651056551,5.0
0.55239092468659,0.017317117334512605,-0.10782476247378414,0.04154654287047607,0.01684684367113462,-0.02398593164631951,5.0
0.5488256469250541,0.017317117334512605,-0.1021016447954185,0.037339353349032,0.00799439631539978,-0.019192546952569927,5.0
0.55239092468659,-0.003622042404585751,-0.08779384433820306,0.05732350287433127,-0.00022573364750511093,-0.019192546952569927,5.0
0.5345645358789063,-0.008856831981419535,-0.08207072665983754,0.041020643829515535,0.01052366733276291,-0.029464086327744988,5.0
0.5345645358789063,-0.008856831981419535,-0.08207072665983754,0.04259834015061423,0.007362078681562609,-0.013714392793142618,5.0
0.5345645358789063,-0.008856831981419535,-0.08207072665983754,0.029450872946212934,0.018743797054660578,-0.022616393236962226,5.0
0.5381298136404451,0.012082327757678809,-0.09924007969493413,0.03313216372736506,0.012420619752259979,-0.020562085622926298,5.0
0.5452603691635176,0.0016127471722480467,-0.11354788015214949,0.02734727838593663,0.003568172456776944,-0.025355470055676795,5.0
0.5381298136404451,0.012082327757678809,-0.10782476247378414,0.026821379344976092,0.014949891251637551,-0.021246854827604935,5.0
0.5488256469250541,0.022551907627227984,-0.0906554094386874,0.03313216372736506,-0.005916593075061315,-0.020562085622926298,5.0
0.5452603691635176,0.022551907627227984,-0.09351696201656862,0.015777507502634028,0.007362078681562609,-0.014399161997821262,5.0
0.5452603691635176,0.006847536749081845,-0.1021016447954185,0.031028568866420164,0.014317573135785935,-0.02740977819171089,5.0
0.5381298136404451,0.017317117334512605,-0.09351696201656862,0.029450872946212934,0.013685255983963212,-0.0007037765992529926,5.0
0.5416950914019816,0.017317117334512605,-0.07920916155935318,0.03470985979790659,0.005465125539043875,-0.014399161997821262,5.0
0.5416950914019816,0.03825627743155175,-0.09351696201656862,0.026821379344976092,0.007362078681562609,-0.004127623144644375,5.0
0.5416950914019816,0.03825627743155175,-0.10782476247378414,0.03208036634700405,0.006729761047725438,-0.01029054650875032,5.0
0.5416950914019816,0.022551907627227984,-0.09924007969493413,0.018932898541265564,0.02190538474183199,-0.013029623588463978,5.0
0.5452603691635176,0.043491067366326346,-0.06776292620262213,0.016829303980989252,0.017479161786986237,-0.004812391827324844,5.0
0.5416950914019816,0.017317117334512605,-0.07920916155935318,0.03208036634700405,0.02633160962473553,-0.020562085622926298,5.0
0.5452603691635176,0.022551907627227984,-0.09924007969493413,0.02734727838593663,-0.007813546458587277,-0.019192546952569927,5.0
0.5416950914019816,0.02778669756200258,-0.10782476247378414,0.024717784784699787,-0.005916593075061315,0.0013505304927847648,5.0
0.5488256469250541,0.017317117334512605,-0.11068631505166518,0.03628755586844812,0.00799439631539978,0.002720069946138388,5.0
0.5416950914019816,0.017317117334512605,-0.09351696201656862,0.03944294790930831,0.020008432322334922,-0.01029054650875032,5.0
0.5416950914019816,0.022551907627227984,-0.08779384433820306,0.03891704926923923,0.014949891251637551,-0.007551469690035754,5.0
0.5416950914019816,0.022551907627227984,-0.06776292620262213,0.043124239191574765,0.009259031583074123,0.008198223583567518,5.0
0.5416950914019816,0.02778669756200258,-0.07348604388098766,0.03365806241754558,-0.009078181726261616,-0.015083931332999446,5.0
0.5488256469250541,0.02778669756200258,-0.08779384433820306,0.036813454508517196,-0.00844586361041,-0.004127623144644375,5.0
0.5345645358789063,-0.014091621558253366,-0.10782476247378414,0.039968846549377386,-0.0021226867900238453,-0.025355470055676795,5.0
0.5345645358789063,-0.014091621558253366,-0.10782476247378414,0.05995299647556813,-0.014769040912810602,-0.01234485412278625,5.0
0.5416950914019816,0.006847536749081845,-0.09351696201656862,0.049435023674186604,0.009259031583074123,-0.02398593164631951,5.0
0.5488256469250541,0.022551907627227984,-0.09351696201656862,0.047857326551304986,-0.010342816993935959,0.004089607311499334,5.0
0.5488256469250541,0.022551907627227984,-0.09351696201656862,0.05574580735501552,-0.021092218215211202,-0.0013885463259298042,5.0
0.5452603691635176,0.02778669756200258,-0.0906554094386874,0.04996092111158129,-0.009710498878084346,-0.020562085622926298,5.0
0.5488256469250541,0.012082327757678809,-0.0906554094386874,0.05311631375377867,0.0060974431728810456,0.0006657618101042899,5.0
0.5488256469250541,0.012082327757678809,-0.0906554094386874,0.04207244110965369,-0.005916593075061315,-0.018507777747891287,5.0
0.5452603691635176,0.012082327757678809,-0.09637852711705294,0.05259041471281813,0.003568172456776944,-0.017138239142784686,5.0
0.5488256469250541,0.017317117334512605,-0.08779384433820306,0.04259834015061423,-0.006548910226884044,-0.02398593164631951,5.0
0.5488256469250541,0.017317117334512605,-0.08779384433820306,0.04259834015061423,-0.002755004423861018,-0.01029054650875032,5.0
0.5488256469250541,0.012082327757678809,-0.10782476247378414,0.03576165722837904,-0.0052842749592097015,-0.002073315008610277,5.0
0.5416950914019816,0.0016127471722480467,-0.10496319737329961,0.03576165722837904,-0.00844586361041,-0.008921008099393038,5.0
0.5416950914019816,0.0016127471722480467,-0.10496319737329961,0.05311631375377867,-0.0040196396915353596,-0.018507777747891287,5.0
0.5381298136404451,0.017317117334512605,-0.09924007969493413,0.04154654287047607,0.004832807905206703,-0.0178230084127131,5.0
0.5345645358789063,0.006847536749081845,-0.0906554094386874,0.03891704926923923,-0.0021226867900238453,-1.900687257618088e-05,5.0
0.5452603691635176,0.0016127471722480467,-0.1021016447954185,0.0352357584880871,0.004832807905206703,-0.021246854827604935,5.0
0.5488256469250541,-0.008856831981419535,-0.10496319737329961,0.05101271919350237,0.0023035370685989907,-0.01234485412278625,5.0
0.5381298136404451,0.006847536749081845,-0.0906554094386874,0.05259041471281813,0.0023035370685989907,-0.01234485412278625,5.0
0.5488256469250541,-0.003622042404585751,-0.08779384433820306,0.0610047945574892,0.005465125539043875,-0.005497161554001658,5.0
0.559521480209666,-0.003622042404585751,-0.09351696201656862,0.04996092111158129,0.007362078681562609,-0.007551469690035754,5.0
0.5488256469250541,0.017317117334512605,-0.08779384433820306,0.03208036634700405,0.00040658398633205983,0.004774377038176145,5.0
0.5416950914019816,0.012082327757678809,-0.08779384433820306,0.04470193471089053,0.013685255983963212,-0.019192546952569927,5.0
0.5452603691635176,0.017317117334512605,-0.08207072665983754,0.044176036471712914,0.003568172456776944,-0.004127623144644375,5.0
0.5416950914019816,0.022551907627227984,-0.09351696201656862,0.05574580735501552,-0.009710498878084346,-0.0013885463259298042,5.0
0.5452603691635176,0.02778669756200258,-0.09924007969493413,0.05416811183569975,-0.021724534403005043,-0.014399161997821262,5.0
0.5488256469250541,0.017317117334512605,-0.11354788015214949,0.04890912463322607,-0.00718122834273566,-0.0178230084127131,5.0
0.5488256469250541,0.017317117334512605,-0.09351696201656862,0.04996092111158129,0.005465125539043875,-0.005497161554001658,5.0
0.55239092468659,0.012082327757678809,-0.09924007969493413,0.047857326551304986,0.00040658398633205983,-0.015083931332999446,5.0
0.5452603691635176,0.012082327757678809,-0.08207072665983754,0.04522783375185107,-0.0033873220576981894,-0.026040239782353602,5.0
