acc_x,acc_y,acc_z,gyro_x,gyro_y,gyro_z,activity
-0.9350785562775054,0.10304535274943338,3.26586950177196,0.038298659129543375,0.030888354181929284,-0.00021357462344595536,0.0
-0.9195481796117005,0.10304535274943338,3.2074137658065336,0.08183292027420622,0.053290531112827964,-0.0239235430890283,0.0
-0.9389611504439568,0.10304535274943338,3.219104912999619,0.11176272553494676,0.048490064395293436,-0.07303704705231692,0.0
-0.9389611504439568,0.09358775174429063,3.2074137658065336,0.09407693114012194,0.02342095970310488,-0.07473061731195131,0.0
-0.9389611504439568,0.09674028081401756,3.1723407335238467,0.0768446189364984,-4.7987925711349453e-05,-0.01630248079368609,0.0
-0.9428437446104079,0.0872826798088748,3.224950486596162,0.05417052458671892,0.003685708093905628,0.01587533219229626,0.0
-0.9389611504439568,0.09674028081401756,3.1664951599273037,0.04555436917628373,0.01115310175953322,0.004020348120880615,0.0
-0.9467262028507225,0.09989282367970648,3.195723027910017,0.022880275517880824,0.03728897430345047,0.01587533219229626,0.0
-0.9467262028507225,0.09989282367970648,3.195723027910017,0.034670804019751124,0.06235807899563905,-0.015455696954873067,0.0
-0.9350785562775054,0.09989282367970648,3.2424872073857895,0.05417052458671892,0.03355527869043189,-0.004447497448460288,0.0
-0.9273133679446031,0.08097760787345898,3.236641633789247,0.11266968991734932,0.03195512528644524,-0.05525456965418928,0.0
-0.923430773778152,0.10304535274943338,3.154804012734219,0.12219281040156368,0.05062360335153807,-0.05186743429893722,0.0
-0.923430773778152,0.10304535274943338,3.154804012734219,0.1317159253547654,0.04795667884303547,-0.024770326927841313,0.0
-0.9467262028507225,0.12196056855568088,3.195723027910017,0.14486690336859,-0.027250633607136605,0.027730316263711922,0.0
-0.9467262028507225,0.1282656404910967,3.1781863071203893,0.09543737771372579,-0.016582929067551596,0.06075491567051563,0.0
-0.9389611504439568,0.12196056855568088,3.1781863071203893,0.011996709842815796,0.045289754334532854,0.06075491567051563,0.0
-0.9311959621110543,0.12511311142136974,3.1781863071203893,-0.04378156095785377,0.04795667884303547,0.09039237455805059,0.0
-0.923430773778152,0.12511311142136974,3.248332780982332,-0.032897999431048194,0.05275714556056997,0.13527195545426163,0.0
-0.923430773778152,0.10304535274943338,3.2600239281754178,-0.004782120169606465,0.052223760008312005,0.13019124467535848,0.0
-0.9428437446104079,0.10619789561512229,3.195723027910017,0.027415093973010774,0.0927610359576201,0.11579590779649958,0.0
-0.9583739853500762,0.10304535274943338,3.1664951599273037,0.0006596633593026295,0.12263060086176863,0.0870052340387818,0.0
-0.9428437446104079,0.0872826798088748,3.213259339403076,0.01970590156222499,0.07782625350554584,0.03619816239786715,0.0
-0.9544913911836251,0.0872826798088748,3.271715075368503,0.05734489854237475,0.06449162120467095,0.04974671414690882,0.0
-0.9350785562775054,0.10304535274943338,3.236641633789247,0.08863515037671915,0.04955683549980939,0.04889992901709165,0.0
-0.9506087970171739,0.09358775174429063,3.1431128655411333,0.10904183238773907,0.08422687362706702,-0.0459399409722252,0.0
-0.9894347386816861,0.1093504246848492,3.1255761447515056,0.10994879677014163,0.06609177786144488,-0.023076757959211106,0.0
-0.9777869561823324,0.12196056855568088,3.1021938503653343,0.12083236382795981,0.08369348807480903,-0.019689620021950686,0.0
-0.9777869561823324,0.12196056855568088,3.1021938503653343,0.12400673363535618,0.09916165607914128,0.0014799946679352977,0.0
-0.9777869561823324,0.12196056855568088,3.1021938503653343,0.12400673363535618,0.09916165607914128,0.0014799946679352977,0.0
-0.9777869561823324,0.12196056855568088,3.1021938503653343,0.17479670586382423,0.07249239798296606,-0.01376212798624286,0.0
-0.9311959621110543,0.11880803948595393,3.219104912999619,0.16345965661480477,0.10289535494494713,-0.04763350864985126,0.0
-0.9389611504439568,0.1282656404910967,3.2307960601927044,0.11811147068075212,0.1535669498815822,-0.06033528043309245,0.0
-0.9350785562775054,0.12511311142136974,3.236641633789247,0.05779838073357603,0.11302967393227414,-0.05271421942875441,0.0
-0.9583739853500762,0.13772325529220142,3.2074137658065336,0.02378723851753024,0.08155994586577714,-0.021383188990580896,0.0
-0.9311959621110543,0.13141818335678565,3.2307960601927044,0.032856876464855,0.07409255463973999,0.004020348120880615,0.0
-0.9117829912787984,0.12511311142136974,3.2424872073857895,0.07729810112769968,0.13063139065121285,-0.09590023006533101,0.0
-0.9544913911836251,0.1282656404910967,3.2600239281754178,0.10813486800533652,0.10769581840969437,-0.0874323839311758,0.0
-0.9661391736829787,0.1471808562973442,3.248332780982332,0.08183292027420622,0.09542796371891,-0.0654159860479789,0.0
-0.985552144515235,0.13772325529220142,3.2307960601927044,0.03557776779719919,-0.04858604105991296,0.07260989715992294,0.0
-0.9544913911836251,0.12196056855568088,3.248332780982332,0.0401125866844395,-0.1013911749527927,0.05144028440654322,0.0
-0.9195481796117005,0.1093504246848492,3.219104912999619,0.028775539163861472,-0.03525141201182535,-0.04509315584240802,0.0
-0.8846048321136396,0.10304535274943338,3.271715075368503,-0.011130865315411824,0.03835574540796642,-0.0561013547840065,0.0
-0.9389611504439568,0.1093504246848492,3.219104912999619,-0.053758163633269386,0.08476025917932499,0.024343178326451498,0.0
-1.0554387035852202,0.13141818335678565,3.306788516947759,-0.10409465920154874,0.04102267316925631,0.13103802980517565,0.0
-1.0399083269194154,0.12196056855568088,3.2424872073857895,-0.219732546054712,0.13223154080241223,0.10732806682636106,0.0
-0.9661391736829787,0.12511311142136974,3.236641633789247,-0.052397717059665554,-0.005915225137864212,0.08615844890896461,0.0
-0.9428437446104079,0.11880803948595393,3.224950486596162,-0.01702613380102849,-0.0016481435659892573,-0.004447497448460288,0.0
-1.00108252118104,0.12511311142136974,3.2775606489650455,0.055077488969121485,-0.05071958001615761,0.02688353113389471,0.0
-1.00108252118104,0.12511311142136974,3.2775606489650455,0.11403013649095317,-0.15632985430749163,0.01756890116092647,0.0
-1.0282605444200619,0.1471808562973442,3.271715075368503,0.09543737771372579,-0.16859771550385058,0.11410233753686519,0.0
-0.9040178029458958,0.1093504246848492,3.248332780982332,0.053263561587069505,-0.24807210424011822,0.09886021552818912,0.0
-0.8846048321136396,0.09989282367970648,3.2424872073857895,0.023333756326328958,-0.22033606853385262,-0.145013736610628,0.0
-0.9273133679446031,0.1093504246848492,3.289251796158131,-0.053758163633269386,-0.30461093374601655,-0.10267451110386855,0.0
-0.9273133679446031,0.1093504246848492,3.289251796158131,-0.014305240653820788,-0.2758081269352348,-0.17465119549816296,0.0
-0.9544913911836251,0.11250296755053811,3.248332780982332,-0.02790969532783407,-0.14352860105330018,-0.23816003892231882,0.0
-0.9661391736829787,0.10304535274943338,3.2424872073857895,-0.0038751557872038957,-0.1381947585418695,-0.20936936516460106,0.0
-0.9661391736829787,0.10304535274943338,3.2424872073857895,0.04283347810320576,-0.16433063108578677,-0.26610393787825276,0.0
-0.9622565795165277,0.11250296755053811,3.1723407335238467,0.014717600224517189,-0.13499444522832163,-0.2754185639782085,0.0
-0.9544913911836251,0.10304535274943338,3.1664951599273037,-0.0401537089592561,-0.05071958001615761,-0.3550163042128242,0.0
-0.9544913911836251,0.10304535274943338,3.1664951599273037,-0.10545510024413998,-0.06298744121251652,-0.4024362301704536,0.0
-0.9622565795165277,0.10304535274943338,3.248332780982332,-0.038793262385652255,-0.07792222366459078,-0.4778000550840166,0.0
-0.9389611504439568,0.09043520887860171,3.3652442529131856,0.04283347810320576,-0.06138728455574258,-0.49558253248214423,0.0
-0.9389611504439568,0.09043520887860171,3.3652442529131856,0.11947191725435595,0.0004853972199482201,-0.5717931735096247,0.0
-0.9467262028507225,0.10619789561512229,3.347707532123558,0.10496049819794012,0.04688991099130679,-0.6056645373901789,0.0
-0.9195481796117005,0.11565549662026503,3.289251796158131,0.1054139803891414,0.12476414307080055,-0.6725605316616369,0.0
-0.9195481796117005,0.1282656404910967,3.236641633789247,0.09135603799291425,0.170101895496005,-0.6861090524265784,0.0
-0.9195481796117005,0.13141818335678565,3.160649586330761,0.02424072070873152,0.3242502225149423,-0.7614728773401416,0.0
-0.9195481796117005,0.11565549662026503,3.148958439137676,-0.0664556539248801,0.19623776803992218,-0.6632458849056144,0.0
-1.047673515252318,0.1282656404910967,3.1840318807169323,-0.25601107710271387,0.19570437598208965,-0.4828807865189866,0.0
-1.0243779502536103,0.09043520887860171,3.1781863071203893,-0.27641777017575886,0.23250795957116646,-0.420218707568581,0.0
-1.0088475735878055,0.0872826798088748,3.1781863071203893,-0.10500161252192615,0.07782625350554584,-0.3795730626494893,0.0
-1.0204953560871592,0.03368956145985927,3.2600239281754178,0.11629754191594699,0.15783403429964607,-0.4515497470437838,0.0
-1.0632038919181228,0.027384489524443414,3.2775606489650455,0.22830757123949988,0.16156772665987734,-0.3338466862954277,0.0
-1.0787341326577913,0.01792687817232919,3.26586950177196,0.21062178237568782,0.21330609270102838,-0.19074009230862288,0.0
-1.0360257327529645,0.024231953556735512,3.2775606489650455,0.09226300237531682,0.30504834263365505,-0.22037756152419116,0.0
-1.0127301677542568,0.0210794175890276,3.2950973697546733,0.05598445335152406,0.5317370397039316,-0.3050560125377102,0.0
-0.8807222379471885,0.03999463339527507,3.201568192209991,0.11720450629834958,0.9675127431478445,-0.12045697817396282,0.0
-0.8729571855404223,-0.004140873601626218,3.154804012734219,0.13851815269177203,1.252873889999946,-0.5836481446709988,0.0
-1.2301550332971158,-0.07349667178918132,2.7397691059728273,-0.5807041047623283,-1.1964310046307947,1.6323870424957518,0.0
-0.9816695503487838,-0.06088652619385442,3.2600239281754178,-0.1893492558372639,-1.5591329199432373,1.7856550580403632,0.0
-0.9816695503487838,-0.06088652619385442,3.2600239281754178,-0.007503010551307862,-0.5926389498092369,1.8754142611449187,0.0
-0.678827884996271,0.01162180623691337,3.4821553155474696,0.185680278452655,0.1412990886852233,1.210688316375658,0.0
-0.678827884996271,0.01162180623691337,3.306788516947759,0.36707302218886567,0.5589397093746631,0.7458036209311217,0.0
-0.678827884996271,0.01162180623691337,3.306788516947759,0.32444572940202077,0.678951374060239,1.072662495135957,0.0
-0.9971999270145886,0.01477434220462128,2.950209346151794,0.012450192034017073,0.43519431329540864,2.165861364439581,0.0
-1.2068594682984086,0.01162180623691337,2.4708733344767184,-0.3467074489708192,-0.1344610531704891,3.1701477641283016,0.0
-1.0243779502536103,-0.14285246652774594,2.5702476763213746,-0.7729804653354703,-0.9292050055889116,3.9678189639508274,0.0
-0.8535442147081664,-0.19644558487676148,2.809915784483055,-1.1244288814348218,-1.5730009312907955,4.688432458759153,0.0
-0.7991880323039857,-0.19959811394648844,2.8742168893967395,-1.1434751224032504,-1.7052804962061776,5.060170934516265,0.0
-0.7331840674004517,-0.21536080068300897,2.9151359045725385,-1.0845224928572097,-1.3596468144767972,5.011904151132589,0.0
-0.6594149141640148,-0.2847165919725831,3.201568192209991,-0.4106484323991873,-0.45342537922007586,4.219314013242099,0.0
-0.6516497258311122,-0.36668254092895075,3.400317285195873,0.23510980963853187,-0.2091349914531587,3.8636644652795464,0.0
-0.6865930733291735,-0.42973326028310915,3.1723407335238467,0.3711543563786645,-1.0278812481841684,4.386977159104901,0.0
-0.7681272789723759,-0.4265807174174203,2.7982246372899695,0.3317014444612413,-1.2711049038800168,4.735005775163534,0.0
-0.7681272789723759,-0.4265807174174203,2.7982246372899695,-0.44511301255833374,-0.5350333361876737,4.594439422957815,0.0
-0.6244715666659538,-0.5905126153301558,3.236641633789247,0.41967691212011365,-1.198031167793143,4.718916847368972,0.0
-0.5235243901904952,-0.5148517521051659,3.306788516947759,1.0092033845729242,-1.506327743764123,4.864563600512596,0.0
-0.4497552369540583,-0.5905126153301558,3.3243252377373866,1.6681125603763673,-1.342045123780157,4.276048462019352,0.0
-0.5778805725946756,-0.618885445937508,3.096348276768792,2.0068634529980325,-1.4764582048822725,4.1574985025328095,0.0
-0.5778805725946756,-0.618885445937508,3.096348276768792,1.7393091703677543,-1.371381309637622,4.0736669296014085,0.0
-0.6632975083304662,-0.5306144112497625,2.8800624629932825,1.4173370690414235,-1.6172719386337822,3.9542702366252156,0.0
-0.6477671316646612,-0.47702129290074696,3.0320471718551074,1.2722228563532145,-1.545798261620064,3.7180173816388535,0.0
-0.5196417960240438,-0.3855977429392363,3.055429261592993,1.4318484991598643,-1.2439022342092854,2.8788539273439864,0.0
-0.37598608371762166,-0.4108180306808997,3.1314217183480477,1.669926555513324,-0.7035830405897036,2.1556999015696414,0.0
-0.41481202538213374,-0.3919028286706142,2.9034447573794524,1.4341159488329591,-0.832128874111407,2.5096558173043593,0.0
-0.46528561361986337,-0.3792926847997825,2.693004517200486,1.5597303775203992,-1.2145660483518204,2.6366736074330053,0.0
-0.25174334224345546,-0.34461479605297635,2.8975991837829107,1.7356813570862455,-1.4807253413449328,2.7425215730835864,0.0
-0.1935045656728236,-0.4108180306808997,2.4182631721078347,1.6395431546756238,-1.3383114444310746,3.2124870825873604,0.0
-0.17409173076670414,-0.3572249399238081,2.090911664646299,1.4173370690414235,-1.5212625652496445,5.9670773644450446,0.0
-0.2478607480770043,-0.5810549867330891,1.8220158931501897,1.0726908249689526,-2.3394755470231643,5.808728286968393,0.0
-0.4381074544547046,-0.3824452276654713,1.7401780674468768,0.1344368185019731,-5.5968587791613675,5.724050311044411,0.0
0.15204549958451602,-0.5999701887433747,1.138085317216832,-0.28412696189516806,-8.378995946133509,5.850220871937802,0.0
0.33840974772190197,-0.46441114902991526,1.2199231429201445,-0.38343947880306006,-9.719926222651583,7.3363280414766034,0.0
0.24911008189352382,-0.21851332975273588,1.7810970826226755,-0.3811720733780662,-10.868837752401385,7.633549343185538,0.0
0.22969738291354083,-0.3509198541924304,2.394880877721664,-0.8355609081630205,-11.332883195876972,5.058477467536966,0.0
0.36170531272060896,-0.795427460129151,2.587784397111003,-0.98793083591045,-9.1140005475541,3.871285397183466,0.0
0.5325389123399179,-1.0602404538246921,1.9856917492051,-0.1408266890337896,-5.947292950377794,5.593645421708628,0.0
0.5364215065063683,-0.9372915579820643,1.4128265599853413,0.4949549226734509,-4.092179131594521,7.339714975435206,0.0
0.23357997707999162,-0.6945463091624979,0.36647118849740534,-0.7072255752663474,-5.427775877868743,6.8121682836645325,0.0
-0.30998211881408727,-0.7008513948938759,0.48922797821444547,-2.125716940133842,-6.561752690222213,3.773905096926458,0.0
-0.36433843714440445,-0.9751220171864834,1.1790042300684886,-2.0513459713970845,-4.3188679067316915,1.3393995734836044,0.0
0.24134516541289416,-1.35657893136097,0.48338240461790283,-1.1974394865631652,-3.3038358968812376,0.595922745905779,0.0
0.5868952306702329,-1.359731474226659,-0.5629730308226223,-1.3207865540737125,-4.7674448634297955,2.972846963145328,0.0
0.18698884708257668,-1.321900959838392,-0.5512819092105726,-1.6055732595278656,-4.790913645573059,4.27181446407403,0.0
-0.36433843714440445,-1.2903756415491987,-0.6506564429129955,-2.139774915716145,-3.2595648895382503,4.00931121842317,0.0
-0.08090960669801134,-1.1138335721737076,-0.5922008348527467,-2.1728790437706764,-1.7596858355476408,-1.437206935844725,0.0
0.0860416706071184,-1.1957995763139233,-1.024772360079624,-0.5394372640800996,-1.0529504016681661,-3.524531072464196,0.0
0.19863662958193065,-1.50790065781095,-1.6210195878751972,1.0699699207597198,-1.9799737498570318,-1.3635367431589966,0.0
0.07827648227421585,-1.5236632617716985,-1.5859462486200835,1.228688654494093,-3.182224121077909,0.307169212870751,0.0
-0.3915164603834264,-1.353426388495281,-1.4281160684858585,-0.20250023385108848,-2.4040150101847173,1.8660995317646292,0.0
-0.3915164603834264,-1.1894944905825455,-1.667784074323396,-0.9988144527473813,-1.8327595716345142,0.9558061678772513,0.0
-0.08479220086446244,-1.3061383558776434,-1.241058122693062,-0.19841887753723916,-1.5639334094302828,-1.4228116402779998,0.0
-0.10420517169671864,-1.6024767230462253,-1.246903696289605,2.6966095726715142,0.34398545542061476,-3.0122262445013632,0.0
-0.14691357160154572,-1.763256078093272,-1.3988883028272872,1.9542597179351373,-0.9612080606574956,-2.0053994790951597,0.0
-0.14691357160154572,-1.763256078093272,-1.3988883028272872,0.6477783049570187,-0.8571979755508082,-1.0849445697135744,0.0
-0.13914838326864318,-1.4322397394021118,-1.2235214530655052,0.7325794359945702,0.6896190590831001,-2.3373390021106975,0.0
0.22969738291354083,-1.3439687598982144,-1.8139231072645359,0.20744740150626617,-0.24380501982205444,-3.204446314049367,0.0
0.22969738291354083,-1.3439687598982144,-1.8139231072645359,0.4151421012701261,0.6533488675518561,-2.804763980648451,0.0
-0.01878810003479163,-1.3124434416090212,-1.6619385007268537,0.7557069890287476,0.6768178058289087,-2.3398793678281824,0.0
-0.09643998336381611,-0.7922749172634624,-1.7437764287543087,-0.32992863555143465,-0.5467678313484984,-5.634718170043968,0.0
-0.09643998336381611,-0.7922749172634624,-1.7437764287543087,0.24417943133850706,0.42879371269061123,-7.8964794856919776,0.0
-0.09643998336381611,-0.7922749172634624,-1.7437764287543087,0.47046691753465725,1.6795820195387496,-7.569620528862876,0.0
0.8742066552830783,-1.1138335721737076,-1.802231960071451,0.35573597293984627,1.7307869284663229,-6.138555002116162,0.0
0.6917250013121425,-0.9246814417031568,-1.4222704948893157,0.6922195486327192,1.7526557556256237,-5.110558412231892,0.0
0.4044135766992993,-0.7828172886663957,-1.3813515820376594,0.48996661303922434,1.4598272500753575,-5.895527948715527,0.0
0.0006245989451913816,-0.49278397963726756,-1.1884480626483205,-0.5879598198215488,1.5889064886660424,-8.11325647892518,0.0
-0.01878810003479163,-0.2216658726184248,-0.9546256304073252,-1.6169101539085322,2.4199205675599633,-9.238633369066456,0.0
-0.01878810003479163,-0.2216658726184248,-0.9546256304073252,-2.17423940737909,2.727683998684943,-10.253080901128046,0.0
0.08215907644066697,-0.3351571674559098,-1.3112049035274318,0.5262451883353269,0.7264226556833261,-9.347868599172706,0.0
-0.32939508964634345,-0.23427601648925647,-0.9663167776004102,-0.14264061779859474,1.4971642517445651,-6.707594278856244,0.0
0.7460813196424613,-0.4549535480247724,-0.3817606334450368,-0.45463613304254813,1.1643318753139726,-8.760199863672044,0.0
1.2508174738720266,-0.2626488470966087,-1.241058122693062,-0.1621403464892374,0.9445772099397733,-4.138449868132294,0.0
1.510950739319713,-0.09556442356313674,-1.270285888351633,0.08908863256792043,0.2490428921744401,-0.5955031158323727,0.0
0.5441866948392706,0.2669772506621688,-1.1183013329760219,-0.3607654245531219,2.39485151816516,0.5823742251408375,0.0
0.5441866948392706,0.2669772506621688,-1.1183013329760219,0.14758779651579768,-0.012315847089078232,6.242282273434796,0.0
0.5441866948392706,0.2669772506621688,-1.1183013329760219,0.14758779651579768,-0.012315847089078232,6.242282273434796,0.0
0.5441866948392706,0.2669772506621688,-1.1183013329760219,0.14758779651579768,-0.012315847089078232,6.242282273434796,0.0
0.5441866948392706,0.2669772506621688,-1.1183013329760219,0.14758779651579768,-0.012315847089078232,6.242282273434796,0.0
0.5441866948392706,0.2669772506621688,-1.1183013329760219,0.05598445335152406,0.09702812037568392,6.730029847215362,0.0
0.4354743300309104,0.09674028081401756,-0.6097375300613392,0.1317159253547654,-0.11099210838786175,6.501398585127059,0.0
0.08992426477356952,0.0652149211369384,-0.6097375300613392,-0.014305240653820788,-0.7025162824963367,3.204866150683441,0.0
0.35005753022125563,-0.17122529713509818,-0.4402162475008408,-0.04514200753145762,-0.8022593352295567,3.469062863313603,0.0
0.28793602355803594,-0.14285246652774594,-0.5337452267924979,-0.0610138786924899,-1.0902872992481807,3.1904706898681794,0.0
-0.014905505868340515,-0.18068289814024094,-0.7500309894059364,-0.09049019346551028,-2.414682695207577,0.7940703216905346,0.0
-0.014905505868340515,-0.18068289814024094,-0.7500309894059364,0.11130924334374548,-2.047713747521668,-1.7835419196755227,0.0
-0.15856135410089936,-0.19329304201107259,-0.7208031725852941,0.0006596633593026295,-1.5223293753876077,-4.157078996395805,0.0
-0.15467875993444793,-0.10502203491525096,-1.1066102369450075,-0.06146735535267859,-0.7105170462634827,-5.0301137732590915,0.0
0.6179559840018436,-0.1523100744308697,-1.0773824201243651,-0.10545510024413998,-0.3275464929763859,-5.080921087608791,0.0
0.6179559840018436,-0.1523100744308697,-1.0773824201243651,0.014717600224517189,0.15943418445084542,-2.330564638447893,0.0
0.9013845425959645,-0.045123845061943404,-0.9253978135866828,-0.17710523114381674,0.7381570987995543,-0.3956619491319159,0.0
0.905267136762415,0.030537025492151346,-1.182602540213849,-0.07507181002669187,0.39412368432171546,-0.125537688952866,0.0
0.683959812979241,-0.10186949894754305,-1.2878226091412612,-0.4387642950675914,0.447462213525215,0.3241049154670949,0.0
0.7189031604773023,0.1913163736412171,-0.22977603929816845,-0.01475872284502208,0.865636174227891,3.988141889690705,0.0
0.7732592069553474,0.21968919045260732,-1.0656912729312802,0.3353293019908514,0.6496151882027738,5.785018427269914,0.0
0.9906842084243432,-0.3477673113267413,-1.6444018822613675,0.029229021355062754,0.6800181321536058,5.133841375074797,0.0
0.5286563181734643,-0.332004624590221,-0.9780078736314244,0.20790088922848005,0.3514528661633755,5.033920543851765,0.0
0.5403041006728201,-0.5148517521051659,-1.054000176900266,0.21288918780068164,0.14983325752135096,7.233866679287556,0.0
0.5208911298405626,-0.4864789214978136,-0.668193138121588,0.22649364247469492,-0.3238128136273038,7.638629744123438,0.0
0.27240564689223085,-0.5684448704541814,-0.7091120509732443,-0.39885786224187847,-0.0885899282041758,4.415768080735422,0.0
-0.4342248602882535,-0.5085466663737882,-0.5629730308226223,0.18023849215823962,-0.6726467436144864,0.55951101630774,0.0
-0.9777869561823324,-0.5779024438674001,-0.7324942941973439,0.36934042761385955,-0.4667600375432491,-2.4203238415524484,0.0
-0.9777869561823324,-0.47702129290074696,-1.469034981337515,0.9788200722314258,-0.3670170108323272,-4.3569199978477275,0.0
-0.2944518780744189,-0.3099368797142463,-0.8026410494506783,-0.22199995147970591,-0.24060471951965565,-8.623021106419063,0.0
1.1149269498985073,-0.4896314367715785,-0.4928263011503237,-0.05693253344066577,-1.5441980984577157,-3.4991274152893483,0.0
2.400062628618859,-0.11132710685066681,-0.861096657510927,-0.07824619089611344,-0.8870676185218515,-0.3118302935762476,0.0
0.7926721777876011,-0.24688616036008812,-1.054000176900266,-0.04514200753145762,-0.5915721917158702,-0.2754185639782085,0.0
0.2685230527257794,-0.24688616036008812,-1.2176758794689628,0.20472650835905856,-1.3857827780987584,-1.5667650916908558,0.0
0.5597170715050738,-0.3162419654456243,-1.0656912729312802,-0.3566840682392727,-1.0193470793480406,0.0522870695363604,0.0
0.24911008189352382,-0.12078471475379053,-1.486571702127143,-0.2809525810257466,-0.779323749976889,1.4791190269511405,0.0
-0.34492546631214827,-0.21851332975273588,-1.4924172757236853,-0.009316939316112985,-1.8252922129363502,3.816244415385516,0.0
-0.7875402498046321,-0.1523100744308697,-1.469034981337515,0.25778388601252045,1.5158327525791688,6.44212327488672,0.0
-0.19738715983927502,-0.287869134838272,-0.7441854158093937,0.26730700649673467,1.0389864201615626,5.703727385304529,0.0
1.0295098782365821,-0.6378006479477936,-0.9721623000348819,0.021066346753075692,-0.3238128136273038,3.3784567614708636,0.0
0.8703240611166272,-0.7040038825757168,-0.9546256304073252,0.3561894717240852,-0.27687491105089995,2.2971129872650122,0.0
0.4548873008631647,-0.6441057336791713,-1.9308343745471053,0.6804290227235109,1.9862785364365743,2.540986939403829,0.0
0.15592809375096744,-0.7386817989144467,-1.1884480626483205,0.8164736137117445,2.4407225845813025,2.7391344738764514,0.0
0.5713648540044296,-0.691393766296809,-1.2995137563343464,0.8695309803031812,3.5421631970201894,2.1827970257237914,0.0
0.8858541659301582,-0.9026136968271823,-1.5859462486200835,0.41559560005436497,1.0661889857431013,0.44434832127686896,0.0
0.8664414669501768,-0.8301053764678813,-1.0306179336761663,0.04464740548525774,0.6048108278354019,0.004020348120880615,0.0
0.7266683488102064,-0.8647832376227632,-0.9020155703625833,0.1602852868074084,0.8453675622755351,-0.4574772532805376,0.0
0.46265248919606633,-0.8458680356124777,-0.9253978135866828,0.1575643936602007,1.1061929607126206,-0.33977419253218155,0.0
0.33452715355545054,-0.72291913976985,-0.6565020165095382,0.1394251170741746,0.5669404731418091,-0.4075169616054233,0.0
0.0860416706071184,-0.7985800029948401,-0.3233050217874549,-0.13855927254677067,-0.03738495096807,-0.4456222408070302,0.0
0.1442803112516138,-0.7512919703772024,-0.45190736911289064,-0.18617487496784224,-0.12539350528767804,-0.3846537527723259,0.0
0.31123158855674293,-0.7008513948938759,-0.6506564429129955,0.05190311639621881,0.015420182924809771,-0.24747466502227455,0.0
0.4393569241973615,-0.7355292560487577,-0.527899665986473,-0.015212205036223362,-0.6070403662257772,-0.24578109476264015,0.0
0.48983064836122847,-0.8490205784781668,-0.580509713240697,0.01607804679812103,-0.8577313806197898,-0.5904224257095362,0.0
0.3927657941999456,-0.7828172886663957,-0.6623475645250453,0.04419392398543303,-0.787324513744035,-1.2593822444877156,0.0
0.35782271855415787,-0.7040038825757168,-0.8552510839143845,0.009275819461114387,-0.5094308296792909,-0.9536930295124105,0.0
0.18698884708257668,-0.6535633070923902,-1.0773824201243651,0.05553097116032277,0.6256128448567394,-0.1348523253808551,0.0
0.3811180117005923,-0.6850886805654312,-0.9780078736314244,0.2682139819411624,1.2726090968833204,0.0743034674195573,0.0
0.41606135919865295,-0.6787835948340535,-0.7441854158093937,0.2400980971487081,1.1216610311333346,0.0006332098608691494,0.0
0.41217876503220247,-0.6945463091624979,-0.5162085443744233,0.08863515037671915,0.6314800924371516,-0.05779492504364085,0.0
0.315114182723194,-0.6945463091624979,-0.3349961433995046,0.05915882592442673,-0.0421854176856045,-0.0671095563076133,0.0
0.47430027169542155,-0.6441057336791713,-0.5980464084492894,1.3951164693276237,0.24157550745397757,0.2851528201515706,0.0
0.4548873008631647,-0.6850886805654312,-0.6565020165095382,0.33487582533066274,0.059691151234349156,0.33765345688810317,0.0
0.4510047066967136,-0.7481394275115135,-0.5863552740467219,0.22331926160527327,0.2197067063169751,0.022649608066817106,0.0
0.4082961708657513,-0.7071564254414057,-0.5395907875985227,-0.12314088910795228,0.06769193451821881,-0.1932804580261078,0.0
0.4082961708657513,-0.6819361376997423,-0.527899665986473,-0.42470636373338944,-0.202734364826063,-0.0637224157883445,0.0
0.47430027169542155,-0.7103089683070944,-0.4402162475008408,-0.1553381080902054,-0.34568158874200805,-0.12045697817396282,0.0
0.36170531272060896,-0.6031227316090635,-0.6155830780768463,0.004287518123406591,-0.23527085098592684,-0.145013736610628,0.0
0.36170531272060896,-0.6031227316090635,-0.6155830780768463,-0.243767074533317,0.007952790072378993,-0.08319846344610654,0.0
0.5247737240070137,-0.7103089683070944,-0.6798842597336378,-0.2959174878043763,0.04635652543904882,-0.17719155088761454,0.0
0.7654940186224453,-0.808037576408059,-0.5571274700165975,-0.2410461924481345,-0.6353097419452789,-2.015560776716565,0.0
0.3655879068870604,-0.7134615111727834,-0.5512819092105726,-0.33945173391159866,-0.7419868003522778,-2.2272570385147965,0.0
0.03168535227680092,-0.5715974133198701,-0.6565020165095382,-0.15216372722078392,-0.42728951968730766,-2.192538817208191,0.0
-0.5584677376885562,-0.19644558487676148,-0.7324942941973439,-0.06237431973508113,0.19837131024895416,-1.2272043888985957,0.0
-0.2362131015037871,-0.42027565927796656,-0.7324942941973439,0.16209921557221352,1.4998312250448769,-4.088489617769312,0.0
0.3189967768896451,-0.6724785642865235,-0.7324942941973439,0.13670422392696693,1.0128504565396017,-3.082509420604224,0.0
0.14039771708516238,-0.5715974133198701,-0.2706949713356015,-0.19070968581782996,-0.2576730311696127,-4.527124005173618,0.0
0.633486088815377,-0.5779024438674001,-0.26484940413431773,-0.0923041222303154,-0.8806669658724575,-3.222228708823225,0.0
0.43159173586445926,-0.3887502858049254,-0.3116138969777757,0.010182781078010662,-1.8695630121009512,-3.68542001991273,0.0
0.47430027169542155,-0.32885210931645603,-0.5980464084492894,0.22195882056268199,-1.5409977721330188,-3.9673991273167544,0.0
0.6412512771482781,-0.18068289814024094,-1.2059847834379482,0.128541555547369,-0.2891427592361098,-2.9207734091689734,0.0
0.8664414669501768,-0.12078471475379053,-1.2293670266620478,0.1602852868074084,0.7173550817782168,-1.570152190897991,0.0
0.8703240611166272,-0.1743778262048251,-1.1241469065725647,-0.08096707298129595,1.1504638639664144,-1.0468393318241014,0.0
0.683959812979241,-0.1743778262048251,-0.7091120509732443,-0.19660494877243403,1.0336524735609391,-0.2296921876241469,0.0
0.4393569241973615,-0.03251370032886412,-0.5103629835683984,-0.040607191150457383,0.48799948947452304,0.18777260251882733,0.0
0.3461749360548039,-0.08295427969230507,-0.7149576245697871,-0.011130865315411824,0.8720368268772848,0.3080160083286016,0.0
0.4820654600283231,-0.14915753846316177,-0.6974209293611946,0.12264629259276494,0.5274699552858678,0.13188481493499285,0.0
0.5519518831721728,-0.14285246652774594,-0.7324942941973439,-0.12631526997737375,0.6330802555995001,-0.07557740244176851,0.0
0.5131259415076604,-0.12078471475379053,-0.48113517314301507,-0.19252361458263517,0.7920290330720355,-0.14840087712989677,0.0
0.443239518363812,-0.10186949894754305,-0.4694440515309653,0.10178612285953115,0.18663682809927856,0.01926247012955668,0.0
0.443239518363812,-0.10186949894754305,-0.4694440515309653,0.07049587379069304,0.3338511494444368,0.16829655486106532,0.0
0.40053098253284786,-0.1333948586246222,-0.4168340010791119,0.07639113674529711,0.25064305533678866,0.14373979642440013,0.0
0.41217876503220247,-0.10186949894754305,-0.4051428794670621,0.15620395261760944,-0.06618775452606439,0.2826124750901527,0.0
0.41217876503220247,-0.10186949894754305,-0.4051428794670621,0.24281900135794107,-0.08645639250071843,0.19962757368020126,0.0
0.39664838836639704,-0.21851332975273588,-0.6857298077491449,0.11221620772614804,-0.06992144688629569,-0.11452949259327588,0.0
0.20251922374838147,-0.1617676823339934,-0.4577529299189155,-0.13085008082736146,0.04635652543904882,-0.3050560125377102,0.0
0.20251922374838147,-0.1617676823339934,-0.4577529299189155,-0.04332807876665249,-0.049652812164428926,-0.38719411848981083,0.0
0.734433537143108,-0.21536080068300897,-0.49867186195634855,-0.061920843074892463,0.20530531592273327,-0.7733278898136491,0.0
0.5325389123399179,-0.18698797007565676,-0.5629730308226223,-0.05013031163467173,-0.017116314619809576,-0.04848029377966844,0.0
-0.22068272483798232,0.008469270269205435,-0.28238609294765127,0.05371704377827079,-0.12486012624099459,0.7568118172907117,0.0
0.012272381444545037,0.005316734301497525,-0.352532827416394,-0.01702613380102849,-0.2784750481909502,0.8364095575253274,0.0
0.5247737240070137,-0.1333948586246222,-0.34668726501155445,0.11856495287195343,-0.39421965448076046,0.5290267929464546,0.0
1.2663478505378336,-0.11447964281837471,-0.668193138121588,0.19293598244985033,0.1140964450367901,0.29531424170937715,0.0
0.5985430131695887,-0.06088652619385442,-0.627274199688896,0.30222510756417054,0.26557785080001195,0.8372563736392449,0.0
0.683959812979241,-0.1333948586246222,-0.5162085443744233,0.055077488969121485,0.23250795957116646,0.14712693694366893,0.0
0.7732592069553474,-0.2216658726184248,-0.7324942941973439,-0.14717542864858246,0.5008006906841181,-0.17126405497889416,0.0
0.5946604190031376,-0.22797094455384062,-0.4752896123369902,0.00882233726991311,0.33225098628208827,-0.16364299913857286,0.0
0.37723541753414086,-0.13969993056003802,-0.25900384332829285,0.11085576115254421,-0.01871646965018987,-0.01376212798624286,0.0
0.3422923418883528,-0.1176321787860826,-0.4226795618851368,0.033310358310368,-0.06565436897380643,-0.10606164129510394,0.0
0.5403041006728201,-0.1554626103985776,-0.4460618083068658,0.051449634205017525,0.037822359855708435,-0.2576360865800809,0.0
0.6490164654811796,-0.1523100744308697,-0.49867186195634855,0.07004239159949176,0.19570437598208965,-0.3101367233166132,0.0
0.6451338713147292,-0.12078471475379053,-0.4635984907249404,0.11765798848955084,0.3802556469518588,-0.2525553758011777,0.0
0.6179559840018436,-0.10817457088295888,-0.4635984907249404,0.17706412235084323,0.40052428492651293,-0.15856228835966968,0.0
0.5713648540044296,-0.07980174372459715,-0.5045174227623734,0.18386634968784987,0.5274699552858678,0.12172340370521995,0.0
0.37723541753414086,-0.08610681566001298,-0.48113517314301507,0.202005626273876,0.6842852165716695,0.446888686994354,0.0
0.41606135919865295,-0.09241188759542882,-0.10701924958112809,0.4060724795701508,0.04688991099130679,0.48838110671522944,0.0
0.4975958366941301,-0.2027506568121773,-0.761722111017986,0.2115287356960652,-0.006981995429183349,0.062448480766133324,5.0
0.3189967768896451,-0.1617676823339934,0.9802551370826067,-0.37890466795307254,0.33491790753780365,-0.15009444738953115,5.0
0.315114182723194,-0.13024232265691427,-0.18885711365599428,0.033310358310368,-0.9713423926559718,0.11494912266668236,5.0
0.5519518831721728,-0.16492022519968236,-0.5337452267924979,0.008368855078711818,-0.1984672804079991,0.04466600853202238,5.0
0.8004373661205059,-0.22481840168815173,-1.451498362872029,-0.0664556539248801,2.370849174819124,0.12172340370521995,5.0
0.25299267605997494,-0.16492022519968236,0.46000016139380323,0.1004256762859273,-0.33234695644113327,0.03535137726804994,5.0
0.3422923418883528,-0.16492022519968236,0.039119783360011755,0.08682122161191402,-0.15046261973822844,0.01926247012955668,5.0
0.49371324252767956,-0.14915753846316177,-0.3116138969777757,0.07457721074599828,0.18770359920379454,0.029423883941337953,5.0
0.4975958366941301,-0.12708978668920634,-0.2765405321416263,0.0636936436881801,0.003152323354844468,0.0031735636365655072,5.0
0.4975958366941301,-0.1176321787860826,-0.28238609294765127,0.04782177874953699,0.11569659518798948,0.009101055026771245,5.0
0.4859480541947749,-0.12393725072149846,-0.2122393568800938,0.03194991277382901,0.06662516341370286,0.01926247012955668,5.0
0.46265248919606633,-0.14285246652774594,-0.22393047849214356,0.011543227651614509,0.09222765040536214,0.01926247012955668,5.0
0.48983064836122847,-0.13654739459233012,-0.2122393568800938,0.031042948737114735,0.08796057249287284,0.015028547062479069,5.0
0.5014781590083083,-0.13969993056003802,-0.22393047849214356,0.02378723851753024,0.19623776803992218,0.04974671414690882,5.0
0.5752474481708808,-0.11132710685066681,-0.13040149280522764,0.030135985046088744,0.31038218514508564,0.1361187405840788,5.0
0.47818286586187264,-0.1523100744308697,-0.15378373602932718,-0.027002730945431506,0.2826461624499692,0.09123915968786776,5.0
0.46265248919606633,-0.1743778262048251,-0.2122393568800938,-0.09865287290713336,0.16156772665987734,0.0065607022193280165,5.0
0.4238265475315546,-0.16492022519968236,-0.17716599204394448,-0.10726902900894511,0.040489287616998326,0.01248819425503584,5.0
0.4820654600283231,-0.1554626103985776,-0.200548235268044,0.007915372887510546,0.06235807899563905,-0.019689620021950686,5.0
0.5441866948392706,-0.19644558487676148,-0.21808491768611865,0.015624564606919755,0.1252975351286331,-0.23307932814341567,5.0
0.4354743300309104,-0.1617676823339934,-0.054409215117421944,0.10858835019653779,-0.06032051345122663,-0.09166630441624507,5.0
0.4587698950296152,-0.12078471475379053,-0.21808491768611865,0.056891416351173466,0.05542407332185987,0.15898192876110961,5.0
0.4082961708657513,-0.12078471475379053,-0.03687251990882953,0.11901843506315468,-0.2886093801894264,0.25636214639385296,5.0
0.4975958366941301,-0.1586151532642665,-0.2706949713356015,0.03421732217423813,0.0004853972199482201,0.23434575367467275,5.0
0.47818286586187264,-0.1743778262048251,-0.18301155284996937,0.00882233726991311,0.13863216742950796,0.12087661857540273,5.0
0.5092433473412099,-0.19959811394648844,-0.1713204312379196,0.0024735893586014523,0.12476414307080055,-0.08319846344610654,5.0
0.46265248919606633,-0.177530369070514,-0.0661003367294717,0.08273988465660878,-0.09019008486094973,-0.0417060179051476,5.0
0.4587698950296152,-0.16492022519968236,-0.07194588474497884,0.12446021582655747,-0.1979339013613157,-0.04763350864985126,5.0
0.43159173586445926,-0.18698797007565676,0.1326487562564101,0.25506300392733783,-0.5958392761339341,0.004020348120880615,5.0
0.40053098253284786,-0.11132710685066681,-0.14209261441727739,0.18522679073044113,-1.2444356913228636,0.11833626318595115,5.0
0.5364215065063683,-0.12393725072149846,-0.4226795618851368,0.2010986618914734,-0.6518446745485525,0.1970872286187831,5.0
0.5247737240070137,-0.14285246652774594,-0.4226795618851368,0.06686801902658908,-0.2678073631680889,0.06668240641521928,5.0
0.5170085356741122,-0.13969993056003802,-0.3642239498278511,-0.022014432373230003,0.16956850343817248,0.07345668228974012,5.0
0.5635996656715243,-0.13969993056003802,-0.3291505825934798,-0.17030301486883512,1.268875417534238,-0.09335987467587945,5.0
0.5713648540044296,-0.13654739459233012,-0.3642239498278511,-0.31496372877280493,1.0443202626729933,-0.1721108401087114,5.0
0.1442803112516138,-0.18068289814024094,0.38400790928703304,-0.0483163828698666,0.22824087515310273,0.022649608066817106,5.0
0.6412512771482781,-0.19644558487676148,-0.1362470664017703,-0.21565118974086261,-0.16753094439933464,0.03873851520531036,5.0
0.6412512771482781,-0.19644558487676148,-0.1362470664017703,-0.15760551351519927,0.5664070680728274,0.0048671326051957205,5.0
0.5713648540044296,-0.1586151532642665,-0.12455594478972053,-0.257825005867519,0.6069443440221355,0.13865909597353038,5.0
0.5713648540044296,-0.1586151532642665,-0.12455594478972053,-0.15125677390040654,0.6693504471307444,0.13019124467535848,5.0
0.4820654600283231,-0.14915753846316177,-0.101173701565621,-0.030177106283840488,0.25117643438347204,-0.2398536091819532,5.0
0.470417677528971,-0.23427601648925647,0.16187657307705233,0.22785409457931136,-0.05498666443422142,-0.2398536091819532,5.0
0.4510047066967136,-0.1743778262048251,0.015737540135912137,0.23102845332468247,-0.08592300694846047,0.05567420489161248,5.0
0.46265248919606633,-0.12708978668920634,-0.11286482317767076,0.202005626273876,-0.09019008486094973,0.09631987046677093,5.0
0.4548873008631647,-0.14915753846316177,-0.07779145834152144,0.10496049819794012,-0.07632207351339142,0.05990813054069845,5.0
0.4510047066967136,-0.17122529713509818,-0.13040149280522764,0.03784517728403038,-0.0075153807781421205,-0.007834635627783993,5.0
0.4975958366941301,-0.1333948586246222,-0.07194588474497884,0.10904183238773907,-0.12112643388076333,-0.010374989403480351,5.0
0.48983064836122847,-0.10186949894754305,-0.031026971893322385,0.10768138581413522,-0.15632985430749163,0.05059349927672601,5.0
0.49371324252767956,-0.14285246652774594,-0.12455594478972053,0.06324016426248512,-0.06032051345122663,-0.05017386403930282,5.0
0.5325389123399179,-0.1554626103985776,-0.14209261441727739,0.009275819461114387,0.01115310175953322,0.05736777515124687,5.0
0.4238265475315546,-0.1554626103985776,-0.013490276684729971,0.04510088767645902,-0.19046650362970402,0.06668240641521928,5.0
0.48983064836122847,-0.18698797007565676,-0.12455594478972053,0.04600785136748501,-0.05658681783820808,0.009947840156588438,5.0
0.5170085356741122,-0.1523100744308697,-0.14209261441727739,0.015171082415718466,0.12476414307080055,0.05059349927672601,5.0
0.4665350833625199,-0.18698797007565676,-0.04856364152087928,-0.016119169418625925,0.04475636878227487,0.0048671326051957205,5.0
0.470417677528971,-0.2027506568121773,-0.08948257995357126,0.004287518123406591,0.13223154080241223,-0.004447497448460288,5.0
0.4820654600283231,-0.18698797007565676,-0.10701924958112809,0.025147684399757512,0.11036275267655882,-0.021383188990580896,5.0
0.47818286586187264,-0.16492022519968236,-0.07194588474497884,0.0482752602493617,-0.02298355081546642,-0.006987851143468888,5.0
0.5325389123399179,-0.18383544100592986,-0.22393047849214356,-0.03743281581204842,0.45386281413001245,-0.029004248703914756,5.0
0.43159173586445926,-0.16807275426940926,-0.24731272171624308,-0.05285119925086682,0.6688170420617627,-0.07219026192249973,5.0
0.4587698950296152,-0.1617676823339934,-0.0017991550726802203,0.089995596950323,0.5461384561204717,0.02180282293699991,5.0
0.4354743300309104,-0.12708978668920634,0.12095760906332455,0.154843500512993,0.09969504163139926,0.1124087776052642,5.0
0.46265248919606633,-0.13024232265691427,0.02158308815141934,0.08727470380311529,0.09169426485310415,0.10055378578782352,5.0
0.4587698950296152,-0.14915753846316177,0.0683476001806541,0.062333199880082554,-0.05498666443422142,0.04381922340220516,5.0
0.4548873008631647,-0.13969993056003802,-0.0017991550726802203,0.03512428586526412,-0.07098821799081165,0.008254271187958226,5.0
0.5092433473412099,-0.1523100744308697,-0.0661003367294717,0.012450192034017073,-0.034718026459567376,-0.009528204919165244,5.0
0.5092433473412099,-0.17122529713509818,-0.0017991550726802203,0.06596105464418651,-0.05712020339046604,-0.04763350864985126,5.0
0.49371324252767956,-0.21536080068300897,-0.02518139829677978,0.14849476089820024,-0.03631817986355403,-0.13146518486158632,5.0
0.4393569241973615,-0.19644558487676148,0.23786887634589343,0.31673653768261156,-0.5361000942810406,-0.1111423520740071,5.0
0.35005753022125563,-0.16807275426940926,0.23786887634589343,0.3276201102714422,-0.9548075120972945,0.11494912266668236,5.0
0.6024256073360392,-0.09556442356313674,-0.2414671609102182,0.042379995912004476,0.2922470893794635,0.009101055026771245,5.0
0.4548873008631647,-0.1333948586246222,0.02158308815141934,0.038298659129543375,-0.02885078863751689,-0.022229972829393915,5.0
0.4510047066967136,-0.19329304201107259,-0.09532812796907834,0.06142623549767999,0.02342095970310488,0.04297243827238798,5.0
0.4510047066967136,-0.19329304201107259,-0.09532812796907834,0.06142623549767999,0.02342095970310488,0.04297243827238798,5.0
0.46265248919606633,-0.16807275426940926,-0.04856364152087928,0.08092595589180365,-0.03525141201182535,-0.006141066659153781,5.0
0.49371324252767956,-0.1586151532642665,-0.10701924958112809,0.07820506551010224,-0.006981995429183349,0.03704494752768433,5.0
0.5053607531747588,-0.1523100744308697,-0.07779145834152144,0.06460060807058268,0.028754811972897386,0.016722117322113456,5.0
0.470417677528971,-0.14600500249545387,-0.031026971893322385,0.05734489854237475,0.014886797372551781,-0.00021357462344595536,5.0
0.470417677528971,-0.14915753846316177,-0.031026971893322385,0.055077488969121485,-0.004848454694070672,-0.004447497448460288,5.0
0.47818286586187264,-0.14285246652774594,-0.06025476313292897,0.026961611781809492,0.00528586393748274,-0.005294282013463154,5.0
0.4859480541947749,-0.14285246652774594,-0.0661003367294717,0.011543227651614509,0.0010187823656077882,-0.01376212798624286,5.0
0.47818286586187264,-0.1554626103985776,-0.07194588474497884,0.016985009797770442,-0.005915225137864212,0.0014799946679352977,5.0
0.47430027169542155,-0.16807275426940926,-0.10701924958112809,0.015624564606919755,-0.02085001023282814,0.013334978093848864,5.0
0.47818286586187264,-0.177530369070514,-0.07779145834152144,0.018798938562575578,-0.004848454694070672,-0.006141066659153781,5.0
0.4820654600283231,-0.18068289814024094,-0.101173701565621,0.03920562299341351,-0.010182306506439961,0.009101055026771245,5.0
0.470417677528971,-0.17122529713509818,-0.04856364152087928,0.06460060807058268,-0.0027149138573083938,0.0014799946679352977,5.0
0.470417677528971,-0.177530369070514,-0.031026971893322385,0.0895421147591217,-0.001114758217030485,0.007407486058141035,5.0
0.47430027169542155,-0.16807275426940926,-0.04856364152087928,0.09135603799291425,-0.011782462350017075,0.020956040389191067,5.0
0.47818286586187264,-0.1554626103985776,-0.08363700635702859,0.08818166818551787,0.003685708093905628,0.05821456028106405,5.0
0.47818286586187264,-0.1554626103985776,-0.06025476313292897,0.07820506551010224,0.0026189378025864916,0.04466600853202238,5.0
0.470417677528971,-0.14915753846316177,-0.03687251990882953,0.06822846283468663,-0.004848454694070672,0.03704494752768433,5.0
0.4665350833625199,-0.17122529713509818,-0.07194588474497884,0.06460060807058268,0.0026189378025864916,0.02180282293699991,5.0
0.4665350833625199,-0.17122529713509818,-0.06025476313292897,0.07230979978999187,0.013286642342171499,0.009947840156588438,5.0
0.47430027169542155,-0.1554626103985776,-0.0661003367294717,0.06505409026178395,0.010619716207275243,0.027730316263711922,5.0
0.470417677528971,-0.14285246652774594,-0.0661003367294717,0.051449634205017525,0.015953568477067744,0.009101055026771245,5.0
0.470417677528971,-0.16492022519968236,-0.07194588474497884,0.04101955037546549,0.00581924948974072,0.015028547062479069,5.0
0.470417677528971,-0.1617676823339934,-0.07779145834152144,0.020612865944627558,0.018620494611964,0.008254271187958226,5.0
0.4820654600283231,-0.13969993056003802,-0.13040149280522764,0.01743849198897173,0.019687264090086313,-0.00868142043485014,5.0
0.4820654600283231,-0.13969993056003802,-0.13040149280522764,0.0015666249761988988,0.014886797372551781,-0.022229972829393915,5.0
0.4471221125302631,-0.1333948586246222,-0.04856364152087928,-0.002968191404801347,-0.006448610283523781,-0.010374989403480351,5.0
0.47818286586187264,-0.13969993056003802,0.050810904972061734,0.01970590156222499,-0.011249076797759097,0.047206358757457254,5.0
0.47818286586187264,-0.13969993056003802,0.050810904972061734,0.03920562299341351,-0.04805265550765498,-0.043399588164781996,5.0
0.5092433473412099,-0.19329304201107259,-0.18301155284996937,0.1022396050507324,0.13863216742950796,-0.08235167831628935,5.0
0.48983064836122847,-0.19014051294134568,-0.2122393568800938,0.051449634205017525,-0.02138339578508612,-0.05948849530327525,5.0
0.470417677528971,-0.18383544100592986,-0.14793818801382008,0.08591425722951145,0.043156212125500935,0.007407486058141035,5.0
0.4975958366941301,-0.18383544100592986,-0.08948257995357126,0.08500729284710888,0.017020337955190052,-0.03408495690080955,5.0
0.4975958366941301,-0.19014051294134568,-0.11286482317767076,0.10632094477154397,0.03462204979494785,-0.022229972829393915,5.0
0.5519518831721728,-0.21851332975273588,-0.08948257995357126,0.09407693114012194,0.09222765040536214,-0.021383188990580896,5.0
0.47430027169542155,-0.18068289814024094,-0.08363700635702859,0.10178612285953115,0.10876258951421032,-0.01460891182505588,5.0
0.4975958366941301,-0.17122529713509818,-0.11286482317767076,0.04918222463176426,0.2021050026091855,-0.04424637329459918,5.0
0.4471221125302631,-0.18068289814024094,-0.0017991550726802203,-0.19433754334744013,0.18610344905259515,-0.1577155032298525,5.0
0.5170085356741122,-0.16492022519968236,-0.13040149280522764,0.0024735893586014523,0.06449162120467095,-0.06626277117779608,5.0
0.4471221125302631,-0.1743778262048251,-0.0076447286692228845,0.05598445335152406,0.07089224132619212,-0.03323817177099238,5.0
0.4548873008631647,-0.1554626103985776,-0.03687251990882953,0.06686801902658908,0.03408866424268988,0.008254271187958226,5.0
0.4510047066967136,-0.14285246652774594,0.004046418523862502,0.07049587379069304,-0.011782462350017075,0.01756890116092647,5.0
0.4510047066967136,-0.13969993056003802,-0.031026971893322385,0.0664145368353878,-0.07792222366459078,0.011641409125218648,5.0
0.46265248919606633,-0.13654739459233012,-0.0076447286692228845,0.06278668207128384,-0.016582929067551596,-0.001907143753451689,5.0
0.47818286586187264,-0.13969993056003802,-0.013490276684729971,0.056437934159972176,-0.020316624680570165,0.011641409125218648,5.0
0.470417677528971,-0.14915753846316177,0.027428661747961946,0.08636773942071274,-0.04751926995539701,0.07345668228974012,5.0
0.47430027169542155,-0.14285246652774594,-0.0017991550726802203,0.05099615201381624,-0.008582151069461256,0.03873851520531036,5.0
0.5985430131695887,-0.14600500249545387,-0.07779145834152144,-0.06237431973508113,-0.2443383988687379,-0.0467867261020424,5.0
0.5635996656715243,-0.12078471475379053,-0.11286482317767076,-0.19252361458263517,-0.032584484250535464,-0.05017386403930282,5.0
0.5713648540044296,-0.1554626103985776,-0.042718093505372194,-0.0823275250859124,0.1311647696978963,-0.0544077845243721,5.0
0.443239518363812,-0.1586151532642665,0.050810904972061734,0.01063626326921194,-0.016582929067551596,-0.018842834892133488,5.0
0.4238265475315546,-0.1586151532642665,-0.013490276684729971,-0.028363177519035363,-0.09872424719150281,0.05990813054069845,5.0
0.47818286586187264,-0.1586151532642665,-0.031026971893322385,0.004741000314607863,-0.012315847089078232,0.022649608066817106,5.0
0.5092433473412099,-0.17122529713509818,-0.09532812796907834,0.030135985046088744,0.09702812037568392,-0.01376212798624286,5.0
0.47818286586187264,-0.19329304201107259,-0.054409215117421944,0.04510088767645902,0.10076181273591521,-0.022229972829393915,5.0
0.4587698950296152,-0.19329304201107259,-0.04856364152087928,0.04374044179423175,0.06715854896596084,0.010794625286405632,5.0
0.4665350833625199,-0.18383544100592986,-0.0661003367294717,0.04419392398543303,0.0927610359576201,0.005713917089510825,5.0
0.47430027169542155,-0.18068289814024094,-0.019335850281272635,0.06596105464418651,0.0682253200704768,0.008254271187958226,5.0
0.1908714412490281,-0.18068289814024094,-0.2122393568800938,0.02151982894427697,-0.3371474199058804,0.17083689992248352,5.0
0.4510047066967136,-0.19014051294134568,-0.1654748704318947,0.09453041333132324,-0.03418464090730939,0.1259573293543059,5.0
0.470417677528971,-0.17122529713509818,-0.031026971893322385,0.12309977478396625,-0.1221931919741302,0.09886021552818912,5.0
0.470417677528971,-0.16492022519968236,0.015737540135912137,0.1158440597247457,-0.058186974494982,0.09377951507731938,5.0
0.4471221125302631,-0.18383544100592986,0.050810904972061734,0.23556328629872056,-0.22727008721878084,0.22249076185723207,5.0
0.5247737240070137,-0.17122529713509818,-0.07194588474497884,0.0981582708609335,0.03142173973418727,0.04551279366183956,5.0
0.37723541753414086,-0.22797094455384062,0.06250202658411114,0.21288918780068164,-0.25287256770486555,0.10732806682636106,5.0
0.443239518363812,-0.2090557287475932,-0.1362470664017703,0.2691209352615398,-0.3600830051585481,0.25720894185170357,5.0
0.443239518363812,-0.2090557287475932,-0.1362470664017703,0.19474991121465549,-0.02511709139810469,0.09801343039837195,5.0
0.5752474481708808,-0.2027506568121773,-0.1362470664017703,0.21062178237568782,0.12689768527983247,0.08869880429841619,5.0
0.47430027169542155,-0.19014051294134568,-0.09532812796907834,0.2482607655283061,-0.016582929067551596,0.08192452842389535,5.0
0.47430027169542155,-0.19014051294134568,-0.09532812796907834,0.22558668915431754,0.07782625350554584,0.0632952658959505,5.0
0.47430027169542155,-0.18383544100592986,-0.12455594478972053,0.2142496288432728,0.04795667884303547,0.0751502525493745,5.0
0.4820654600283231,-0.1554626103985776,-0.101173701565621,0.20835436588866874,0.05169037445605403,0.05652099002142966,5.0
0.4820654600283231,-0.1554626103985776,-0.101173701565621,0.18704071949524625,0.04582313988679083,0.07176311203010573,5.0
0.47430027169542155,-0.1523100744308697,-0.04856364152087928,0.19021508930264272,-0.006981995429183349,0.05821456028106405,5.0
0.4665350833625199,-0.1554626103985776,-0.09532812796907834,0.1784245633934345,-0.010715692058697938,0.04381922340220516,5.0
0.47818286586187264,-0.13969993056003802,-0.101173701565621,0.17751759901103192,0.009552945102759287,0.022649608066817106,5.0
0.4820654600283231,-0.12393725072149846,-0.10701924958112809,0.13307637745938183,0.038889130960224394,0.011641409125218648,5.0
0.47818286586187264,-0.1176321787860826,-0.13040149280522764,0.09226300237531682,0.014353411820293812,-0.0239235430890283,5.0
0.470417677528971,-0.09556442356313674,-0.13040149280522764,0.04782177874953699,-0.01551615877623246,-0.01714926592350328,5.0
0.4548873008631647,-0.07664920775688924,-0.06025476313292897,0.011089745460413232,-0.03151771477241314,-0.019689620021950686,5.0
0.470417677528971,-0.07349667178918132,-0.042718093505372194,-0.04967682944347044,-0.036851565415812006,0.01587533219229626,5.0
0.470417677528971,-0.09556442356313674,-0.0076447286692228845,-0.08686234699792522,-0.02885078863751689,0.0014799946679352977,5.0
0.46265248919606633,-0.12708978668920634,-0.04856364152087928,-0.10318769481914618,-0.012315847089078232,-0.012068558372110563,5.0
0.4665350833625199,-0.1333948586246222,-0.06025476313292897,-0.11452473300614048,-0.014982773223974486,-0.08235167831628935,5.0
0.4859480541947749,-0.1554626103985776,-0.06025476313292897,-0.12631526997737375,-0.009648921360780395,-0.05356100455857159,5.0
0.4665350833625199,-0.14915753846316177,-0.019335850281272635,-0.13855927254677067,-0.01604954351529362,-0.0366253097082528,5.0
0.470417677528971,-0.14915753846316177,-0.04856364152087928,-0.1603264177244322,-0.02511709139810469,-0.03493174203062677,5.0
0.470417677528971,-0.16807275426940926,-0.03687251990882953,-0.1734773736142064,-0.04111864658108855,-0.05017386403930282,5.0
0.46265248919606633,-0.2090557287475932,-0.0076447286692228845,-0.1811865653336156,-0.05018619771668689,-0.05864171017345807,5.0
0.46265248919606633,-0.2090557287475932,-0.019335850281272635,-0.15080329724021785,-0.06512098342154843,-0.022229972829393915,5.0
0.47430027169542155,-0.22481840168815173,-0.054409215117421944,-0.11769911387556196,-0.04591911329862308,-0.021383188990580896,5.0
0.4859480541947749,-0.23112347362356755,-0.0076447286692228845,-0.08822278804051646,-0.04058526428161786,-0.001907143753451689,5.0
0.46265248919606633,-0.24688616036008812,-0.054409215117421944,-0.0587464622054709,-0.046985884403139035,0.010794625286405632,5.0
0.47430027169542155,-0.2752589909674403,-0.04856364152087928,0.013810637224867776,-0.017116314619809576,0.0048671326051957205,5.0
0.47818286586187264,-0.26895391903202465,-0.054409215117421944,0.05371704377827079,-0.017116314619809576,0.011641409125218648,5.0
0.47818286586187264,-0.25319123229550394,-0.07194588474497884,0.09861175305213477,0.01755372350744804,0.027730316263711922,5.0
0.47818286586187264,-0.22481840168815173,-0.07194588474497884,0.12491369801775876,0.023954345255362854,0.04466600853202238,5.0
0.470417677528971,-0.21536080068300897,-0.07194588474497884,0.16164572784999964,0.014886797372551781,0.0649888361555849,5.0
0.5286563181734643,-0.1743778262048251,-0.08363700635702859,0.13216941307697927,-0.20433451497726227,0.047206358757457254,5.0
0.37723541753414086,-0.08295427969230507,-0.3642239498278511,0.0714028381730956,-0.26247349463436004,-0.17888512114724892,5.0
0.4587698950296152,-0.29732673584341485,-0.1713204312379196,0.04283347810320576,0.25811044005725114,0.16829655486106532,5.0
0.6412512771482781,-0.16492022519968236,-0.25900384332829285,0.13625074726677822,0.34291869732724783,0.2555153715920692,5.0
0.5403041006728201,-0.1586151532642665,0.00989196653936953,0.15030868966300537,0.00581924948974072,0.16406262921197934,5.0
0.470417677528971,-0.2027506568121773,-0.09532812796907834,0.12672762678256388,-0.02298355081546642,0.16914333999088255,5.0
0.43159173586445926,-0.20590318588190426,-0.1654748704318947,0.12128584601916112,-0.03205109869827749,0.08446487864933024,5.0
0.48983064836122847,-0.1554626103985776,-0.13040149280522764,0.10405353381553756,-0.0016481435659892573,-0.1458605217404452,5.0
0.5170085356741122,-0.12708978668920634,-0.07779145834152144,0.06460060807058268,0.10236196939268914,-0.16448978426839003,5.0
0.4510047066967136,-0.1176321787860826,-0.06025476313292897,0.03376384015588099,0.018087109059706015,-0.06964990653304817,5.0
0.47430027169542155,-0.16492022519968236,-0.13040149280522764,0.011543227651614509,0.03675559200397976,-0.012068558372110563,5.0
0.4975958366941301,-0.17122529713509818,-0.08363700635702859,-0.003421673596002619,0.0820933314180351,0.020109255259373876,5.0
0.4859480541947749,-0.20590318588190426,-0.11871037119317787,0.0015666249761988988,0.05542407332185987,-0.03323817177099238,5.0
0.4354743300309104,-0.19959811394648844,-0.11286482317767076,0.01743849198897173,0.0607579223388651,-0.06795634143743047,5.0
0.4510047066967136,-0.20590318588190426,-0.08948257995357126,0.032856876464855,0.040489287616998326,-0.0637224157883445,5.0
0.48983064836122847,-0.21536080068300897,-0.10701924958112809,0.039659104838926505,0.05275714556056997,-0.0027539283184545554,5.0
0.5014781590083083,-0.21851332975273588,-0.054409215117421944,0.06822846283468663,0.056490844426375836,-0.03747209483806998,5.0
0.48983064836122847,-0.2027506568121773,-0.08363700635702859,0.09634434209612835,0.023954345255362854,0.010794625286405632,5.0
0.48983064836122847,-0.2090557287475932,-0.13040149280522764,0.11266968991734932,0.03462204979494785,0.05821456028106405,5.0
0.4820654600283231,-0.21851332975273588,-0.11871037119317787,0.10858835019653779,0.05115698890379605,-0.001907143753451689,5.0
0.47818286586187264,-0.22797094455384062,-0.12455594478972053,0.08591425722951145,0.04635652543904882,-0.07473061731195131,5.0
0.49371324252767956,-0.23742854555898338,-0.1654748704318947,0.103146569433135,0.04102267316925631,-0.08150489318647215,5.0
0.4975958366941301,-0.24688616036008812,-0.1713204312379196,0.12219281040156368,0.06342485010015499,-0.0874323839311758,5.0
0.5092433473412099,-0.23427601648925647,-0.13040149280522764,0.11085576115254421,0.0682253200704768,-0.05525456965418928,5.0
0.5092433473412099,-0.23427601648925647,-0.14209261441727739,0.10405353381553756,0.07942640365674522,-0.09335987467587945,5.0
0.470417677528971,-0.23112347362356755,-0.13040149280522764,0.0714028381730956,0.08102656031351915,-0.11791663311254463,5.0
0.470417677528971,-0.23112347362356755,-0.07779145834152144,0.04101955037546549,0.03942251651248237,-0.125537688952866,5.0
0.46265248919606633,-0.23112347362356755,-0.04856364152087928,0.009729298886809385,-0.03151771477241314,-0.12384411869323157,5.0
0.46265248919606633,-0.23112347362356755,-0.04856364152087928,0.021066346753075692,-0.05445327888196344,-0.08912595419081018,5.0
0.470417677528971,-0.19959811394648844,-0.054409215117421944,0.03240339461934201,-0.0907234704132077,0.009947840156588438,5.0
0.4820654600283231,-0.18383544100592986,-0.13040149280522764,0.043286959603030466,-0.11845949961389889,0.06414205102576771,5.0
0.46265248919606633,-0.19644558487676148,-0.12455594478972053,0.06777498064348535,-0.16646417329481866,0.10224735604745791,5.0
0.46265248919606633,-0.19644558487676148,-0.08948257995357126,0.09951871190352474,-0.2107351416043581,0.11071520734562981,5.0
0.4665350833625199,-0.18068289814024094,-0.07779145834152144,0.11448361868215445,-0.19099988267638743,0.1598287035628934,5.0
0.4510047066967136,-0.16807275426940926,-0.031026971893322385,0.10904183238773907,-0.18566604016495666,0.2851528201515706,5.0
0.4665350833625199,-0.14915753846316177,-0.07194588474497884,0.10949531457894036,-0.17819864243334507,0.3241049154670949,5.0
0.470417677528971,-0.14915753846316177,-0.0076447286692228845,0.11130924334374548,-0.20113420166371448,0.33426633702490116,5.0
0.470417677528971,-0.14600500249545387,-0.031026971893322385,0.11765798848955084,-0.22246961074288438,0.3130967191075046,5.0
0.4665350833625199,-0.1523100744308697,-0.04856364152087928,0.12899503773857032,-0.22780346626546427,0.3156370641689228,5.0
0.46265248919606633,-0.12708978668920634,-0.031026971893322385,0.11040227896134293,-0.21500222602242183,0.3156370641689228,5.0
0.46265248919606633,-0.10502203491525096,-0.04856364152087928,0.09951871190352474,-0.2038011359305788,0.3291856262459979,5.0
0.47818286586187264,-0.10502203491525096,-0.08948257995357126,0.07775158331890096,-0.14672891436684804,0.2724510535323463,5.0
0.47818286586187264,-0.11132710685066681,-0.101173701565621,0.06868194502588791,-0.13392767412380568,0.2529750058745842,5.0
0.4820654600283231,-0.13024232265691427,-0.031026971893322385,0.08092595589180365,-0.14139505884426826,0.2284182680939858,5.0
0.48983064836122847,-0.1333948586246222,-0.031026971893322385,0.08455381065590761,-0.1323275109614572,0.21825684653617955,5.0
0.48983064836122847,-0.14600500249545387,-0.08948257995357126,0.09044907361051169,-0.10352471716182461,0.1615222738225278,5.0
0.4859480541947749,-0.16807275426940926,-0.08363700635702859,0.10450701600673881,-0.11472580725366759,0.13527195545426163,5.0
0.4975958366941301,-0.16492022519968236,-0.09532812796907834,0.1158440597247457,-0.06565436897380643,0.10648128169654385,5.0
0.49371324252767956,-0.1617676823339934,-0.11286482317767076,0.10904183238773907,-0.061920670108000564,0.10478771143690949,5.0
0.470417677528971,-0.1554626103985776,-0.13040149280522764,0.08727470380311529,-0.04645249885088105,0.05652099002142966,5.0
0.470417677528971,-0.16492022519968236,-0.18885711365599428,0.0546240067779202,-0.041652032133346534,0.04974671414690882,5.0
0.47818286586187264,-0.17122529713509818,-0.1947026744620191,0.032856876464855,-0.028317403085258916,0.05736777515124687,5.0
0.47818286586187264,-0.19014051294134568,-0.17716599204394448,0.022880275517880824,-0.027784017533000926,0.07684382280900891,5.0
0.47818286586187264,-0.21536080068300897,-0.11871037119317787,0.027868575472835482,-0.0016481435659892573,0.02603674600407753,5.0
0.47818286586187264,-0.2405810884246723,-0.06025476313292897,0.04192651441217977,-0.005381839890555041,0.01926247012955668,5.0
0.470417677528971,-0.24688616036008812,-0.12455594478972053,0.0546240067779202,0.016486952402932086,0.01841568499973949,5.0
0.47818286586187264,-0.23742854555898338,-0.1654748704318947,0.055077488969121485,0.027688040868381423,0.0014799946679352977,5.0
0.47818286586187264,-0.24688616036008812,-0.14793818801382008,0.062333199880082554,0.05542407332185987,0.005713917089510825,5.0
0.47818286586187264,-0.25319123229550394,-0.13040149280522764,0.060065788924076144,0.12743107733766498,-0.02731068102628872,5.0
0.46265248919606633,-0.2594963042309198,-0.13040149280522764,0.07729810112769968,0.08956072264407224,-0.022229972829393915,5.0
0.4665350833625199,-0.25319123229550394,-0.12455594478972053,0.08092595589180365,0.09116087930084617,-0.03323817177099238,5.0
0.47818286586187264,-0.25319123229550394,-0.1362470664017703,0.0636936436881801,0.10502889715397903,-0.017996051053320476,5.0
0.4665350833625199,-0.24688616036008812,-0.12455594478972053,0.06142623549767999,0.07249239798296606,-0.006987851143468888,5.0
0.470417677528971,-0.25319123229550394,-0.101173701565621,0.0714028381730956,0.04262282657324296,0.03958530033512756,5.0
0.46265248919606633,-0.25319123229550394,-0.11871037119317787,0.08863515037671915,0.014353411820293812,0.07176311203010573,5.0
0.4665350833625199,-0.2626488470966087,-0.13040149280522764,0.08001899427490737,-0.011782462350017075,0.07769060793882608,5.0
0.46265248919606633,-0.26895391903202465,-0.22977603929816845,0.0977047886697322,-0.04111864658108855,0.08869880429841619,5.0
0.48983064836122847,-0.2910216777039608,-0.24731272171624308,0.10133264066832987,-0.024583707472240347,0.04466600853202238,5.0
0.5092433473412099,-0.2815640491068943,-0.1713204312379196,0.12446021582655747,0.013286642342171499,0.05652099002142966,5.0
0.4975958366941301,-0.287869134838272,-0.1362470664017703,0.13761118830936947,0.017020337955190052,0.020109255259373876,5.0
0.47818286586187264,-0.2594963042309198,-0.15378373602932718,0.11312317210855061,0.013286642342171499,0.0065607022193280165,5.0
0.4820654600283231,-0.23742854555898338,-0.1713204312379196,0.08818166818551787,0.03995590206474035,-0.004447497448460288,5.0
0.47818286586187264,-0.22797094455384062,-0.1947026744620191,0.06278668207128384,0.023954345255362854,0.0014799946679352977,5.0
0.47818286586187264,-0.23742854555898338,-0.200548235268044,0.05099615201381624,0.018087109059706015,0.033657807008415544,5.0
0.46265248919606633,-0.23742854555898338,-0.2063937960740689,0.02560116589958222,0.004752479198421585,0.028577101393529102,5.0
0.47430027169542155,-0.25319123229550394,-0.1947026744620191,0.028322057664036764,0.02502111635987881,0.023496393196634296,5.0
0.47430027169542155,-0.25319123229550394,-0.2122393568800938,0.02378723851753024,0.009019560363698125,0.0531338546661776,5.0
0.470417677528971,-0.2626488470966087,-0.18885711365599428,0.026508130281984784,0.003152323354844468,0.01587533219229626,5.0
0.47430027169542155,-0.2815640491068943,-0.18301155284996937,0.03603124968592322,-0.013916002932655347,0.04212565314257078,5.0
0.47430027169542155,-0.2752589909674403,-0.13040149280522764,0.04419392398543303,-0.01284923264133621,0.04297243827238798,5.0
0.47818286586187264,-0.2752589909674403,-0.200548235268044,0.04872874244056298,-0.02511709139810469,0.04551279366183956,5.0
0.47818286586187264,-0.2752589909674403,-0.200548235268044,0.06732150121779036,-0.024583707472240347,0.04974671414690882,5.0
0.47818286586187264,-0.27210644810175144,-0.21808491768611865,0.06460060807058268,-0.022450166889602077,0.03873851520531036,5.0
0.47818286586187264,-0.2815640491068943,-0.2122393568800938,0.07729810112769968,-0.008582151069461256,0.03619816239786715,5.0
0.47818286586187264,-0.2752589909674403,-0.1713204312379196,0.0714028381730956,0.0004853972199482201,0.04127886801275359,5.0
0.4859480541947749,-0.25319123229550394,-0.18301155284996937,0.04283347810320576,-0.0037816843011019338,0.027730316263711922,5.0
0.47818286586187264,-0.2405810884246723,-0.1947026744620191,0.00746189069630927,0.0010187823656077882,-0.007834635627783993,5.0
0.4820654600283231,-0.23427601648925647,-0.1713204312379196,-0.010677383124210542,0.0015521675112673554,-0.006141066659153781,5.0
0.48983064836122847,-0.24688616036008812,-0.200548235268044,-0.01475872284502208,0.010086330655017265,0.0031735636365655072,5.0
0.470417677528971,-0.2594963042309198,-0.22393047849214356,-0.012037829697814377,-0.0016481435659892573,-0.005294282013463154,5.0
0.4665350833625199,-0.26580137616633553,-0.2063937960740689,-0.005235602360807742,0.004752479198421585,0.0014799946679352977,5.0
0.47818286586187264,-0.26895391903202465,-0.15962930962586985,0.0006596633593026295,0.00528586393748274,-0.019689620021950686,5.0
0.47818286586187264,-0.26580137616633553,-0.1713204312379196,0.01290367422521835,-0.01871646965018987,0.011641409125218648,5.0
0.4859480541947749,-0.2752589909674403,-0.13040149280522764,0.025147684399757512,-0.02298355081546642,0.022649608066817106,5.0
0.47818286586187264,-0.2752589909674403,-0.14793818801382008,0.03194991277382901,-0.02138339578508612,0.027730316263711922,5.0
0.4665350833625199,-0.26895391903202465,-0.1713204312379196,0.04192651441217977,-0.027250633607136605,0.04635957879165674,5.0
0.47818286586187264,-0.27210644810175144,-0.1947026744620191,0.04464740548525774,-0.017116314619809576,0.03704494752768433,5.0
0.4859480541947749,-0.2626488470966087,-0.2122393568800938,0.04101955037546549,-0.0016481435659892573,0.014181763223666051,5.0
0.47818286586187264,-0.2626488470966087,-0.1947026744620191,0.04555436917628373,-0.008582151069461256,-0.007834635627783993,5.0
0.47818286586187264,-0.26895391903202465,-0.17716599204394448,0.0546240067779202,-0.0027149138573083938,0.008254271187958226,5.0
0.47818286586187264,-0.2626488470966087,-0.17716599204394448,0.05734489854237475,-0.005915225137864212,-0.00021357462344595536,5.0
0.470417677528971,-0.26895391903202465,-0.18885711365599428,0.04736829724971228,0.008486175624636971,-0.020536403860763705,5.0
0.47818286586187264,-0.25634377516119283,-0.1362470664017703,0.04782177874953699,0.023954345255362854,-0.03323817177099238,5.0
0.470417677528971,-0.25319123229550394,-0.14793818801382008,0.055077488969121485,0.012219871237655538,-0.012068558372110563,5.0
0.47818286586187264,-0.25319123229550394,-0.18301155284996937,0.03875214097505637,0.01755372350744804,-0.019689620021950686,5.0
0.47818286586187264,-0.25319123229550394,-0.18885711365599428,0.03784517728403038,0.013286642342171499,-0.03069781896354914,5.0
0.4820654600283231,-0.24373363129036124,-0.15378373602932718,0.033310358310368,0.00581924948974072,-0.03069781896354914,5.0
0.47818286586187264,-0.2405810884246723,-0.14209261441727739,0.03194991277382901,0.018087109059706015,-0.03323817177099238,5.0
0.47818286586187264,-0.23742854555898338,-0.14209261441727739,0.01743849198897173,0.009019560363698125,-0.0459399409722252,5.0
0.470417677528971,-0.24688616036008812,-0.13040149280522764,0.012450192034017073,0.019687264090086313,-0.03408495690080955,5.0
0.470417677528971,-0.250038703225777,-0.101173701565621,0.013810637224867776,0.0015521675112673554,-0.040012450227521576,5.0
0.47818286586187264,-0.2405810884246723,-0.1654748704318947,0.033310358310368,-0.0075153807781421205,-0.0417060179051476,5.0
0.470417677528971,-0.23742854555898338,-0.18885711365599428,0.014264119416069051,0.0015521675112673554,-0.028157466156105912,5.0
0.47430027169542155,-0.24688616036008812,-0.1713204312379196,0.005647961931504132,-0.011249076797759097,-0.032391389223183534,5.0
0.47818286586187264,-0.23742854555898338,-0.15962930962586985,0.002927071549802745,0.004752479198421585,-0.03493174203062677,5.0
0.4859480541947749,-0.250038703225777,-0.14793818801382008,0.016531528989322322,0.019687264090086313,-0.05948849530327525,5.0
0.47430027169542155,-0.24688616036008812,-0.1713204312379196,0.014717600224517189,0.012753256789913514,-0.06118206556290964,5.0
0.4665350833625199,-0.250038703225777,-0.11286482317767076,0.006101444122705414,0.018620494611964,-0.0467867261020424,5.0
0.47430027169542155,-0.23742854555898338,-0.10701924958112809,0.010182781078010662,0.018620494611964,-0.03747209483806998,5.0
0.4859480541947749,-0.2405810884246723,-0.12455594478972053,0.022880275517880824,0.025554501912136783,-0.02731068102628872,5.0
0.47818286586187264,-0.23742854555898338,-0.1362470664017703,0.018798938562575578,0.02342095970310488,-0.05694813991382367,5.0
0.470417677528971,-0.23742854555898338,-0.14209261441727739,0.01970590156222499,0.0010187823656077882,-0.011221773887795458,5.0
0.470417677528971,-0.23742854555898338,-0.15962930962586985,0.029682503546264036,-0.0027149138573083938,-0.021383188990580896,5.0
0.470417677528971,-0.24688616036008812,-0.1713204312379196,0.04374044179423175,0.007419404520121015,-0.019689620021950686,5.0
0.470417677528971,-0.2405810884246723,-0.14209261441727739,0.05598445335152406,0.0026189378025864916,-0.02646389589647153,5.0
0.48983064836122847,-0.24688616036008812,-0.15962930962586985,0.051449634205017525,0.019153878537828323,-0.04763350864985126,5.0
0.47818286586187264,-0.24373363129036124,-0.15962930962586985,0.05734489854237475,0.014353411820293812,-0.028157466156105912,5.0
0.47430027169542155,-0.250038703225777,-0.14793818801382008,0.0636936436881801,0.02288757577724054,-0.05779492504364085,5.0
0.49371324252767956,-0.27210644810175144,-0.1713204312379196,0.07367024636359572,0.020754035194602272,-0.0637224157883445,5.0
0.5092433473412099,-0.2847165919725831,-0.1362470664017703,0.08001899427490737,0.06769193451821881,-0.13908624070190767,5.0
0.5092433473412099,-0.2815640491068943,-0.200548235268044,0.0895421147591217,0.10076181273591521,-0.20090151386642913,5.0
0.47430027169542155,-0.25319123229550394,-0.17716599204394448,0.09861175305213477,0.11462982408347352,-0.217837216462773,5.0
0.4548873008631647,-0.23427601648925647,-0.18301155284996937,0.08727470380311529,0.09222765040536214,-0.15432836271058376,5.0
0.470417677528971,-0.22481840168815173,-0.18301155284996937,0.0664145368353878,0.06662516341370286,-0.11961020337217902,5.0
0.47818286586187264,-0.23742854555898338,-0.1362470664017703,0.04872874244056298,0.03835574540796642,-0.062028845528710116,5.0
0.47818286586187264,-0.22797094455384062,-0.14209261441727739,0.06097275330647871,0.004219093646163605,-0.05694813991382367,5.0
0.4665350833625199,-0.23112347362356755,-0.13040149280522764,0.055077488969121485,-0.01284923264133621,-0.03408495690080955,5.0
0.46265248919606633,-0.22481840168815173,-0.12455594478972053,0.05281007939586822,-0.051252965568415576,-0.03323817177099238,5.0
0.47818286586187264,-0.23742854555898338,-0.1654748704318947,0.055077488969121485,-0.046985884403139035,-0.012068558372110563,5.0
0.47818286586187264,-0.23742854555898338,-0.1654748704318947,0.053263561587069505,-0.020316624680570165,-0.03493174203062677,5.0
0.47818286586187264,-0.22797094455384062,-0.13040149280522764,0.05915882592442673,-0.01818308409793189,-0.022229972829393915,5.0
0.47818286586187264,-0.2216658726184248,-0.11871037119317787,0.06097275330647871,-0.024050321919982375,-0.03916566509770437,5.0
0.470417677528971,-0.20590318588190426,-0.12455594478972053,0.060065788924076144,-0.03045094366789719,-0.012915342856425668,5.0
0.47818286586187264,-0.19329304201107259,-0.1362470664017703,0.03875214097505637,-0.0032482991046175642,-0.04763350864985126,5.0
0.47818286586187264,-0.19644558487676148,-0.14209261441727739,0.038298659129543375,-0.006981995429183349,-0.05694813991382367,5.0
0.47818286586187264,-0.18698797007565676,-0.09532812796907834,0.03376384015588099,0.003685708093905628,-0.06964990653304817,5.0
0.47818286586187264,-0.19014051294134568,-0.11286482317767076,0.02197331113547826,0.016486952402932086,-0.07388383218213412,5.0
0.470417677528971,-0.19014051294134568,-0.11871037119317787,0.013810637224867776,0.015420182924809771,-0.06626277117779608,5.0
0.4665350833625199,-0.19959811394648844,-0.10701924958112809,0.006101444122705414,0.017020337955190052,-0.06287563065852733,5.0
0.47818286586187264,-0.21851332975273588,-0.11286482317767076,0.019252419371023715,0.0015521675112673554,-0.06795634143743047,5.0
0.470417677528971,-0.21536080068300897,-0.15962930962586985,0.02197331113547826,0.01115310175953322,-0.062028845528710116,5.0
0.46265248919606633,-0.21536080068300897,-0.11286482317767076,0.017891974180173013,-0.0005813730713709176,-0.06456920091816172,5.0
0.470417677528971,-0.2090557287475932,-0.09532812796907834,0.02378723851753024,-0.010182306506439961,-0.03069781896354914,5.0
0.47818286586187264,-0.22481840168815173,-0.11871037119317787,0.034670804019751124,0.00581924948974072,-0.05356100455857159,5.0
0.4820654600283231,-0.23112347362356755,-0.11871037119317787,0.03784517728403038,0.0010187823656077882,-0.03747209483806998,5.0
0.47818286586187264,-0.22481840168815173,-0.11871037119317787,0.05008918763141368,0.015420182924809771,-0.04509315584240802,5.0
0.47818286586187264,-0.21536080068300897,-0.14209261441727739,0.04600785136748501,0.013820027894429474,-0.0417060179051476,5.0
0.47818286586187264,-0.22481840168815173,-0.13040149280522764,0.060519271115277426,0.021820804672724584,-0.05779492504364085,5.0
0.4665350833625199,-0.21220825781732008,-0.08363700635702859,0.05779838073357603,0.028221426420639396,-0.05356100455857159,5.0
0.47430027169542155,-0.21220825781732008,-0.08363700635702859,0.06187971768888127,0.018620494611964,-0.029004248703914756,5.0
0.4665350833625199,-0.19644558487676148,-0.07194588474497884,0.04918222463176426,0.027154658568910715,-0.0467867261020424,5.0
0.47430027169542155,-0.19959811394648844,-0.03687251990882953,0.05054266982261496,0.003685708093905628,-0.05017386403930282,5.0
0.47818286586187264,-0.19329304201107259,-0.10701924958112809,0.046914815058511,0.02502111635987881,-0.05694813991382367,5.0
0.46265248919606633,-0.18698797007565676,-0.10701924958112809,0.041473032220978485,0.019687264090086313,-0.0467867261020424,5.0
0.4820654600283231,-0.20590318588190426,-0.101173701565621,0.041473032220978485,0.01755372350744804,-0.024770326927841313,5.0
0.4820654600283231,-0.19329304201107259,-0.1362470664017703,0.039659104838926505,0.013820027894429474,-0.03577852716044395,5.0
0.47818286586187264,-0.19329304201107259,-0.14209261441727739,0.030589467237290027,0.020220649642344286,-0.04932707890948562,5.0
0.47818286586187264,-0.19329304201107259,-0.14209261441727739,0.015171082415718466,0.01168648568539756,-0.028157466156105912,5.0
0.47818286586187264,-0.19329304201107259,-0.11871037119317787,0.01970590156222499,0.021820804672724584,-0.025617110766654336,5.0
0.470417677528971,-0.19329304201107259,-0.08948257995357126,0.022880275517880824,0.009019560363698125,-0.05102064916912001,5.0
0.470417677528971,-0.19329304201107259,-0.08948257995357126,0.011996709842815796,0.016486952402932086,-0.040012450227521576,5.0
0.470417677528971,-0.19644558487676148,-0.11286482317767076,0.01607804679812103,0.0020855530635253334,-0.023076757959211106,5.0
0.47818286586187264,-0.18698797007565676,-0.101173701565621,0.026961611781809492,0.006886019781059857,-0.01630248079368609,5.0
0.47818286586187264,-0.18068289814024094,-0.10701924958112809,0.04510088767645902,0.01168648568539756,-0.0010603591077610619,5.0
0.47818286586187264,-0.18068289814024094,-0.10701924958112809,0.04872874244056298,-0.0037816843011019338,-0.00021357462344595536,5.0
0.47430027169542155,-0.18068289814024094,-0.11286482317767076,0.04419392398543303,-0.0032482991046175642,-0.004447497448460288,5.0
0.4859480541947749,-0.1743778262048251,-0.10701924958112809,0.04782177874953699,-0.011249076797759097,-0.005294282013463154,5.0
0.4665350833625199,-0.18383544100592986,-0.08363700635702859,0.03421732217423813,-0.024050321919982375,0.0023267791522504017,5.0
0.470417677528971,-0.1617676823339934,-0.06025476313292897,0.02378723851753024,-0.0075153807781421205,-0.009528204919165244,5.0
0.47818286586187264,-0.17122529713509818,-0.08948257995357126,0.024694202899932804,-0.005381839890555041,0.013334978093848864,5.0
0.4820654600283231,-0.18383544100592986,-0.08363700635702859,0.03149643092831602,0.006886019781059857,0.03704494752768433,5.0
0.48983064836122847,-0.19959811394648844,-0.101173701565621,0.04374044179423175,-0.010715692058697938,0.0006332098608691494,5.0
0.470417677528971,-0.19329304201107259,-0.08948257995357126,0.05779838073357603,0.0020855530635253334,-0.007834635627783993,5.0
0.48983064836122847,-0.19959811394648844,-0.11286482317767076,0.05553097116032277,-0.008582151069461256,-0.017996051053320476,5.0
0.4859480541947749,-0.19014051294134568,-0.15962930962586985,0.05553097116032277,0.015420182924809771,-0.001907143753451689,5.0
0.47430027169542155,-0.18698797007565676,-0.11871037119317787,0.05915882592442673,-0.005915225137864212,-0.0010603591077610619,5.0
0.470417677528971,-0.177530369070514,-0.101173701565621,0.05598445335152406,-0.006981995429183349,-0.012915342856425668,5.0
0.470417677528971,-0.177530369070514,-0.12455594478972053,0.05553097116032277,0.0020855530635253334,0.008254271187958226,5.0
0.47818286586187264,-0.19014051294134568,-0.10701924958112809,0.04510088767645902,0.00635263422880188,-0.007834635627783993,5.0
0.4820654600283231,-0.19329304201107259,-0.07194588474497884,0.02424072070873152,0.012753256789913514,-0.010374989403480351,5.0
0.4859480541947749,-0.19644558487676148,-0.08363700635702859,0.029682503546264036,0.014886797372551781,-0.023076757959211106,5.0
0.47818286586187264,-0.19644558487676148,-0.14209261441727739,0.04419392398543303,-0.0016481435659892573,-0.028157466156105912,5.0
0.470417677528971,-0.2027506568121773,-0.101173701565621,0.031042948737114735,-0.001114758217030485,-0.015455696954873067,5.0
0.47818286586187264,-0.19014051294134568,-0.10701924958112809,0.03557776779719919,0.003685708093905628,-0.011221773887795458,5.0
0.47430027169542155,-0.19329304201107259,-0.11871037119317787,0.033310358310368,-0.006981995429183349,-0.012068558372110563,5.0
0.47430027169542155,-0.18698797007565676,-0.101173701565621,0.037391695352095314,0.0015521675112673554,0.0006332098608691494,5.0
0.4820654600283231,-0.2090557287475932,-0.101173701565621,0.0482752602493617,-0.016582929067551596,-0.020536403860763705,5.0
0.470417677528971,-0.21220825781732008,-0.11286482317767076,0.051449634205017525,-0.017116314619809576,0.016722117322113456,5.0
0.470417677528971,-0.20590318588190426,-0.08948257995357126,0.043286959603030466,-0.020316624680570165,0.027730316263711922,5.0
0.47818286586187264,-0.22481840168815173,-0.10701924958112809,0.05961230811562801,-0.010182306506439961,0.03027066907115513,5.0
0.470417677528971,-0.21536080068300897,-0.06025476313292897,0.06460060807058268,-0.006981995429183349,0.01587533219229626,5.0
0.470417677528971,-0.20590318588190426,-0.101173701565621,0.07094935598189432,-0.014449388484913325,0.014181763223666051,5.0
0.47430027169542155,-0.18383544100592986,-0.08948257995357126,0.056437934159972176,0.010086330655017265,0.007407486058141035,5.0
0.470417677528971,-0.18068289814024094,-0.11286482317767076,0.049635706822965545,-0.01551615877623246,0.02180282293699991,5.0
0.470417677528971,-0.18383544100592986,-0.15962930962586985,0.027415093973010774,-0.004848454694070672,0.03450459213823276,5.0
0.47430027169542155,-0.18383544100592986,-0.08948257995357126,0.02242679332667954,-0.008582151069461256,0.025189963456268685,5.0
0.470417677528971,-0.19014051294134568,-0.07779145834152144,0.010182781078010662,-0.0075153807781421205,0.0065607022193280165,5.0
0.47818286586187264,-0.2090557287475932,-0.13040149280522764,0.0011131455505039012,-0.0021815287116488252,0.013334978093848864,5.0
0.470417677528971,-0.19959811394648844,-0.10701924958112809,0.014717600224517189,-0.013382618193594192,0.029423883941337953,5.0
0.48983064836122847,-0.2027506568121773,-0.14209261441727739,0.026054648090783502,-0.024583707472240347,0.0531338546661776,5.0
0.4975958366941301,-0.2216658726184248,-0.15962930962586985,0.046914815058511,-0.0027149138573083938,0.04466600853202238,5.0
0.48983064836122847,-0.23112347362356755,-0.11286482317767076,0.056891416351173466,0.01168648568539756,0.013334978093848864,5.0
0.47818286586187264,-0.2090557287475932,-0.101173701565621,0.0664145368353878,-0.013916002932655347,-0.010374989403480351,5.0
0.47818286586187264,-0.2090557287475932,-0.15962930962586985,0.06822846283468663,0.0015521675112673554,0.0048671326051957205,5.0
0.47818286586187264,-0.18698797007565676,-0.11286482317767076,0.055077488969121485,-0.011782462350017075,0.016722117322113456,5.0
0.47430027169542155,-0.19644558487676148,-0.12455594478972053,0.051449634205017525,-0.0037816843011019338,0.032811024460606734,5.0
0.47818286586187264,-0.20590318588190426,-0.08948257995357126,0.04646133286730972,-0.024583707472240347,0.009947840156588438,5.0
0.470417677528971,-0.19644558487676148,-0.13040149280522764,0.051449634205017525,-0.012315847089078232,0.01841568499973949,5.0
0.48983064836122847,-0.2090557287475932,-0.14209261441727739,0.04555436917628373,-0.0027149138573083938,-0.00021357462344595536,5.0
0.48983064836122847,-0.2216658726184248,-0.1654748704318947,0.05054266982261496,0.004219093646163605,0.02603674600407753,5.0
0.4820654600283231,-0.2090557287475932,-0.14793818801382008,0.05371704377827079,0.003685708093905628,0.015028547062479069,5.0
0.47818286586187264,-0.2090557287475932,-0.12455594478972053,0.0482752602493617,0.013286642342171499,-0.006141066659153781,5.0
0.47818286586187264,-0.2090557287475932,-0.11286482317767076,0.04374044179423175,0.0004853972199482201,0.0031735636365655072,5.0
0.4665350833625199,-0.19644558487676148,-0.12455594478972053,0.04872874244056298,-0.008582151069461256,0.0014799946679352977,5.0
0.47818286586187264,-0.19959811394648844,-0.15962930962586985,0.046914815058511,0.0010187823656077882,0.01841568499973949,5.0
0.47818286586187264,-0.2090557287475932,-0.11286482317767076,0.05553097116032277,0.004219093646163605,0.024343178326451498,5.0
0.48983064836122847,-0.19959811394648844,-0.11286482317767076,0.05825186292477731,0.00528586393748274,0.015028547062479069,5.0
0.4820654600283231,-0.2090557287475932,-0.10701924958112809,0.05961230811562801,0.00528586393748274,0.008254271187958226,5.0
0.47430027169542155,-0.2090557287475932,-0.09532812796907834,0.06777498064348535,0.0010187823656077882,0.028577101393529102,5.0
0.46265248919606633,-0.20590318588190426,-0.101173701565621,0.060519271115277426,0.003152323354844468,0.03535137726804994,5.0
0.470417677528971,-0.20590318588190426,-0.101173701565621,0.055077488969121485,0.02502111635987881,0.029423883941337953,5.0
0.4820654600283231,-0.21220825781732008,-0.101173701565621,0.038298659129543375,0.030888354181929284,0.04889992901709165,5.0
0.470417677528971,-0.21536080068300897,-0.11286482317767076,0.032856876464855,0.03195512528644524,0.03027066907115513,5.0
0.47818286586187264,-0.21220825781732008,-0.11286482317767076,0.03875214097505637,0.038889130960224394,0.05990813054069845,5.0
0.4820654600283231,-0.21851332975273588,-0.101173701565621,0.037391695352095314,0.02928819752515535,0.04297243827238798,5.0
0.49371324252767956,-0.2090557287475932,-0.12455594478972053,0.03920562299341351,0.041556058721514286,0.020956040389191067,5.0
0.47818286586187264,-0.2090557287475932,-0.11286482317767076,0.026961611781809492,0.041556058721514286,0.023496393196634296,5.0
0.470417677528971,-0.2027506568121773,-0.08948257995357126,0.020612865944627558,0.05275714556056997,0.029423883941337953,5.0
0.470417677528971,-0.2027506568121773,-0.08948257995357126,0.02151982894427697,0.027688040868381423,0.024343178326451498,5.0
0.470417677528971,-0.22481840168815173,-0.101173701565621,0.031042948737114735,0.0015521675112673554,0.014181763223666051,5.0
0.48983064836122847,-0.2216658726184248,-0.101173701565621,0.028322057664036764,0.014353411820293812,0.023496393196634296,5.0
0.48983064836122847,-0.2216658726184248,-0.101173701565621,0.03784517728403038,0.018620494611964,0.03789173007549318,5.0
0.48983064836122847,-0.2090557287475932,-0.11871037119317787,0.037391695352095314,0.00635263422880188,0.0023267791522504017,5.0
0.47430027169542155,-0.22481840168815173,-0.11286482317767076,0.04646133286730972,0.003685708093905628,-0.0010603591077610619,5.0
0.47430027169542155,-0.22481840168815173,-0.11286482317767076,0.051449634205017525,0.0026189378025864916,-0.007834635627783993,5.0
0.48983064836122847,-0.22797094455384062,-0.101173701565621,0.051449634205017525,0.013286642342171499,0.0014799946679352977,5.0
0.47818286586187264,-0.21536080068300897,-0.101173701565621,0.05417052458671892,0.00635263422880188,0.004020348120880615,5.0
0.47818286586187264,-0.19959811394648844,-0.12455594478972053,0.029229021355062754,0.014886797372551781,-0.00021357462344595536,5.0
0.47818286586187264,-0.21536080068300897,-0.08948257995357126,0.028775539163861472,0.0015521675112673554,0.005713917089510825,5.0
0.47430027169542155,-0.2090557287475932,-0.08363700635702859,0.03784517728403038,-0.01604954351529362,-0.0010603591077610619,5.0
0.4820654600283231,-0.2216658726184248,-0.101173701565621,0.03194991277382901,-0.008582151069461256,0.01756890116092647,5.0
0.4820654600283231,-0.21536080068300897,-0.11286482317767076,0.04374044179423175,0.013820027894429474,0.0014799946679352977,5.0
0.47818286586187264,-0.21536080068300897,-0.1362470664017703,0.03376384015588099,0.00635263422880188,0.010794625286405632,5.0
0.4859480541947749,-0.21851332975273588,-0.11286482317767076,0.04464740548525774,0.014886797372551781,0.007407486058141035,5.0
0.47430027169542155,-0.22481840168815173,-0.101173701565621,0.05553097116032277,0.015420182924809771,-0.01376212798624286,5.0
0.47818286586187264,-0.21851332975273588,-0.11871037119317787,0.05099615201381624,0.00635263422880188,0.0031735636365655072,5.0
0.470417677528971,-0.2090557287475932,-0.08948257995357126,0.056437934159972176,0.023954345255362854,-0.0027539283184545554,5.0
0.470417677528971,-0.2027506568121773,-0.13040149280522764,0.03376384015588099,0.027154658568910715,0.010794625286405632,5.0
0.4665350833625199,-0.2027506568121773,-0.10701924958112809,0.030589467237290027,0.009552945102759287,0.01248819425503584,5.0
0.47430027169542155,-0.19329304201107259,-0.11286482317767076,0.027868575472835482,0.027154658568910715,0.01587533219229626,5.0
0.470417677528971,-0.2216658726184248,-0.09532812796907834,0.04192651441217977,0.004219093646163605,0.0023267791522504017,5.0
0.47818286586187264,-0.21536080068300897,-0.08363700635702859,0.05099615201381624,0.014353411820293812,0.024343178326451498,5.0
0.470417677528971,-0.21536080068300897,-0.07194588474497884,0.060065788924076144,0.007419404520121015,0.008254271187958226,5.0
0.470417677528971,-0.2090557287475932,-0.0661003367294717,0.06550757245298523,0.02288757577724054,-0.01630248079368609,5.0
0.47818286586187264,-0.21851332975273588,-0.10701924958112809,0.060065788924076144,0.015953568477067744,0.005713917089510825,5.0
0.470417677528971,-0.2216658726184248,-0.07779145834152144,0.07004239159949176,0.008486175624636971,0.004020348120880615,5.0
0.4820654600283231,-0.21536080068300897,-0.07194588474497884,0.0636936436881801,0.013286642342171499,-0.0027539283184545554,5.0
0.48983064836122847,-0.22481840168815173,-0.101173701565621,0.06460060807058268,-0.0005813730713709176,0.03027066907115513,5.0
0.47818286586187264,-0.2090557287475932,-0.08948257995357126,0.07004239159949176,0.0020855530635253334,0.01926247012955668,5.0
0.48983064836122847,-0.21220825781732008,-0.06025476313292897,0.07729810112769968,0.008486175624636971,0.0065607022193280165,5.0
0.470417677528971,-0.2090557287475932,-0.08948257995357126,0.07004239159949176,0.027154658568910715,0.009947840156588438,5.0
0.470417677528971,-0.21536080068300897,-0.09532812796907834,0.09090255580171298,0.022354190224982553,0.009101055026771245,5.0
0.46265248919606633,-0.21851332975273588,-0.08948257995357126,0.09407693114012194,0.017020337955190052,0.0065607022193280165,5.0
0.41217876503220247,-0.23112347362356755,-0.11286482317767076,0.09679782428732965,0.037822359855708435,0.010794625286405632,5.0
0.4975958366941301,-0.2405810884246723,-0.11286482317767076,0.08636773942071274,0.00635263422880188,0.01841568499973949,5.0
0.48983064836122847,-0.2405810884246723,-0.06025476313292897,0.0546240067779202,-4.7987925711349453e-05,-0.03323817177099238,5.0
0.49371324252767956,-0.22481840168815173,-0.101173701565621,0.04419392398543303,0.015953568477067744,0.005713917089510825,5.0
0.4859480541947749,-0.21536080068300897,-0.08948257995357126,0.020159383753426283,0.020220649642344286,0.016722117322113456,5.0
0.47818286586187264,-0.21536080068300897,-0.07779145834152144,0.01970590156222499,-0.001114758217030485,-0.006141066659153781,5.0
0.47818286586187264,-0.21536080068300897,-0.12455594478972053,0.010182781078010662,0.040489287616998326,-0.02646389589647153,5.0
0.47430027169542155,-0.19014051294134568,-0.10701924958112809,0.005647961931504132,0.012753256789913514,-0.01714926592350328,5.0
0.470417677528971,-0.2027506568121773,-0.07194588474497884,0.00882233726991311,0.0020855530635253334,-0.0010603591077610619,5.0
0.46265248919606633,-0.21220825781732008,-0.08363700635702859,0.00746189069630927,-0.006448610283523781,-0.005294282013463154,5.0
0.470417677528971,-0.21851332975273588,-0.054409215117421944,0.03376384015588099,-0.001114758217030485,-0.05017386403930282,5.0
0.470417677528971,-0.21851332975273588,-0.054409215117421944,0.03376384015588099,-0.001114758217030485,-0.05017386403930282,5.0
0.4665350833625199,-0.21220825781732008,-0.03687251990882953,0.04600785136748501,-0.0021815287116488252,-0.02985103383373195,5.0
0.47430027169542155,-0.19959811394648844,-0.06025476313292897,0.043286959603030466,0.009019560363698125,-0.025617110766654336,5.0
0.470417677528971,-0.18698797007565676,-0.08948257995357126,0.03784517728403038,0.006886019781059857,-0.019689620021950686,5.0
0.470417677528971,-0.18068289814024094,-0.054409215117421944,0.040566068529952495,0.013286642342171499,-0.032391389223183534,5.0
0.46265248919606633,-0.1743778262048251,-0.07779145834152144,0.026961611781809492,-0.0032482991046175642,-0.006141066659153781,5.0
0.46265248919606633,-0.18068289814024094,-0.04856364152087928,0.019252419371023715,-0.0016481435659892573,-0.0561013547840065,5.0
0.4665350833625199,-0.19644558487676148,-0.06025476313292897,0.034670804019751124,0.004219093646163605,-0.0459399409722252,5.0
0.47430027169542155,-0.21220825781732008,0.004046418523862502,0.049635706822965545,-0.009115536215120826,-0.03069781896354914,5.0
0.4820654600283231,-0.21536080068300897,-0.02518139829677978,0.06460060807058268,0.004752479198421585,-0.028157466156105912,5.0
0.4859480541947749,-0.22481840168815173,-0.054409215117421944,0.056437934159972176,0.0020855530635253334,-0.017996051053320476,5.0
0.48983064836122847,-0.22797094455384062,-0.07194588474497884,0.05371704377827079,0.03462204979494785,-0.029004248703914756,5.0
0.47818286586187264,-0.22481840168815173,-0.07194588474497884,0.074123728554797,0.03835574540796642,-0.032391389223183534,5.0
0.46265248919606633,-0.22797094455384062,-0.019335850281272635,0.08591425722951145,0.036222206451721785,-0.032391389223183534,5.0
0.47430027169542155,-0.23112347362356755,-0.042718093505372194,0.09589085990492709,0.028221426420639396,-0.012068558372110563,5.0
0.470417677528971,-0.23112347362356755,-0.054409215117421944,0.10269308724193371,0.008486175624636971,-0.0366253097082528,5.0
0.470417677528971,-0.2216658726184248,-0.07194588474497884,0.10722790362293395,0.007952790072378993,-0.023076757959211106,5.0
0.470417677528971,-0.21536080068300897,-0.06025476313292897,0.11811147068075212,-4.7987925711349453e-05,-0.024770326927841313,5.0
0.470417677528971,-0.22481840168815173,-0.0661003367294717,0.12899503773857032,0.020754035194602272,-0.022229972829393915,5.0
0.46265248919606633,-0.21220825781732008,-0.06025476313292897,0.12944851992977158,0.009552945102759287,0.0023267791522504017,5.0
0.47818286586187264,-0.2090557287475932,-0.0661003367294717,0.12446021582655747,0.018620494611964,0.010794625286405632,5.0
0.47818286586187264,-0.20590318588190426,-0.11286482317767076,0.11040227896134293,0.018620494611964,0.005713917089510825,5.0
0.47430027169542155,-0.2027506568121773,-0.13040149280522764,0.10450701600673881,0.021820804672724584,-0.01630248079368609,5.0
0.470417677528971,-0.18698797007565676,-0.08948257995357126,0.08273988465660878,-0.0005813730713709176,0.015028547062479069,5.0
0.47430027169542155,-0.19959811394648844,-0.054409215117421944,0.0795655120837061,-0.012315847089078232,-0.03069781896354914,5.0
0.47818286586187264,-0.2027506568121773,-0.06025476313292897,0.08183292027420622,-0.011782462350017075,0.0048671326051957205,5.0
0.47818286586187264,-0.21220825781732008,-0.07194588474497884,0.07276328198119315,-0.0075153807781421205,-0.00021357462344595536,5.0
0.4859480541947749,-0.20590318588190426,-0.042718093505372194,0.06777498064348535,-4.7987925711349453e-05,-0.01630248079368609,5.0
0.47430027169542155,-0.2216658726184248,-0.07194588474497884,0.074123728554797,-0.005381839890555041,0.0023267791522504017,5.0
0.470417677528971,-0.21220825781732008,-0.031026971893322385,0.08273988465660878,-0.0037816843011019338,0.0048671326051957205,5.0
0.470417677528971,-0.21220825781732008,-0.031026971893322385,0.06550757245298523,0.0004853972199482201,-0.009528204919165244,5.0
0.47818286586187264,-0.21220825781732008,-0.07779145834152144,0.06732150121779036,-0.011782462350017075,0.029423883941337953,5.0
0.470417677528971,-0.19329304201107259,-0.03687251990882953,0.05099615201381624,-0.005915225137864212,-0.021383188990580896,5.0
0.470417677528971,-0.18383544100592986,-0.019335850281272635,0.04419392398543303,-0.0032482991046175642,0.01926247012955668,5.0
0.470417677528971,-0.18383544100592986,-0.019335850281272635,0.05235659720466694,-0.023516936367724384,-0.010374989403480351,5.0
0.47818286586187264,-0.18068289814024094,-0.03687251990882953,0.040566068529952495,-0.01818308409793189,-0.01630248079368609,5.0
0.4820654600283231,-0.2090557287475932,-0.08948257995357126,0.029229021355062754,-0.0016481435659892573,-0.009528204919165244,5.0
0.4820654600283231,-0.2090557287475932,-0.08948257995357126,0.029682503546264036,0.006886019781059857,-0.011221773887795458,5.0
0.47430027169542155,-0.19329304201107259,-0.04856364152087928,0.01290367422521835,-0.010182306506439961,-0.01630248079368609,5.0
0.4859480541947749,-0.19644558487676148,-0.042718093505372194,0.01970590156222499,-0.0027149138573083938,-0.01714926592350328,5.0
0.4859480541947749,-0.19644558487676148,-0.042718093505372194,0.009729298886809385,-0.001114758217030485,-0.01630248079368609,5.0
0.47818286586187264,-0.19329304201107259,-0.06025476313292897,0.028775539163861472,-0.013916002932655347,0.0023267791522504017,5.0
0.47430027169542155,-0.2027506568121773,-0.08948257995357126,0.018798938562575578,-0.016582929067551596,-0.02646389589647153,5.0
0.4665350833625199,-0.20590318588190426,-0.08948257995357126,0.02197331113547826,-0.0075153807781421205,-0.009528204919165244,5.0
0.4820654600283231,-0.2027506568121773,-0.02518139829677978,0.007008408505107978,-0.0032482991046175642,-0.04509315584240802,5.0
0.470417677528971,-0.2027506568121773,0.015737540135912137,0.021066346753075692,-4.7987925711349453e-05,-0.028157466156105912,5.0
0.47818286586187264,-0.19329304201107259,-0.0661003367294717,0.01970590156222499,-0.004848454694070672,-0.03408495690080955,5.0
0.470417677528971,-0.20590318588190426,-0.019335850281272635,0.030589467237290027,-0.005381839890555041,-0.015455696954873067,5.0
0.4820654600283231,-0.20590318588190426,-0.042718093505372194,0.03784517728403038,-0.006448610283523781,-0.018842834892133488,5.0
0.47818286586187264,-0.21220825781732008,-0.03687251990882953,0.051449634205017525,-0.006981995429183349,-0.0239235430890283,5.0
0.47818286586187264,-0.2027506568121773,-0.04856364152087928,0.062333199880082554,-0.010182306506439961,0.0031735636365655072,5.0
0.47430027169542155,-0.21851332975273588,-0.04856364152087928,0.05099615201381624,0.00581924948974072,-0.01630248079368609,5.0
0.46265248919606633,-0.2090557287475932,-0.0017991550726802203,0.053263561587069505,0.014353411820293812,-0.031544604093366346,5.0
0.47430027169542155,-0.2090557287475932,-0.019335850281272635,0.04872874244056298,-0.0005813730713709176,-0.005294282013463154,5.0
0.470417677528971,-0.2090557287475932,-0.06025476313292897,0.04374044179423175,0.01115310175953322,0.0014799946679352977,5.0
0.47818286586187264,-0.19329304201107259,-0.09532812796907834,0.05008918763141368,-0.001114758217030485,0.008254271187958226,5.0
0.4665350833625199,-0.19959811394648844,-0.07779145834152144,0.055077488969121485,-0.009648921360780395,-0.028157466156105912,5.0
0.47818286586187264,-0.19644558487676148,-0.07194588474497884,0.05099615201381624,-0.0075153807781421205,0.0014799946679352977,5.0
0.47430027169542155,-0.19329304201107259,-0.06025476313292897,0.07185631759879059,-0.011782462350017075,-0.007834635627783993,5.0
0.48983064836122847,-0.19959811394648844,-0.0661003367294717,0.06278668207128384,-0.01284923264133621,-0.006141066659153781,5.0
0.48983064836122847,-0.19329304201107259,-0.02518139829677978,0.07276328198119315,-0.016582929067551596,-0.012915342856425668,5.0
0.47818286586187264,-0.19329304201107259,-0.07194588474497884,0.0691354272170892,-0.01551615877623246,-0.001907143753451689,5.0
0.47818286586187264,-0.1743778262048251,-0.07779145834152144,0.07820506551010224,-0.008048765923801689,-0.012915342856425668,5.0
0.470417677528971,-0.18698797007565676,-0.07779145834152144,0.07775158331890096,-0.010182306506439961,-0.03916566509770437,5.0
0.47430027169542155,-0.1743778262048251,-0.06025476313292897,0.0795655120837061,0.003152323354844468,-0.028157466156105912,5.0
0.47430027169542155,-0.19014051294134568,-0.07194588474497884,0.06187971768888127,-4.7987925711349453e-05,0.0048671326051957205,5.0
0.470417677528971,-0.18698797007565676,-0.06025476313292897,0.06142623549767999,0.009019560363698125,0.009101055026771245,5.0
0.470417677528971,-0.18698797007565676,-0.08948257995357126,0.0636936436881801,0.00581924948974072,-0.01630248079368609,5.0
0.47818286586187264,-0.18698797007565676,-0.07779145834152144,0.06686801902658908,-0.0075153807781421205,-0.015455696954873067,5.0
0.48983064836122847,-0.19014051294134568,-0.08948257995357126,0.049635706822965545,-4.7987925711349453e-05,-0.018842834892133488,5.0
0.47430027169542155,-0.18698797007565676,-0.04856364152087928,0.05961230811562801,0.003685708093905628,-0.005294282013463154,5.0
0.4665350833625199,-0.18068289814024094,-0.03687251990882953,0.05371704377827079,-0.004848454694070672,-0.004447497448460288,5.0
0.4665350833625199,-0.19014051294134568,-0.0076447286692228845,0.05099615201381624,-0.009648921360780395,-0.009528204919165244,5.0
0.470417677528971,-0.19329304201107259,-0.03687251990882953,0.0482752602493617,-0.0032482991046175642,0.007407486058141035,5.0
0.47818286586187264,-0.19329304201107259,-0.0661003367294717,0.04918222463176426,-0.001114758217030485,-0.010374989403480351,5.0
0.47430027169542155,-0.19329304201107259,-0.04856364152087928,0.06460060807058268,-0.019249855202447846,-0.00868142043485014,5.0
0.47818286586187264,-0.19329304201107259,-0.042718093505372194,0.05598445335152406,-0.008582151069461256,-0.012915342856425668,5.0
0.47430027169542155,-0.18698797007565676,-0.07194588474497884,0.04918222463176426,-0.01871646965018987,0.0065607022193280165,5.0
0.4665350833625199,-0.19329304201107259,-0.07779145834152144,0.042379995912004476,-0.013916002932655347,0.015028547062479069,5.0
0.46265248919606633,-0.19959811394648844,-0.0661003367294717,0.051449634205017525,-0.02085001023282814,0.014181763223666051,5.0
0.46265248919606633,-0.19959811394648844,-0.0661003367294717,0.04918222463176426,-0.005381839890555041,-0.001907143753451689,5.0
0.47430027169542155,-0.19644558487676148,-0.031026971893322385,0.05417052458671892,-0.006981995429183349,-0.011221773887795458,5.0
0.46265248919606633,-0.19329304201107259,-0.06025476313292897,0.04192651441217977,-0.001114758217030485,-0.007834635627783993,5.0
0.46265248919606633,-0.19329304201107259,-0.06025476313292897,0.039659104838926505,0.004219093646163605,0.020109255259373876,5.0
0.47818286586187264,-0.19014051294134568,-0.042718093505372194,0.033310358310368,-4.7987925711349453e-05,0.024343178326451498,5.0
0.47818286586187264,-0.19014051294134568,-0.0076447286692228845,0.04510088767645902,0.0020855530635253334,0.005713917089510825,5.0
0.470417677528971,-0.2027506568121773,0.004046418523862502,0.03920562299341351,-0.006981995429183349,0.020956040389191067,5.0
0.470417677528971,-0.21220825781732008,-0.04856364152087928,0.034670804019751124,-0.014449388484913325,0.029423883941337953,5.0
0.470417677528971,-0.18068289814024094,-0.031026971893322385,0.03693821346337128,-0.009115536215120826,-0.004447497448460288,5.0
0.4665350833625199,-0.19329304201107259,-0.04856364152087928,0.034670804019751124,-0.010715692058697938,0.013334978093848864,5.0
0.47430027169542155,-0.19329304201107259,-0.04856364152087928,0.03784517728403038,-0.0016481435659892573,-0.018842834892133488,5.0
0.47818286586187264,-0.19329304201107259,-0.06025476313292897,0.043286959603030466,-0.011782462350017075,-0.0010603591077610619,5.0
0.4820654600283231,-0.20590318588190426,-0.04856364152087928,0.04510088767645902,-0.001114758217030485,0.004020348120880615,5.0
0.47430027169542155,-0.2027506568121773,-0.06025476313292897,0.04510088767645902,-0.01604954351529362,0.013334978093848864,5.0
0.47818286586187264,-0.19329304201107259,-0.04856364152087928,0.051449634205017525,-0.01818308409793189,-0.007834635627783993,5.0
0.470417677528971,-0.19644558487676148,-0.04856364152087928,0.05825186292477731,-0.024050321919982375,-0.004447497448460288,5.0
0.470417677528971,-0.19329304201107259,-0.06025476313292897,0.060519271115277426,-0.026717248054878618,-0.006987851143468888,5.0
0.47818286586187264,-0.19329304201107259,-0.0661003367294717,0.05553097116032277,-0.023516936367724384,0.009101055026771245,5.0
0.4859480541947749,-0.18068289814024094,-0.06025476313292897,0.05417052458671892,-0.011249076797759097,0.010794625286405632,5.0
0.4859480541947749,-0.19329304201107259,-0.04856364152087928,0.04872874244056298,-0.0075153807781421205,0.007407486058141035,5.0
0.47818286586187264,-0.2027506568121773,-0.031026971893322385,0.05099615201381624,-0.01604954351529362,-0.012915342856425668,5.0
0.47818286586187264,-0.2027506568121773,-0.08948257995357126,0.04782177874953699,0.0004853972199482201,-0.001907143753451689,5.0
0.470417677528971,-0.2027506568121773,-0.07779145834152144,0.053263561587069505,-0.0016481435659892573,0.004020348120880615,5.0
0.47430027169542155,-0.19644558487676148,-0.06025476313292897,0.05008918763141368,-0.008048765923801689,0.011641409125218648,5.0
0.4859480541947749,-0.19644558487676148,-0.07194588474497884,0.042379995912004476,0.010086330655017265,-0.006987851143468888,5.0
0.47818286586187264,-0.2090557287475932,-0.07779145834152144,0.04555436917628373,-0.0021815287116488252,-0.001907143753451689,5.0
0.470417677528971,-0.19329304201107259,-0.08948257995357126,0.05553097116032277,0.003152323354844468,0.01926247012955668,5.0
0.47430027169542155,-0.19959811394648844,-0.013490276684729971,0.03149643092831602,-0.005915225137864212,0.01756890116092647,5.0
0.4665350833625199,-0.19959811394648844,-0.054409215117421944,0.03920562299341351,0.0020855530635253334,0.027730316263711922,5.0
0.4665350833625199,-0.19959811394648844,-0.054409215117421944,0.04464740548525774,0.007952790072378993,0.0048671326051957205,5.0
0.4820654600283231,-0.2090557287475932,-0.0661003367294717,0.049635706822965545,0.004752479198421585,0.009101055026771245,5.0
0.47818286586187264,-0.21536080068300897,-0.07194588474497884,0.04736829724971228,-0.0027149138573083938,0.0006332098608691494,5.0
0.47818286586187264,-0.19959811394648844,-0.08363700635702859,0.03376384015588099,0.0015521675112673554,0.007407486058141035,5.0
0.47818286586187264,-0.19014051294134568,-0.08948257995357126,0.020159383753426283,-0.0037816843011019338,0.004020348120880615,5.0
0.4859480541947749,-0.18383544100592986,-0.04856364152087928,0.019252419371023715,-0.006448610283523781,0.015028547062479069,5.0
0.47430027169542155,-0.20590318588190426,-0.04856364152087928,0.038298659129543375,0.0010187823656077882,-0.011221773887795458,5.0
0.47818286586187264,-0.2027506568121773,-0.08363700635702859,0.04192651441217977,-0.009648921360780395,0.03027066907115513,5.0
0.4665350833625199,-0.2090557287475932,-0.0661003367294717,0.04192651441217977,-0.008048765923801689,0.016722117322113456,5.0
0.4665350833625199,-0.18698797007565676,-0.06025476313292897,0.041473032220978485,-0.005915225137864212,0.0031735636365655072,5.0
0.4665350833625199,-0.19329304201107259,-0.07779145834152144,0.038298659129543375,-0.009648921360780395,0.013334978093848864,5.0
0.47818286586187264,-0.18698797007565676,-0.11286482317767076,0.03376384015588099,-0.01284923264133621,0.032811024460606734,5.0
0.47430027169542155,-0.19329304201107259,-0.03687251990882953,0.02242679332667954,-0.013916002932655347,0.04805314388727444,5.0
0.470417677528971,-0.2027506568121773,-0.04856364152087928,0.030135985046088744,-0.005381839890555041,0.02180282293699991,5.0
0.46265248919606633,-0.2090557287475932,-0.019335850281272635,0.032856876464855,-0.0037816843011019338,0.03535137726804994,5.0
0.47430027169542155,-0.2027506568121773,-0.04856364152087928,0.032856876464855,-0.013916002932655347,0.03027066907115513,5.0
0.4820654600283231,-0.2027506568121773,-0.054409215117421944,-0.006142566743210311,0.03035496862967131,0.016722117322113456,5.0
0.47430027169542155,-0.2027506568121773,-0.09532812796907834,-0.00795649274250915,0.019687264090086313,0.004020348120880615,5.0
0.4820654600283231,-0.19644558487676148,-0.07194588474497884,0.002927071549802745,0.015420182924809771,0.027730316263711922,5.0
0.4548873008631647,-0.18698797007565676,-0.06025476313292897,0.00882233726991311,0.016486952402932086,0.01248819425503584,5.0
0.46265248919606633,-0.2027506568121773,-0.03687251990882953,0.014717600224517189,0.02608788746439477,0.013334978093848864,5.0
0.46265248919606633,-0.18698797007565676,-0.013490276684729971,0.02151982894427697,0.014353411820293812,0.01587533219229626,5.0
0.4665350833625199,-0.2027506568121773,-0.0076447286692228845,0.04646133286730972,-0.01871646965018987,0.02180282293699991,5.0
0.470417677528971,-0.2090557287475932,-0.0076447286692228845,0.05417052458671892,-0.017116314619809576,0.020956040389191067,5.0
0.47818286586187264,-0.21851332975273588,-0.0076447286692228845,0.05054266982261496,-0.016582929067551596,0.0014799946679352977,5.0
0.4859480541947749,-0.2027506568121773,-0.07194588474497884,0.037391695352095314,-0.0032482991046175642,0.014181763223666051,5.0
0.4820654600283231,-0.20590318588190426,-0.06025476313292897,0.033310358310368,-0.010715692058697938,0.02688353113389471,5.0
0.47818286586187264,-0.19329304201107259,-0.08948257995357126,0.04419392398543303,-0.017649699358870733,0.028577101393529102,5.0
0.470417677528971,-0.2027506568121773,-0.12455594478972053,0.03603124968592322,-0.009115536215120826,0.016722117322113456,5.0
0.47430027169542155,-0.2027506568121773,-0.07779145834152144,0.034670804019751124,-0.0037816843011019338,0.013334978093848864,5.0
0.47430027169542155,-0.21536080068300897,-0.042718093505372194,0.034670804019751124,0.00635263422880188,0.014181763223666051,5.0
0.47818286586187264,-0.21851332975273588,-0.04856364152087928,0.0482752602493617,0.01168648568539756,0.004020348120880615,5.0
0.47818286586187264,-0.2027506568121773,-0.07194588474497884,0.05099615201381624,0.008486175624636971,0.027730316263711922,5.0
0.470417677528971,-0.2090557287475932,-0.07779145834152144,0.04555436917628373,0.003685708093905628,0.0014799946679352977,5.0
0.470417677528971,-0.2090557287475932,-0.07779145834152144,0.043286959603030466,0.008486175624636971,0.0014799946679352977,5.0
0.47430027169542155,-0.2090557287475932,-0.07194588474497884,0.03421732217423813,0.018087109059706015,0.023496393196634296,5.0
0.4665350833625199,-0.22481840168815173,-0.0661003367294717,0.051449634205017525,0.010086330655017265,0.01248819425503584,5.0
0.470417677528971,-0.22481840168815173,-0.031026971893322385,0.04918222463176426,-0.006981995429183349,0.031117454200972335,5.0
0.470417677528971,-0.21851332975273588,-0.031026971893322385,0.05598445335152406,-0.006448610283523781,0.008254271187958226,5.0
0.4859480541947749,-0.22481840168815173,-0.10701924958112809,0.05417052458671892,-0.014449388484913325,0.004020348120880615,5.0
0.47818286586187264,-0.21220825781732008,-0.101173701565621,0.05054266982261496,-0.010182306506439961,-0.004447497448460288,5.0
0.47818286586187264,-0.2090557287475932,-0.07194588474497884,0.06822846283468663,-0.0027149138573083938,0.015028547062479069,5.0
0.470417677528971,-0.2027506568121773,-0.019335850281272635,0.06278668207128384,0.0026189378025864916,0.01841568499973949,5.0
0.47430027169542155,-0.2090557287475932,-0.042718093505372194,0.06097275330647871,-0.01284923264133621,0.02688353113389471,5.0
0.47818286586187264,-0.19959811394648844,-0.042718093505372194,0.03920562299341351,-0.013916002932655347,-0.012068558372110563,5.0
0.470417677528971,-0.21536080068300897,-0.07779145834152144,0.0546240067779202,-0.01284923264133621,-0.011221773887795458,5.0
0.470417677528971,-0.2090557287475932,-0.054409215117421944,0.058705343733225446,-0.006448610283523781,0.01756890116092647,5.0
0.46265248919606633,-0.19644558487676148,-0.08948257995357126,0.056437934159972176,-0.013382618193594192,-0.02646389589647153,5.0
0.47818286586187264,-0.2027506568121773,-0.03687251990882953,0.0401125866844395,-0.0037816843011019338,-0.012068558372110563,5.0
0.4665350833625199,-0.2090557287475932,-0.054409215117421944,0.029682503546264036,-0.014982773223974486,0.0048671326051957205,5.0
0.4820654600283231,-0.20590318588190426,-0.06025476313292897,0.032856876464855,-0.006981995429183349,-0.029004248703914756,5.0
0.470417677528971,-0.2090557287475932,-0.06025476313292897,0.03240339461934201,-0.016582929067551596,-0.024770326927841313,5.0
0.470417677528971,-0.19644558487676148,-0.08948257995357126,0.041473032220978485,-0.005381839890555041,0.0006332098608691494,5.0
0.47430027169542155,-0.19959811394648844,-0.09532812796907834,0.04555436917628373,-0.0075153807781421205,-0.006141066659153781,5.0
0.47430027169542155,-0.2090557287475932,-0.0661003367294717,0.02378723851753024,-0.0021815287116488252,-0.004447497448460288,5.0
0.470417677528971,-0.21851332975273588,-0.031026971893322385,0.034670804019751124,-0.013382618193594192,-0.010374989403480351,5.0
0.47818286586187264,-0.21220825781732008,-0.031026971893322385,0.043286959603030466,-0.006981995429183349,-0.0366253097082528,5.0
0.470417677528971,-0.20590318588190426,-0.07194588474497884,0.03240339461934201,-0.027250633607136605,-0.010374989403480351,5.0
0.4820654600283231,-0.2027506568121773,-0.06025476313292897,0.05190311639621881,-0.024583707472240347,-0.0010603591077610619,5.0
0.4820654600283231,-0.21220825781732008,-0.08363700635702859,0.049635706822965545,-0.032584484250535464,-0.023076757959211106,5.0
0.48983064836122847,-0.21851332975273588,-0.0661003367294717,0.055077488969121485,-0.01284923264133621,0.0014799946679352977,5.0
0.4665350833625199,-0.22481840168815173,-0.06025476313292897,0.060065788924076144,-0.005915225137864212,-0.011221773887795458,5.0
0.4859480541947749,-0.22481840168815173,-0.054409215117421944,0.053263561587069505,-0.011782462350017075,0.0014799946679352977,5.0
0.47818286586187264,-0.21536080068300897,-0.07194588474497884,0.05598445335152406,-0.0075153807781421205,-0.020536403860763705,5.0
0.47818286586187264,-0.21536080068300897,-0.07194588474497884,0.042379995912004476,-0.006981995429183349,0.0023267791522504017,5.0
0.470417677528971,-0.21851332975273588,-0.042718093505372194,0.04782177874953699,-4.7987925711349453e-05,-0.0239235430890283,5.0
0.47430027169542155,-0.2090557287475932,-0.054409215117421944,0.04419392398543303,0.0010187823656077882,-0.031544604093366346,5.0
0.4859480541947749,-0.2027506568121773,-0.08948257995357126,0.027415093973010774,0.0010187823656077882,-0.025617110766654336,5.0
0.47818286586187264,-0.2027506568121773,-0.101173701565621,0.024694202899932804,0.0010187823656077882,-0.04085923277533039,5.0
0.4859480541947749,-0.2027506568121773,-0.101173701565621,0.012450192034017073,0.007419404520121015,-0.019689620021950686,5.0
0.47430027169542155,-0.20590318588190426,-0.07779145834152144,0.017891974180173013,0.013820027894429474,0.0006332098608691494,5.0
0.47818286586187264,-0.2090557287475932,-0.06025476313292897,0.024694202899932804,0.00635263422880188,-0.01714926592350328,5.0
0.48983064836122847,-0.2027506568121773,-0.0661003367294717,0.03557776779719919,0.015953568477067744,-0.02731068102628872,5.0
0.48983064836122847,-0.2027506568121773,-0.0661003367294717,0.04101955037546549,0.004219093646163605,-0.017996051053320476,5.0
0.470417677528971,-0.19014051294134568,-0.07779145834152144,0.05099615201381624,0.009552945102759287,-0.010374989403480351,5.0
0.47818286586187264,-0.2090557287475932,-0.06025476313292897,0.053263561587069505,0.00635263422880188,-0.024770326927841313,5.0
0.47818286586187264,-0.2090557287475932,-0.06025476313292897,0.06414712587938139,0.00528586393748274,0.0006332098608691494,5.0
0.4820654600283231,-0.2027506568121773,-0.04856364152087928,0.07094935598189432,0.0004853972199482201,-0.017996051053320476,5.0
0.470417677528971,-0.20590318588190426,-0.06025476313292897,0.06958890940829048,0.00581924948974072,-0.018842834892133488,5.0
0.470417677528971,-0.20590318588190426,-0.06025476313292897,0.07457721074599828,-0.0016481435659892573,-0.005294282013463154,5.0
0.4665350833625199,-0.18068289814024094,-0.08948257995357126,0.05961230811562801,0.003152323354844468,-0.012068558372110563,5.0
0.46265248919606633,-0.18698797007565676,-0.0661003367294717,0.06142623549767999,-0.0037816843011019338,0.0014799946679352977,5.0
0.4665350833625199,-0.19329304201107259,-0.08363700635702859,0.0546240067779202,-0.0032482991046175642,-0.024770326927841313,5.0
0.4859480541947749,-0.19644558487676148,-0.08948257995357126,0.05598445335152406,0.003152323354844468,-0.021383188990580896,5.0
0.47818286586187264,-0.18698797007565676,-0.07779145834152144,0.06414712587938139,0.009552945102759287,-0.03493174203062677,5.0
0.47818286586187264,-0.19644558487676148,-0.07194588474497884,0.06596105464418651,0.008486175624636971,-0.03747209483806998,5.0
0.470417677528971,-0.2090557287475932,-0.054409215117421944,0.06686801902658908,-0.001114758217030485,-0.020536403860763705,5.0
0.470417677528971,-0.19329304201107259,-0.09532812796907834,0.06732150121779036,0.00528586393748274,-0.0239235430890283,5.0
0.470417677528971,-0.18068289814024094,-0.04856364152087928,0.05915882592442673,-4.7987925711349453e-05,-0.020536403860763705,5.0
0.47818286586187264,-0.18068289814024094,-0.07779145834152144,0.0546240067779202,0.004752479198421585,-0.012068558372110563,5.0
0.470417677528971,-0.19014051294134568,-0.06025476313292897,0.05054266982261496,-0.0016481435659892573,-0.01630248079368609,5.0
0.470417677528971,-0.18698797007565676,-0.06025476313292897,0.04736829724971228,-0.008048765923801689,-0.03577852716044395,5.0
0.47818286586187264,-0.19329304201107259,-0.054409215117421944,0.05281007939586822,-0.009648921360780395,-0.03323817177099238,5.0
0.47818286586187264,-0.2090557287475932,-0.0661003367294717,0.05281007939586822,-0.006981995429183349,-0.04085923277533039,5.0
0.47430027169542155,-0.2027506568121773,-0.04856364152087928,0.06732150121779036,-0.006448610283523781,-0.05694813991382367,5.0
0.470417677528971,-0.2090557287475932,-0.06025476313292897,0.07503069293719956,-0.009648921360780395,-0.028157466156105912,5.0
0.47430027169542155,-0.2027506568121773,-0.101173701565621,0.06414712587938139,-0.026183862502620645,-0.012068558372110563,5.0
0.47430027169542155,-0.2090557287475932,-0.07194588474497884,0.0636936436881801,-0.044318959894636425,-0.05186743429893722,5.0
0.470417677528971,-0.21536080068300897,-0.101173701565621,0.05734489854237475,-0.013382618193594192,-0.07219026192249973,5.0
0.46265248919606633,-0.21220825781732008,-0.101173701565621,0.04782177874953699,-0.011782462350017075,-0.0654159860479789,5.0
0.4859480541947749,-0.19014051294134568,-0.03687251990882953,0.04192651441217977,0.01168648568539756,-0.05017386403930282,5.0
0.4859480541947749,-0.18068289814024094,-0.07194588474497884,0.03784517728403038,0.00528586393748274,-0.05948849530327525,5.0
0.47818286586187264,-0.18383544100592986,-0.07194588474497884,0.026054648090783502,-0.0016481435659892573,-0.03577852716044395,5.0
0.46265248919606633,-0.19644558487676148,-0.06025476313292897,0.038298659129543375,-0.006448610283523781,-0.0417060179051476,5.0
0.470417677528971,-0.18698797007565676,-0.031026971893322385,0.02242679332667954,0.006886019781059857,-0.02985103383373195,5.0
0.47818286586187264,-0.19329304201107259,-0.07194588474497884,0.03421732217423813,-0.011782462350017075,-0.02646389589647153,5.0
0.47818286586187264,-0.1743778262048251,-0.07194588474497884,0.028322057664036764,-0.024050321919982375,-0.011221773887795458,5.0
0.47818286586187264,-0.18698797007565676,-0.0661003367294717,0.03149643092831602,-0.026183862502620645,-0.022229972829393915,5.0
0.47818286586187264,-0.19329304201107259,-0.07194588474497884,0.03240339461934201,-0.026183862502620645,0.0014799946679352977,5.0
0.4859480541947749,-0.19644558487676148,-0.054409215117421944,0.040566068529952495,-0.024050321919982375,-0.015455696954873067,5.0
0.4665350833625199,-0.19644558487676148,-0.06025476313292897,0.06142623549767999,-0.04805265550765498,-0.02731068102628872,5.0
0.47818286586187264,-0.2090557287475932,-0.07779145834152144,0.058705343733225446,-0.038985107624843925,-0.04255280303496479,5.0
0.49371324252767956,-0.2027506568121773,-0.06025476313292897,0.06686801902658908,-0.038985107624843925,-0.03831887996788718,5.0
0.47818286586187264,-0.2090557287475932,-0.07779145834152144,0.06732150121779036,-0.041652032133346534,-0.09081951928642787,5.0
0.4587698950296152,-0.19014051294134568,-0.08948257995357126,0.07185631759879059,-0.026717248054878618,-0.06456920091816172,5.0
0.470417677528971,-0.18383544100592986,-0.0661003367294717,0.07548417512840085,-0.0032482991046175642,-0.032391389223183534,5.0
0.47818286586187264,-0.1586151532642665,-0.06025476313292897,0.05961230811562801,0.007952790072378993,-0.02985103383373195,5.0
0.4820654600283231,-0.1586151532642665,-0.07194588474497884,0.04464740548525774,0.018620494611964,-0.03493174203062677,5.0
0.470417677528971,-0.18068289814024094,-0.054409215117421944,0.05190311639621881,0.014353411820293812,-0.04848029377966844,5.0
