acc_x,acc_y,acc_z,gyro_x,gyro_y,gyro_z,activity
-0.9784092302537836,0.3668295321446919,2.3406740089429814,0.09820393728488595,0.11322055170469222,0.23717608116562464,0.0
-0.99542092198433,0.3621423503405185,2.320109630772578,0.10295065156494963,0.11131216031145622,0.2958552609768081,0.0
-0.930776612521064,0.3199576115437419,2.3571255114793037,-0.1434036574656829,-0.09733849235855159,0.25406856000079736,0.0
-0.930776612521064,0.3199576115437419,2.3571255114793037,-0.1320115489829827,-0.12278368765884352,0.2922989450772428,0.0
-1.0090301562559558,0.3668295321446919,2.3859153529416997,-0.10495529495497746,-0.10688044932473163,0.4318842248524866,0.0
-1.0090301562559558,0.3668295321446919,2.3859153529416997,-0.10495529495497746,-0.10688044932473163,0.4318842248524866,0.0
-1.0158348329481748,0.3762039162648819,2.3571255114793037,-0.08074706949501045,-0.01845836908256902,0.47989446780885525,0.0
-1.0158348329481748,0.3762039162648819,2.3571255114793037,-0.09118983512169797,0.14184639932704418,0.5359064106953649,0.0
-0.930776612521064,0.35276796622032847,2.2913195013340135,-0.14008095746963836,-0.07571007208600229,0.3083023449375241,0.0
-0.8423159346350324,0.28246007506298193,2.299545252602175,-0.10068325789237272,-0.4847416813886618,0.13404299056345956,0.0
-0.9341789508671733,0.27308569094279195,2.373576726039458,-0.10922733780703478,-0.42494546428631,0.10381432168297654,0.0
-0.9341789508671733,0.27308569094279195,2.373576726039458,-0.16476386014706432,-0.06807651427178765,0.12426312726159565,0.0
-0.9852139069460021,0.2918344591831719,2.3571255114793037,-0.25779940214178654,-0.04453970260600233,0.20072386488284302,0.0
-0.9852139069460021,0.2918344591831719,2.3571255114793037,-0.1652385257856181,-0.019094499546981013,0.11803957985929703,0.0
-0.9852139069460021,0.2918344591831719,2.3571255114793037,-0.021887852948388926,-0.09288557910766758,0.009572015407783997,0.0
-0.9069602440982985,0.2590241147625069,2.2913195013340135,0.0630782747702251,-0.11451399938021688,-0.04999623253440954,0.0
-0.8627299647116884,0.22621377034184195,2.233739530433053,0.17035393644732802,-0.2086612460433581,-0.12112250715019018,0.0
-0.8865463331344539,0.22621377034184195,2.221400903530811,0.16038586540645736,-0.09352170957207957,-0.16735459215677634,0.0
-0.9103625824444077,0.2121521941615569,2.188497898458166,0.06545162612080435,0.20355101558136146,-0.30249448790144484,0.0
-0.9375812892132825,0.2402753465221269,2.1638206446536823,0.04836347208093284,0.6342110373978411,-0.29271463002152137,0.0
-0.9375812892132825,0.2637113068226019,2.1597077690196014,0.06640096897681708,0.5267050897756946,-0.2527061086830557,0.0
-0.9545928618310178,0.27308569094279195,2.188497898458166,0.09725459442887324,0.24426333426881217,-0.15757471258909064,0.0
-1.0124324946020653,0.27308569094279195,2.2296266547989725,0.14092434264764875,0.6380278357017718,0.08692183471489298,0.0
-1.0634675697937055,0.27777288300288694,2.176159271555924,-0.10210727217639186,0.7677983573370676,0.6150343852412861,0.0
-0.9886162452921115,0.08091080365899492,1.8718070505862934,-0.965534043932527,-0.9612030811253468,1.2231639703116999,0.0
-0.9545928618310178,0.1652802684326461,2.188497898458166,-0.8606316641325723,-1.0337219385508563,1.405425062569489,0.0
-0.8933510098266725,0.1277827274649204,2.3694641383815456,0.07636906317549823,0.870851414984518,0.7110548711540238,0.0
-0.9171672591366267,0.1559058817484757,2.505188746330038,0.4162335856288594,1.2149978022631767,0.9146538154336801,0.0
-1.019237171294284,0.1371571122261055,2.4188183580143447,0.38205724281240083,0.7964242204768783,1.1760428822373907,0.0
-0.9818115685998925,0.0855979957190899,2.2501907449932075,0.1456710453488072,1.6195764362451173,1.2178295615256391,0.0
-0.99542092198433,0.005915723005533688,2.1638206446536823,0.012288466710259231,1.8123238816159306,1.7761706806266142,0.0
-1.0838814807575503,0.052787648734444505,2.2501907449932075,-0.019039827275077,0.9630902935306115,2.4714300269241396,0.0
-1.0430535397170495,0.1605930738085707,2.4229312336484257,0.42572699103117645,0.8237777761354889,2.8715152836843214,0.0
-1.0430535397170495,0.2027778049134061,2.5709944684991606,1.0983359587283508,0.5267050897756946,2.955088642260818,0.0
-1.1247094813544565,0.2543369227024119,2.3488997602111423,0.7613195111586485,0.3625835385796094,3.651237186815928,0.0
-1.1042955108342063,0.22621377034184195,2.1062405297646376,0.1926634993530799,0.6475697693917635,4.013092123562952,0.0
-1.2131700996840824,0.1605930738085707,2.1679335202877628,-0.08834180944838604,0.26016658812038274,4.751027087153162,0.0
-1.2948260413214896,0.1746546525528361,2.3118838795044168,0.1043746600595162,-0.6997536387027898,5.511189057647297,0.0
-1.301630718013708,0.07622361159889987,2.4270441092825066,0.16845527389311302,-0.7182014144120085,5.940613692857387,0.0
-1.0838814807575503,-0.18157196965418793,2.4188183580143447,0.15563913954748837,0.3581306175699961,5.8525950370013655,0.0
-0.920569597482736,-0.3549981066454677,2.3488997602111423,0.003269715367590814,0.7022769427788195,5.417835906254164,0.0
-0.9477883042516105,-0.303438963216658,2.1720463959218432,-0.4267823147230019,0.37085322685823613,5.2800287410531785,0.0
-1.1281118197005657,-0.2659414267358981,2.2584164962613684,-0.5122231022907171,-0.34479307232277395,5.584093598651674,0.0
-1.0974908341419876,-0.33624933840508764,2.5422043390605964,0.04504077208488828,-1.0470806084749438,5.336929795446224,0.0
-0.8184996853250783,-0.5659217596056644,2.5463172146946764,0.5686029924403994,-0.2086612460433581,4.344718136598284,0.0
-0.7504530375157031,-0.7299734714530677,2.5586558415969183,1.0109964622907999,0.23281300142685477,3.2298137744052062,0.0
-0.8593276263655791,-0.6221680643268043,2.6038974735718057,1.1676379293227546,-0.1813076593498302,2.770160388985523,0.0
-1.0260418479865026,-0.2893773972922947,2.6491388175705244,1.1263415324545585,-0.590975383599443,2.5558925837582205,0.0
-1.0906861574497688,-0.07376654201608131,2.496962995061877,0.5686029924403994,-0.3517905151900355,2.3496263483344846,0.0
-1.002225598676549,-0.10657689669266793,2.472285741257393,0.047888800652926486,-0.4287622315553231,2.0402269951988803,0.0
-0.9613975385232366,-0.21906950613494786,2.398253979843942,-0.3679231039658329,-1.2181995715033729,1.7868396717008348,0.0
-1.0770768040653314,-0.13470004905323799,2.365351262747465,-0.47852144827062276,-2.0165427845055666,1.7912851424824598,0.0
-0.9818115685998925,-0.1628232014138079,2.03220891233927,-0.7049395746933456,-2.0909699790132064,1.4303192304909214,0.0
-0.8797416564422351,-0.24719265849551794,2.0157574098029474,-0.7813616456551079,-2.5362609627175154,0.8568637362851504,0.0
-0.8559252880194699,0.03872607255415949,2.2501907449932075,-0.6816807036682965,-2.7118329398603116,1.3814199194035426,0.0
-1.155330466913035,-0.44405474553135105,2.26664224752953,-1.226603155652452,-3.74299985628492,6.308692149897006,0.0
-0.6279690952813896,-0.6362296712748543,2.2707551231636103,-0.9361044501328477,-4.687016751669229,9.00437830050174,0.0
-0.26051738769126026,-0.6596656008075642,2.155594893385521,-0.8587330015783573,-1.8886806620222365,7.976603222405001,0.0
-0.26732206438347905,-0.4721778773800778,1.777211198978607,-1.7914617960339692,-0.6914839504241632,5.543196030869958,0.0
-0.4612548736604655,-0.5143626161768546,1.2384256428187168,-3.2107284047238807,-3.0292618010812893,4.8843887815725235,0.0
-0.37619665323335505,-0.7580966033017947,0.9135091156727251,-4.484270879226385,-7.910287401880006,4.82482065291302,0.0
-0.21968944665075954,-1.100261715992024,1.3371343700604839,-3.8548571562141047,-10.555316460816364,3.7410338921829203,0.0
-0.23670101926849502,-1.5174218195964004,1.7360824426378008,-0.7348438572893892,-9.430002266693695,0.9546623584599081,0.0
-0.2843336370012143,-1.6158529041380034,1.830678438233571,2.5916512407138246,-7.119577785485673,0.3047460290379589,0.0
-0.3081500054239798,-1.5127346172803837,1.7196310840895623,3.797790592438621,-4.56678797751442,3.372066410387817,0.0
-0.38300132992557384,-1.2643133868157408,1.258989877001036,1.7486354329932052,-4.487908141311425,6.9390488719979215,0.0
-0.301345328731761,-1.133072050156767,1.0903624079679821,-1.5071337206577542,-6.031795482731547,8.026392078754162,0.0
-0.15504513718749352,-1.7330326338489273,1.37826312640129,-4.050421715079297,-7.593494880609133,5.144888650118648,0.0
-0.15504513718749352,-1.7330326338489273,1.37826312640129,-4.505156630478959,-4.646940493617625,4.005090206755187,0.0
-0.36598963819502706,-1.6861607747835068,1.3864887336813672,-4.156273287209497,-1.5184529644963327,3.8841755529210165,0.0
-0.05297510591702472,-1.3768060783053937,0.5844797848866949,-5.01210518296012,-2.4516558049189534,1.4854421486219456,0.0
-0.21628710830465028,-1.611165701821987,0.5310124736376886,-5.4345625570444005,-7.3237756257682785,-3.089755198194281,0.0
-0.43743862435051184,-1.7939660998623976,1.102701034870224,-3.925108319138754,-7.354310012199726,-3.9494941873783436,0.0
-0.43743862435051184,-1.7939660998623976,1.102701034870224,-1.8441502608586984,-2.656489736872326,-2.5732007583815526,0.0
-0.012147283989335258,-2.126756807920594,1.102701034870224,-0.9783501319625308,-1.0814316690706507,-1.3489397581840106,0.0
0.06270415962507031,-1.812714909126464,0.3500463057083508,-0.4457691718432566,-4.0120827711756695,0.30030064500738346,0.0
0.1647740717827273,-1.3674316736733607,0.012791259651180359,0.40768951150364996,-4.064881607480596,-1.5738765544855338,0.0
0.4471674398329343,-1.8455253253385804,0.16908020977305507,0.8529309751853732,-1.644406811967368,-2.4834037060103618,0.0
0.19879745524382111,-2.5439169935723434,0.2636761333747836,1.7538566855438646,1.452274271520619,0.30030064500738346,0.0
-0.14483812214916553,-2.5814144480057304,-0.09003041521870936,0.5633816472584973,-1.545170428484178,0.9982271740101768,0.0
0.19879745524382111,-2.037700128011024,-0.12704622393139303,0.07162236047433972,-0.661585841872987,-2.101099985372481,0.0
0.21240657040263525,-1.7095966222688446,-0.3409153024411956,-0.9797741520360025,-0.5025533033572805,-5.036837047130384,0.0
0.22261358544096352,-1.573668083293854,-0.4026083064632039,-2.2405006311397444,-0.1564985789964915,-6.196195423131318,0.0
0.3757185727902616,-1.489298605700301,-0.5218814388731399,-2.3662884842985474,0.8447701047372731,-6.374899809109819,0.0
0.43355808644849786,-1.4611755558989468,-0.6411545982808418,-1.659028577619792,-0.04899260809815697,-7.203520849826705,0.0
0.5594443670289201,-1.4846114033842843,-0.6329288470126803,-1.672793950611282,-0.00573576755305835,-6.266432542865036,0.0
0.6887329859554532,-1.5221090219124171,-0.6781704069935252,-1.747317266387588,0.9510038069480542,-4.905253402221993,0.0
0.450569778179043,-1.489298605700301,-0.8344593211183792,-1.0433800423365196,0.24235495063430554,-1.691234935795663,0.0
0.450569778179043,-1.489298605700301,-0.8344593211183792,-0.321405315600114,-0.34542919502845654,-1.3347144945857494,0.0
0.2804533373248226,-1.1893183138542207,-0.7234119309773491,-0.02568522147771357,-0.17112957191923814,-1.4742998827998053,0.0
0.2804533373248226,-1.1893183138542207,-0.7234119309773491,0.11244406854617191,0.8339558635660809,-2.578535080416564,0.0
0.2804533373248226,-1.1893183138542207,-0.7234119309773491,1.1443790582977056,-0.9192184859916134,-1.9775180837697564,0.0
0.3723162344441529,-0.9455843677529675,-0.8961523476385257,2.5109572021628885,2.1367502477740046,-3.458722679989384,0.0
-0.04957276757091521,-0.4909266866441443,-0.4396241061766323,1.9446746343391408,2.664102022593815,-6.205974695441656,0.0
-0.04957276757091521,-0.4909266866441443,-0.4396241061766323,-0.7813616456551079,0.8434978593259079,-3.3253609855700232,0.0
0.5866630737977946,-1.2830621960798076,-0.4067211730980293,0.018459189484889428,0.011439743347971626,-3.240009403980457,0.0
0.5696513820672494,-0.8940252243241578,-0.3614796401149501,-0.18375070568841387,-0.3556072824590486,-3.9886133586448853,0.0
0.5696513820672494,-0.8940252243241578,-0.3614796401149501,-0.03138127427170055,-0.6444103115751336,-4.45004531408184,0.0
0.32808583594473056,-0.38312123849419455,-0.4848656481589667,0.18886612792902904,-0.16731280465022494,-3.639205809487252,0.0
0.32808583594473056,-0.38312123849419455,-0.4848656481589667,0.33316614941172357,0.46309207436941197,-3.0301870695347817,0.0
0.31107438243980634,-0.13001284673722133,-0.575348714125125,0.07304636896890626,1.6303907394861445,-3.3760385196704727,0.0
0.31107438243980634,-0.13001284673722133,-0.575348714125125,-0.006223707403083938,2.0419668784051814,-1.813038614385318,0.0
0.6921353243015624,0.005915723005533688,-0.6576060648201433,-0.28817835037638373,1.427465206684739,-1.6743424244288467,0.0
0.6921353243015624,0.005915723005533688,-0.6576060648201433,-0.3038425017111413,1.2455320645549528,-0.9639687897775753,0.0
0.4573744548712631,0.029351683306008694,-0.2874480322512915,-0.326152041459083,0.8517675476045345,-0.5950012646069458,0.0
0.4437651014868251,0.015290107125723687,-0.217529294397179,-0.3527336182696292,0.031159775258038595,-0.6047811441746314,0.0
0.5356282368317763,-0.012833045234846288,-0.10648188175801089,-0.08929114940967249,-0.42430934158062744,-0.2722658244429024,0.0
0.4675814699095909,-0.008145853174751317,-0.16406202364482145,0.1869674422170035,-0.5375404556237523,0.06647303116950158,0.0
0.4811908232940262,-0.022207429355036324,-0.41494690636768006,0.3046858637313414,1.4999840020404134,-0.22692282925508872,0.0
0.2600393072481663,-0.017520237294941305,-0.24220649645594508,0.1418736855036615,1.6876423416260957,-1.2191343362886902,0.0
0.7295610461087642,0.03872607255415949,-0.18873922345377372,0.0687743319063015,0.0012616636761089727,-0.08467029086740856,0.0
0.5764560587594674,-0.012833045234846288,-0.09003041521870936,0.039344720738264435,-0.2779994123531607,-0.1958050976655361,0.0
0.38252324948247957,-0.022207429355036324,-0.2668836973898042,-0.11112602351906024,1.898201471035363,-0.4020712680259853,0.0
0.34509752767527785,0.1652802684326461,-1.0935699461101436,-0.6356376040989418,6.405182576004248,0.2514013339200045,0.0
0.2940626907092601,0.0855979957190899,0.2636761333747836,-0.34086683835892256,3.29132614842791,0.16338256962517006,0.0
0.3348905126369493,0.04341326461425448,0.7448815746456292,0.0065924153636354,0.4223797556819614,0.13315391158856824,0.0
0.2770509989787131,0.048100456674349513,0.39940074132327635,0.10864670870102605,-0.8454274452245738,0.23806516014051599,0.0
0.450569778179043,0.0340388804940645,-0.2504322297255958,-0.06793095107038055,0.6157632616886222,0.3767613934725119,0.0
0.17157874847494634,0.0340388804940645,0.07037137454022513,-0.1106513520910539,-0.08906880407992498,1.0755770122940778,0.0
0.14095770335996202,0.21683938622165191,-0.11882049066174229,-0.18564939140043935,0.9745406263725688,1.9175342918537397,0.0
0.12054367328330629,0.0902851877791849,0.02924272619048177,-0.34656289549499897,1.291333395922782,2.4572047633258784,0.0
0.6479051640277621,-0.21438232433077456,0.03335560182456261,-0.27061551332960077,1.6049454588398293,1.6508107295129186,0.0
0.5458350136444836,-0.303438963216658,0.12795152542629104,-0.051317461583540475,2.4471816040578864,0.751952482311262,0.0
0.5186165451012311,-0.2518798608115345,0.37061068387875395,0.10389999442096237,1.994257023745717,0.4318842248524866,0.0
0.31787882090640257,-0.18157196965418793,0.4405294256700407,0.07352104618636518,0.7760680456156942,0.4283279523284461,0.0
0.2872580140170411,-0.1253256649330479,0.39940074132327635,0.11766544846478931,0.5489696327539265,0.5056777472368225,0.0
0.24642995386372907,-0.1909463537743779,0.4610937318464019,0.08633715737417937,0.2716169364797988,0.4932306632761062,0.0
0.5458350136444836,-0.18157196965418793,0.4528679805782408,0.08064111181700814,-0.3307982176231688,0.23006344936649414,0.0
0.47778848494791754,-0.20032073789456795,0.33359487516607056,0.16608189938472337,-0.5559882313329709,0.21939451251167952,0.0
0.4471674398329343,-0.13001284673722133,0.34182062643423167,0.12905756273694222,-0.781178276077691,0.25851396571913504,0.0
0.2532346305559478,-0.21906950613494786,0.5556896554481303,0.09250788014880956,-2.106873263899695,0.14382284844338286,0.0
0.32468349759862103,-0.11595128081285791,0.18553167631235673,0.23823191012607065,-2.7309169313799644,0.42921702045945626,0.0
0.14095770335996202,-0.09720251257247793,-0.18462635681894832,0.11576677433166899,-1.8708691021234534,0.8097425614597916,0.0
-0.059779782609243215,-0.0550177737757013,-0.20519069449270286,0.056432886357041114,-0.505733947920611,2.4972133063521067,0.0
-0.015549622335444775,-0.1675103832179813,0.06214565926908496,0.05880623770762036,0.5050766695031453,4.206021946641813,0.0
0.07631351300950757,-0.24719265849551794,0.2348860759302612,-0.028058577170382265,0.32568798716117203,3.3222779010428525,0.0
0.5356282368317763,-0.22375670845096468,0.07859712580838657,0.05785689485160763,0.3015150450309747,2.5292201060726693,0.0
0.8214239432280934,-0.5471729913652843,0.18141880067827612,-0.03755199921737547,-0.3009001090719929,1.4134268058751547,0.0
0.43355808644849786,-0.6456039938595146,0.16085445850489397,-0.004325021691058477,-0.8346132040533816,0.5341282744333447,0.0
0.4131442945974639,-0.46749071608774767,0.041581317095702786,0.021307218052927627,-0.8263435157747551,0.23273068629116808,0.0
0.38252324948247957,-0.5471729913652843,0.0498070683638639,0.05026215200350574,-0.5884308927767126,0.4301060885904664,0.0
0.4165466329435753,-0.5284242231249046,-0.024224549061503304,-0.05416548834237475,-0.27736328964747814,-0.3825115522661386,0.0
0.3927302645208068,-0.5706089208979945,-0.01599881579185256,-0.02093851009237619,-0.2710020005208168,-0.6954671779257834,0.0
0.3927302645208068,-0.5706089208979945,-0.01599881579185256,-0.5051030482389793,-0.05853455730560762,-0.7603698888734434,0.0
0.43696042479460656,-0.5143626161768546,-0.003660206888121216,-0.43485172320965754,-0.13105339145492895,-0.7461446252751823,0.0
0.6376981489894349,-0.5237370208088877,-0.048901748870455584,-0.36839776960438675,0.45291398693881996,-1.0768817870571288,0.0
0.6376981489894349,-0.5237370208088877,-0.048901748870455584,-0.391181974990882,1.0031664895123797,-0.06599964323857208,0.0
0.6785259709171239,-0.48155228201211125,-0.05712748214010629,-0.39925138347753764,0.42428815483392684,-0.09533923856610435,0.0
0.5118118684090133,-0.44405474553135105,0.09093571671360731,-0.37599251245248855,-0.055990043206689,0.09936893223046055,0.0
0.5118118684090133,-0.44405474553135105,0.09093571671360731,-0.25020465929368463,-0.1774908765633582,0.08158736357651537,0.0
0.43355808644849786,-0.5237370208088877,0.016904117286750384,-0.1377076061190591,-0.12850886959728094,-0.025102042925215024,0.0
0.42335130963579326,-0.5143626161768546,0.00045265074744897524,-0.0579628568716994,-0.005099637088646355,-0.02954743237773103,0.0
0.40633961790524536,-0.48155228201211125,0.05391990800092356,0.10389999442096237,-0.0133693292466377,-0.02688020087499768,0.0
0.3893279261746975,-0.43936754321533456,0.08271000144246712,0.30800856951683864,-0.17876313749218217,-0.0393272956795949,0.0
0.4437651014868251,-0.45811631145571463,0.10738718325290889,0.5614829383886616,-0.3225285293445422,-0.15757471258909064,0.0
0.5866630737977946,-0.5049882525685079,0.15674158287081344,0.696289554469039,-0.9223991305549442,-0.35761734096918174,0.0
0.4471674398329343,-0.4628035137717312,0.09504859234768791,0.6023046464604936,-1.5127278911801068,-0.19669416579654625,0.0
0.3382928509830583,-0.4112444113666077,-0.09003041521870936,0.4186069369794388,-1.510183276217706,-0.1015627805464624,0.0
0.40633961790524536,-0.33624933840508764,-0.7645405793270925,-0.3475122267721065,1.040062040930817,0.22739622328570136,0.0
0.4131442945974639,-0.41593157265893793,-0.6000259139340774,0.42240430840348964,3.2900539650863805,-0.044661769528942845,0.0
0.3689138960980437,-0.38312123849419455,0.2348860759302612,-0.7158570001691343,3.4872543004318897,0.17227335937408325,0.0
0.17157874847494634,-0.33156213608907115,0.781897383358313,-0.16713721149764357,-0.08652428222227694,-0.11578803330084228,0.0
0.34509752767527785,-0.4018700067345747,0.11150005888698948,-0.02283719580440165,-0.021639017525264335,0.05936040428400471,0.0
0.4301557481023886,-0.3878084408102111,0.12795152542629104,-0.0859684523083542,0.2277239577115588,0.07892012936281172,0.0
0.3995349412130274,-0.3643724702538145,0.12383864979221021,-0.07125364817169882,0.18446711716646016,0.07447473719932542,0.0
0.3927302645208068,-0.38312123849419455,0.13617727669445215,-0.057013514739368235,0.008895223430005957,0.024686347137055187,0.0
0.3927302645208068,-0.38312123849419455,0.13617727669445215,-0.05036811945120931,0.13993801569253753,-0.015322179623351114,0.0
0.4029372795591361,-0.3924956431262276,0.11150005888698948,-0.03612798565703794,0.22009039213861473,-0.009987711195943813,0.0
0.3927302645208068,-0.4018700067345747,0.11561293452107008,-0.016666470135045162,0.17619742888783352,-0.017989416548025088,0.0
0.3927302645208068,-0.4018700067345747,0.11561293452107008,-0.1320115489829827,0.24808011705528404,-0.18246892388604757,0.0
0.34509752767527785,-0.32218773145703805,0.11150005888698948,-0.08169641235102319,0.3148737770248974,-0.1860252397856128,0.0
0.34509752767527785,-0.32218773145703805,0.11150005888698948,-0.11160069494706662,0.1291237977975335,0.004237546980376665,0.0
0.3484998660213871,-0.37374687488584785,0.18553167631235673,-0.07267766100835478,0.16474708052841747,0.6968296075557627,0.0
0.045692467894523546,-0.3878084408102111,0.07859712580838657,-0.06555759537771184,-0.003827376159822349,-0.16735459215677634,0.0
0.3757185727902616,-0.434680340899318,0.05391990800092356,-0.028058577170382265,0.26334723268371335,-0.03754913772981226,0.0
0.35870688105971377,-0.3081261655326745,0.08271000144246712,0.15279112255835545,0.4478249432235238,0.588362037682309,0.0
0.35870688105971377,-0.3503109043294512,0.09504859234768791,-0.15716911729896244,0.41156554554568675,0.24073238622130874,0.0
0.47438614660180883,-0.46749071608774767,0.09916146798176874,-0.41633955488576696,0.6424807256764676,-1.274257167668665,0.0
0.4913978383323567,-0.8190301513626378,0.004565526381529571,-0.04894410607179217,1.1106724371345258,-0.17535629208691703,0.0
0.32128115925251205,-0.3081261655326745,0.31714340862676893,0.027477940827557844,0.2970621240213614,-0.23403546105421916,0.0
0.3519022043674958,-0.39718280441855786,0.24311179120140167,0.020357875196914902,0.34031896456646005,-0.20914127144502473,0.0
0.31447648256029304,-0.2893773972922947,0.2842404755481657,0.07019834040086803,0.16411095782273488,0.07447473719932542,0.0
0.3382928509830583,-0.28000299266026135,0.34182062643423167,0.22968783600086118,-0.45993261655278206,0.03268805248913646,0.0
0.32128115925251205,-0.33624933840508764,0.38294931078099603,0.39344935708455375,-0.8237990249520245,0.08425459779021903,0.0
0.32468349759862103,-0.3549981066454677,0.3500463057083508,0.4371191053033292,-1.1119659313624268,0.12426312726159565,0.0
0.34509752767527785,-0.34093649969741785,0.26778900900886443,0.42240430840348964,-1.333975331543816,0.24428870212087403,0.0
0.3314881742908398,-0.32218773145703805,0.24722466683548225,0.4485112195754821,-1.5617098050414313,0.30030064500738346,0.0
0.3416951893291678,-0.2940645996083112,0.09093571671360731,0.18601808778208556,-1.0108212107971066,0.4363296522585866,0.0
0.4029372795591361,-0.2893773972922947,-0.05301462450453622,0.032224655107621514,-0.7022981915953552,0.3678706037235989,0.0
0.4131442945974639,-0.3503109043294512,-0.03656315796523469,-0.21982571105908752,-0.1361424196527662,0.21583819661211423,0.0
0.5050071917167925,-0.44405474553135105,-0.05301462450453622,-0.15906780301098788,0.39693453710548116,0.2780736814789817,0.0
0.4029372795591361,-0.39718280441855786,0.0580327836350044,-0.20511090258034267,0.28688405210822815,0.126930358764329,0.0
0.3961326028669182,-0.3503109043294512,0.11561293452107008,-0.12156878335629519,0.2849756684737215,0.09670169530578657,0.0
0.42335130963579326,-0.369059672569831,0.06625853490316551,0.01703518099032292,0.505712792208828,0.19272216495270236,0.0
0.4301557481023886,-0.37843403617817806,0.0580327836350044,-0.009546404504402226,0.5852290614666812,0.0922563031423003,0.0
0.36210921940582247,-0.41593157265893793,0.21020885812279852,0.03887004931025808,0.2150013639407775,-0.027769279849888976,0.0
0.35870688105971377,-0.3456237020134347,0.17319304941011476,0.1105453828341464,0.046426895614443596,-0.09089384369164777,0.0
0.3484998660213871,-0.3549981066454677,0.15674158287081344,0.025104589476978592,-0.1774908765633582,0.01668464178497394,0.0
0.31107438243980634,-0.24719265849551794,0.13617727669445215,0.004693729651609929,-0.2805439342108088,0.18649861212846308,0.0
0.43355808644849786,-0.4018700067345747,0.00045265074744897524,-0.03945068348203779,0.297698246727044,0.024686347137055187,0.0
0.4879954999862474,-0.45811631145571463,-0.048901748870455584,-0.056064172607037076,0.7270860696845347,-0.10867541234559297,0.0
0.3519022043674958,-0.22375670845096468,-0.01599881579185256,-0.18422537132696765,0.5260689360350944,0.1171505008844057,0.0
0.3314881742908398,-0.303438963216658,0.15674158287081344,-0.18944675124558508,0.23535752328450285,0.15093547482057282,0.0
0.36551155775193445,-0.37843403617817806,0.13617727669445215,-0.23311649946436055,0.24680785612646,0.04958054216819031,0.0
0.35530454271360506,-0.3549981066454677,0.09916146798176874,-0.1709345829216945,0.26080272634352414,-0.008209553246161167,0.0
0.32128115925251205,-0.3456237020134347,0.271901884642945,0.0008963611222852723,-0.2678213559574863,-0.1682436602877865,0.0
0.3484998660213871,-0.3081261655326745,0.11972581015515059,-0.011445087321701412,-0.16285988364061152,0.024686347137055187,0.0
0.3689138960980437,-0.3549981066454677,0.11972581015515059,-0.06745627964237418,-0.2525542248115981,0.0709184226552453,0.0
0.35530454271360506,-0.369059672569831,0.08682284107952674,-0.04704542158097936,-0.17494635470571016,0.09403446109208294,0.0
0.35870688105971377,-0.3643724702538145,0.09093571671360731,-0.05369081691436838,-0.0967023618941396,0.11003787450721574,0.0
0.3927302645208068,-0.3878084408102111,-0.007773082522201812,-0.2217243851922078,0.5241605679180467,0.051358698762487796,0.0
0.40633961790524536,-0.4018700067345747,-0.01188594015777188,-0.24071123073355727,0.5572392899976356,-0.01621125859824244,0.0
0.35870688105971377,-0.38312123849419455,0.17730592504419562,-0.1472010231002813,0.2671640154701855,0.09314538211719159,0.0
0.3723162344441529,-0.369059672569831,0.14851586759967297,-0.08359509806304866,0.18065033437998818,0.13671022206619288,0.0
0.3348905126369493,-0.369059672569831,0.18553167631235673,-0.07077897674369246,-0.04835647763374498,0.11359418498484043,0.0
0.3927302645208068,-0.39718280441855786,0.11972581015515059,-0.09403786079500988,0.03942946535511744,0.08692183471489298,0.0
0.36210921940582247,-0.3128133678486914,0.07037137454022513,-0.2758369048271234,0.33268539899351585,0.1313757536387856,0.0
0.37912091113637086,-0.369059672569831,0.14851586759967297,-0.1979908369496997,0.4650004735213774,0.16960612244940929,0.0
0.3927302645208068,-0.3924956431262276,0.17319304941011476,-0.17805464855233744,0.47963145092666515,0.07980920698221788,0.0
0.3995349412130274,-0.4112444113666077,0.2636761333747836,0.0027950439395844568,0.18383097894331876,-0.04199453260426885,0.0
0.38252324948247957,-0.3456237020134347,0.30480481772154794,0.09488124307829401,-0.20484446325688618,-0.012654942698677162,0.0
0.3723162344441529,-0.256567063127551,0.09093571671360731,-0.07267766100835478,0.06932757681581692,0.3056351188567314,0.0
0.3314881742908398,-0.4299931796069878,0.18553167631235673,-0.04941877713795775,-0.02227514798967633,0.026464505086837828,0.0
0.3859255878285888,-0.4112444113666077,0.09504859234768791,-0.10922733780703478,0.036884945437151775,0.010461094382675305,0.0
0.3927302645208068,-0.39718280441855786,0.10738718325290889,-0.14815036595629402,0.19718971093724144,-0.008209553246161167,0.0
0.40633961790524536,-0.38312123849419455,0.16496733413897455,-0.17283326863371998,0.33522992085116393,0.03535528805832527,0.0
0.3723162344441529,-0.369059672569831,0.16908020977305507,-0.16903589720966905,0.37339774871588405,0.09936893223046055,0.0
0.38252324948247957,-0.37374687488584785,0.2060959824887179,-0.18612405703899312,0.3244157107148893,0.025575426111946527,0.0
0.29066035236315035,-0.3596852679377979,0.3500463057083508,-0.1134993748696395,-0.1399592024392382,0.04335699341040653,0.0
0.3927302645208068,-0.3503109043294512,0.008678384017099722,-0.5350073308350227,0.36576418314294007,0.06469487457520409,0.0
0.38252324948247957,-0.3549981066454677,0.045694192729783346,-0.8160126309523099,0.5216160460603985,0.20605833873219093,0.0
0.3689138960980437,-0.41593157265893793,0.26778900900886443,-0.34656289549499897,0.2716169364797988,0.061138561047737836,0.0
0.3689138960980437,-0.44405474553135105,0.26778900900886443,-0.2430845820841366,0.1908284218105802,0.037133444652622756,0.0
0.34509752767527785,-0.4909266866441443,0.25133754246956286,-0.26539412183207806,-0.026728057361195653,-0.10334093849624507,0.0
0.3348905126369493,-0.37843403617817806,0.21432173375687902,-0.4196622375134538,-0.12914499230296356,-0.09000476471675646,0.0
0.3348905126369493,-0.37843403617817806,0.21432173375687902,-0.19087077131905678,-0.1564985789964915,0.28074092924753685,0.0
0.4029372795591361,-0.3128133678486914,0.11972581015515059,-0.023786537213051254,0.06805531588699291,0.2887426291776775,0.0
0.3689138960980437,-0.42061877497495437,0.19787026721757778,-0.24735661914674134,-0.01654997768933301,0.21406003866233161,0.0
0.35870688105971377,-0.41593157265893793,0.16085445850489397,-0.23881254502153187,-0.02227514798967633,0.028242660325650162,0.0
0.36551155775193445,-0.3878084408102111,0.2842404755481657,-0.021413181520382553,0.08268630880973958,0.011350173357566612,0.0
0.3859255878285888,-0.33156213608907115,0.12383864979221021,0.4129109030011725,-0.04644808624050897,0.2149491176372229,0.0
0.4165466329435753,-0.4299931796069878,0.16085445850489397,0.43616977402622165,0.15329673992773082,0.38654125135243544,0.0
0.38252324948247957,-0.4721778773800778,0.28012759991408515,0.5282559731649313,0.07823339943822026,0.2514013339200045,0.0
0.35870688105971377,-0.4768650796960947,0.2266603246621001,0.4551566311464764,-0.10815271025355565,0.1349320641164103,0.0
0.3757185727902616,-0.5049882525685079,0.24311179120140167,0.4409164767273802,-0.04517583307041435,-0.025991121900106343,0.0
0.3757185727902616,-0.5049882525685079,0.24311179120140167,0.2239917788647846,-0.30471687634100597,-0.11134264927026688,0.0
0.31787882090640257,-0.41593157265893793,0.17730592504419562,0.11908946853826104,-0.49937265879394976,-0.1958050976655361,0.0
0.31787882090640257,-0.41593157265893793,0.17730592504419562,-0.10400595209896472,0.20291489287567888,0.15449179072013802,0.0
0.4471674398329343,-0.3456237020134347,0.03746844146162223,-0.18754806553355963,0.2506246389129321,0.07714197141302907,0.0
0.3416951893291678,-0.38312123849419455,0.2636761333747836,-0.002426335979032995,0.026070734815956533,0.10648155860765049,0.0
0.3416951893291678,-0.38312123849419455,0.2636761333747836,-0.0252105500497072,0.015256524194761294,0.08514367676511034,0.0
0.3689138960980437,-0.38312123849419455,0.15674158287081344,-0.06270956825703679,0.09731729785312156,0.051358698762487796,0.0
0.3689138960980437,-0.4112444113666077,0.16496733413897455,-0.059861541136361725,0.10177021110400557,0.04513515000470402,0.0
0.3689138960980437,-0.44405474553135105,0.14029011633151178,-0.005274364547071218,0.11067602984704422,0.06825118844154164,0.0
0.3689138960980437,-0.44405474553135105,0.14029011633151178,0.003269715367590814,0.13357671104841753,0.05313685569565657,0.0
0.3893279261746975,-0.44405474553135105,0.13206440106037165,0.04741412922492011,0.09413664941042622,0.06380579627805535,0.0
0.4131442945974639,-0.45811631145571463,0.13206440106037165,0.09488124307829401,0.1672916023860655,0.051358698762487796,0.0
0.4403627631407164,-0.500301050252491,0.11972581015515059,0.1380763140796105,0.23344912413253743,0.0629167179809066,0.0
0.43355808644849786,-0.5565473549736314,0.10738718325290889,0.22066909623709796,0.1895561608817562,0.03268805248913646,0.0
0.41994897128968456,-0.589357730162061,0.12795152542629104,0.3046858637313414,0.18319485623763618,0.01668464178497394,0.0
0.3927302645208068,-0.5659217596056644,0.10738718325290889,0.4000947686555481,0.2150013639407775,0.07002934503583913,0.0
0.3689138960980437,-0.5237370208088877,0.13206440106037165,0.48648488750037083,0.16029417503626286,0.10381432168297654,0.0
0.3519022043674958,-0.44405474553135105,0.1526287432337538,0.4874342650930991,0.1437547907202802,0.1704952014243006,0.0
0.3484998660213871,-0.4018700067345747,0.13617727669445215,0.46939673924995196,0.07187209867346493,0.2433996339898639,0.0
0.3519022043674958,-0.4253059772909713,0.10327430761882836,0.45325792227664063,-0.04326744167717835,0.3189712926362199,0.0
0.3484998660213871,-0.5237370208088877,0.11561293452107008,0.4798395222449972,-0.08779654315110094,0.325194834616578,0.0
0.35870688105971377,-0.6127936596947713,0.06625853490316551,0.4883835963702067,-0.10878883295923822,0.2576248759003626,0.0
0.3314881742908398,-0.6315424689588377,0.09093571671360731,0.5239839129445162,-0.22456449989492885,0.18560953315357182,0.0
0.2940626907092601,-0.5518601526576145,0.06214565926908496,0.5757230928077578,-0.41731189871336605,0.3083023449375241,0.0
0.32808583594473056,-0.45811631145571463,0.14029011633151178,0.5795204642318086,-0.465021660268078,0.3909866353830106,0.0
0.2804533373248226,-0.303438963216658,0.2636761333747836,0.5106931361181483,-0.5827056953208164,0.5181248311975385,0.0
0.2056018937104173,-0.1909463537743779,0.4117393682255183,0.48790890757384253,-1.0000070316957497,0.9146538154336801,0.0
0.17498108682105612,-0.1253256649330479,0.47754523438272445,0.4921809677942575,-1.2315583655671307,1.1075838120146406,0.0
0.2566369689020568,-0.03158181347522629,0.47754523438272445,0.4309483825286991,-1.2773596969349597,1.0417919895604453,0.0
0.31447648256029304,-0.03158181347522629,0.4364165500359601,0.23016250163941498,-1.2207441864657735,0.8364149523942936,0.0
0.3927302645208068,-0.022207429355036324,0.36238493261059285,-0.03612798565703794,-0.946572103720059,0.5741367740840478,0.0
0.4165466329435753,-0.06907936021190793,0.33359487516607056,-0.21982571105908752,-0.7022981915953552,0.3874303194834456,0.0
0.4641791315634816,-0.1628232014138079,0.2554504181036434,-0.40969414331477266,-0.47392747125238716,0.21228188071254897,0.0
0.4437651014868251,-0.3643724702538145,0.17730592504419562,-0.643706989427787,-0.2175670725451263,0.15626994866992072,0.0
0.40974195625135407,-0.5424857890492677,0.22254744902801957,-0.665541886694985,0.006986833976452312,0.10648155860765049,0.0
0.40974195625135407,-0.5424857890492677,0.22254744902801957,-0.5312099594109717,0.08014178695209155,0.054025933992805315,0.0
0.43696042479460656,-0.6877887326562914,0.07859712580838657,-0.37836586380306786,0.11958184859008286,-0.011765863723785864,0.0
0.48459316164013816,-0.701850339604341,0.02101699292083127,-0.28865301601493754,0.3282325090188201,-0.09978462259667975,0.0
0.5594443670289201,-0.7065375419203578,-0.05301462450453622,-0.23406584232037328,0.6106742179733262,-0.24737163483370775,0.0
0.5560420286828103,-0.6737272077556141,-0.048901748870455584,-0.1804279999029167,0.7455337833239181,-0.3718426045674429,0.0
0.4675814699095909,-0.5987320527467213,-0.020111691425933196,-0.12773951192037794,0.8663985250098224,-0.45808321091249465,0.0
0.4675814699095909,-0.5987320527467213,-0.020111691425933196,-0.1087526663790284,0.804057755014905,-0.5034262061003083,0.0
0.32808583594473056,-0.46749071608774767,-0.020111691425933196,-0.1258408262083525,0.6730149879682438,-0.5541036968252321,0.0
0.2974650290553691,-0.4253059772909713,-0.12704622393139303,-0.3560563240551263,1.0203419577403978,-0.438523495152648,0.0
0.35870688105971377,-0.45811631145571463,-0.16406202364482145,-0.3090638700508537,1.542604750914747,-0.6412333713012943,0.0
0.3348905126369493,-0.448741947847368,-0.020111691425933196,-0.16571320300307704,1.191460920768827,-0.611004707842752,0.0
0.2940626907092601,-0.4628035137717312,0.12795152542629104,-0.14577701460571477,1.0839549731466807,-0.6012248282750661,0.0
0.3348905126369493,-0.4253059772909713,0.11972581015515059,-0.08691779516436694,0.8886630990229717,-0.33183410491673954,0.0
0.2804533373248226,-0.3596852679377979,0.30891765735860754,-0.11255003780307934,0.4847204946419613,-0.20647402367646958,0.0
0.31107438243980634,-0.4018700067345747,0.2760147242800046,-0.12773951192037794,0.4618197979231291,-0.20558495554545939,0.0
0.31787882090640257,-0.369059672569831,0.3541591813424314,-0.06508292394970548,0.18255871801449478,-0.13534777074845128,0.0
0.3519022043674958,-0.32218773145703805,0.3253691238979091,-0.1847000485444266,0.505712792208828,-0.2864910880411635,0.0
0.40633961790524536,-0.3128133678486914,0.2760147242800046,-0.13485957755102088,0.4198352338243133,-0.11845527022551623,0.0
0.3893279261746975,-0.2378182948871713,0.37061068387875395,-0.21935103384162852,0.18573937809528418,0.030020818275432806,0.0
0.3348905126369493,-0.1112640784968413,0.36238493261059285,-0.21318031106699836,0.17874195074548155,-0.019767569075867138,0.0
0.3314881742908398,-0.022207429355036324,0.24722466683548225,-0.19988952266172522,0.4064765018303906,0.3589798139746858,0.0
0.40633961790524536,-0.2518798608115345,0.24722466683548225,-0.02663456433372632,0.061057886597507924,0.23095252834138544,0.0
0.3995349412130274,-0.579983325530028,0.259563257740703,-0.325202687024165,0.1437547907202802,0.06558395287235284,0.0
0.47778848494791754,-0.5284242231249046,0.008678384017099722,-0.5084257308666661,1.0699601494819928,-0.34072487297789017,0.0
0.3723162344441529,-0.5049882525685079,0.2266603246621001,-0.4894389200620322,1.713087622272411,-0.3353903774407798,0.0
0.3348905126369493,-0.4299931796069878,0.6955271390307036,-0.3346961155842923,1.4211039175580777,-0.4020712680259853,0.0
0.3348905126369493,-0.3878084408102111,0.5556896554481303,0.14851908549575063,0.4204713565299959,-0.13979315477902668,0.0
0.2600393072481663,-0.21438232433077456,0.47754523438272445,0.1271588770249167,0.2639833709068548,0.06736210946665032,0.0
0.3348905126369493,-0.34093649969741785,0.4076264925914378,0.10200130870893692,0.4777230517746999,-0.006431395296378552,0.0
0.31107438243980634,-0.37843403617817806,0.3212562842608495,-0.2169776824910492,0.7735235547929639,-0.29804910387086936,0.0
0.2498322922098383,-0.2706286290519146,0.3541591813424314,-0.27963427625117426,0.7881545321982517,0.13315391158856824,0.0
0.18178576351327433,-0.20032073789456795,0.5885925885267334,-0.04419739486737518,0.2760698419719535,0.3918757252017831,0.0
0.2498322922098383,-0.3549981066454677,0.613269842331217,0.08965986315967653,-0.12151142673001952,0.20605833873219093,0.0
0.2872580140170411,-0.38312123849419455,0.6009312154289752,0.15611380518604218,-0.39059443472552063,0.06825118844154164,0.0
0.2804533373248226,-0.4253059772909713,0.580366909252614,0.17415130787137906,-0.6329599787331764,-0.1655764342069937,0.0
0.2566369689020568,-0.303438963216658,0.6626242059521008,0.34835563510792733,-1.0998794447798694,0.06024948275058909,0.0
0.2158089087487453,-0.17688476733817132,0.6297212728734976,0.03459801224765335,-1.9681969623150073,0.866643615852836,0.0
0.37912091113637086,-0.5471729913652843,0.5639154067162915,0.6972388857461466,-2.1704864034456484,-0.10956449132048425,0.0
0.5424326752983749,-0.4018700067345747,-0.14761055710551996,0.08064111181700814,0.19400906637391083,-0.009987711195943813,0.0
0.3961326028669182,-0.3596852679377979,0.35827205697651204,-0.022362524376395288,0.2340852623556788,-0.11578803330084228,0.0
0.34509752767527785,-0.3081261655326745,0.37061068387875395,-0.011445087321701412,0.22136265306743877,-0.1220115861250815,0.0
0.3348905126369493,-0.32218773145703805,0.4158522438595989,0.0004216896942789044,0.050879806925645275,-0.1220115861250815,0.0
0.3348905126369493,-0.32218773145703805,0.4158522438595989,-0.03612798565703794,0.11003989938263221,0.1518245537954641,0.0
0.2872580140170411,-0.2612542244198813,0.3500463057083508,-0.06840562105102375,0.05851336667954226,0.35720165602490317,0.0
0.31787882090640257,-0.3128133678486914,0.4117393682255183,-0.009071733076395864,-0.10878883295923822,0.33764194026505645,0.0
0.3757185727902616,-0.369059672569831,0.3541591813424314,-0.005749035975077581,-0.08207136897139292,0.037133444652622756,0.0
0.3757185727902616,-0.369059672569831,0.3541591813424314,-0.006698375936364025,-0.05471778227786501,-0.13801499682924404,0.0
0.3042697057475879,-0.2893773972922947,0.4405294256700407,0.13760163686215152,-0.5400850085163179,-0.025991121900106343,0.0
0.35870688105971377,-0.28000299266026135,0.26778900900886443,0.07019834040086803,-0.4192202978653313,-0.017989416548025088,0.0
0.35870688105971377,-0.32218773145703805,0.23077320029618067,-0.0845444380243351,0.0012616636761089727,-0.08644844881719119,0.0
0.3348905126369493,-0.33624933840508764,0.2924661908193062,-0.1500490516683195,0.12403476184096689,-0.07933582786194184,0.0
0.3416951893291678,-0.2846901949762778,0.30480481772154794,-0.11729674629369044,0.09095600096773092,-0.0384382167047036,0.0
0.3416951893291678,-0.2846901949762778,0.30480481772154794,-0.10020858646436637,0.09031987050331891,0.03802252362751407,0.0
0.3723162344441529,-0.303438963216658,0.31714340862676893,-0.038976012777712996,0.030523645217932105,0.16338256962517006,0.0
0.3961326028669182,-0.2940645996083112,0.30480481772154794,-0.05179213264970606,0.1437547907202802,0.1900549280280284,0.0
0.3961326028669182,-0.2940645996083112,0.30480481772154794,0.006117743935629033,0.3562222184180306,0.12248496931181302,0.0
0.3382928509830583,-0.3128133678486914,0.4076264925914378,-0.2326418222469016,0.8027855096035397,-0.0028750848187538763,0.0
0.3382928509830583,-0.3128133678486914,0.4076264925914378,-5.298173372745281e-05,0.3842119588521587,-0.13445868092967878,0.0
0.3484998660213871,-0.33624933840508764,0.41996504749963764,0.04266742073430903,-0.06425973148531565,-0.18869246586640556,0.0
0.3519022043674958,-0.2846901949762778,0.39528786568919577,0.05690755199559489,-0.47519974769867,-0.08911568574186514,0.0
0.3484998660213871,-0.2612542244198813,0.2924661908193062,0.06497696048225059,-0.45229905097983786,0.019351875998677576,0.0
0.2872580140170411,-0.24719265849551794,0.4117393682255183,-0.09830990075234088,-0.8371577569459473,0.07269658060502793,0.0
0.31787882090640257,-0.2659414267358981,0.26778900900886443,-0.10305661503240456,-1.007004474563011,0.10114708746927288,0.0
0.3484998660213871,-0.3549981066454677,0.17319304941011476,-0.20321221686831717,-0.29962783262571,-0.0820030539427346,0.0
0.2804533373248226,-0.3268749337730546,0.39117499005511525,-0.1419796431816638,-0.5852502482133821,-0.1406822229100368,0.0
0.2532346305559478,-0.3456237020134347,0.4857709136568437,0.08681183459163833,-2.0038202062522443,-0.09978462259667975,0.0
0.31107438243980634,-0.33624933840508764,0.28012759991408515,0.20263159355176105,-2.550892064262473,-0.08022490683683316,0.0
0.43696042479460656,-0.3596852679377979,-0.01188594015777188,0.2557947471728535,-2.2786284427385604,-0.05444162740886613,0.0
0.47098380825570013,-0.3268749337730546,-0.11882049066174229,0.13427894265555962,-1.2207441864657735,-0.04377269055405151,0.0
0.4403627631407164,-0.32218773145703805,0.10738718325290889,0.22256775879131308,-1.3530591989237999,-0.09889554362178843,0.0
0.3689138960980437,-0.2659414267358981,0.09916146798176874,0.2254157989382564,-2.215015303192607,-0.1389040649602542,0.0
0.3859255878285888,-0.24250545617950148,-0.15583629037517066,0.26338949002095546,-2.447839006615023,-0.060665180233105374,0.0
0.3893279261746975,-0.2050079402105845,-0.2956737660833957,0.09440656586083501,-1.9529297690992844,-0.030436511352622327,0.0
0.4403627631407164,-0.2846901949762778,-0.25865796299524657,0.003269715367590814,-1.7035668132592847,-0.0517743904841922,0.0
0.38252324948247957,-0.2893773972922947,-0.11470761502766164,-0.08169641235102319,-1.935754300871266,-0.22158835540574076,0.0
0.3689138960980437,-0.28000299266026135,-0.1517234237403453,0.07826774888752369,-2.476464869754835,-0.1904706238161882,0.0
0.3893279261746975,-0.17688476733817132,-0.6411545982808418,0.42430297095770475,-0.831432559490051,0.14826824331783942,0.0
0.3893279261746975,-0.17688476733817132,-0.6411545982808418,0.3336408150502773,-0.4084060877290566,0.9537732469533733,0.0
0.4641791315634816,-0.24250545617950148,-0.6617189044572029,-0.15669445166040866,0.20355101558136146,0.3323074664157085,0.0
0.41994897128968456,-0.303438963216658,-0.27099656458708304,-0.05938687043203693,-1.0515334984496396,-0.012654942698677162,0.0
0.3348905126369493,-0.27531583136793114,-0.14349769047069455,0.22019440744073374,-1.4274863934314397,-0.03310374827729628,0.0
0.37912091113637086,-0.2659414267358981,-0.2874480322512915,0.22304244758767722,-0.7678195440837683,0.0975907742806779,0.0
0.5322258984856676,-0.2659414267358981,-0.8426850723865403,-0.029482590007038224,0.5216160460603985,0.23450884424095073,0.0
0.4675814699095909,-0.28000299266026135,-0.7234119309773491,0.1869674422170035,0.7219970259692385,0.3420873242956319,0.0
0.47438614660180883,-0.24250545617950148,-0.2504322297255958,-0.02568522147771357,-0.432579029859254,0.10025801120535185,0.0
0.3689138960980437,-0.3549981066454677,-0.46841418161966525,0.023205903764953108,-0.2729103686378646,0.083365521526298,0.0
0.43355808644849786,-0.32218773145703805,-0.5876873230288564,-0.02710923431436952,0.3104208560152839,0.2087255756568649,0.0
0.5050071917167925,-0.3503109043294512,-0.7069604644380476,-0.02046383866436981,0.9471870086441233,0.17760783322343116,0.0
0.2532346305559478,-0.28000299266026135,-0.1928520900885991,0.10389999442096237,-0.12469208681080893,0.11270510600994912,0.0
0.2634416455942756,-0.21438232433077456,-0.3409153024411956,0.2415546159115677,-0.09352170957207957,0.2949661711580356,0.0
0.43355808644849786,-0.2612542244198813,-0.6576060648201433,0.0901345287982303,0.43573848767588386,0.3598689037934581,0.0
0.5220188834473398,-0.4018700067345747,-0.6288159713785997,-0.07030430676304923,0.6469336777209985,0.1802750593042239,0.0
0.3995349412130274,-0.37843403617817806,-0.3861568399239024,0.06212893191421236,0.4204713565299959,0.030909897250324125,0.0
0.38252324948247957,-0.3503109043294512,-0.4108340397328546,0.08965986315967653,0.34222736371842527,-0.049107153559518245,0.0
0.4641791315634816,-0.3456237020134347,-0.5383329054124414,0.10389999442096237,0.7989687112996088,0.0629167179809066,0.0
0.4301557481023886,-0.3456237020134347,-0.4930913814286175,0.047888800652926486,0.9236502512894438,0.06825118844154164,0.0
0.3689138960980437,-0.303438963216658,-0.3532539023456717,0.08443847166215389,0.5814122631627506,0.16338256962517006,0.0
0.3689138960980437,-0.303438963216658,-0.3532539023456717,0.11766544846478931,0.633574945727076,0.10914879553232444,0.0
0.4641791315634816,-0.37843403617817806,-0.4108340397328546,0.06402761762623783,0.7728874010523635,-0.025991121900106343,0.0
0.4471674398329343,-0.3456237020134347,-0.3614796401149501,-0.06176022540102405,0.7455337833239181,-0.0286583534028397,0.0
0.3689138960980437,-0.2893773972922947,-0.23398076093648051,-0.08549378088034784,0.4128377909570519,0.04513515000470402,0.0
0.35870688105971377,-0.24719265849551794,-0.2134164277623536,-0.0769497009656858,0.18255871801449478,0.04335699341040653,0.0
0.36551155775193445,-0.24719265849551794,-0.20519069449270286,-0.021887852948388926,-0.07125715883511827,0.015795562810082604,0.0
0.43696042479460656,-0.2659414267358981,-0.20519069449270286,-0.029007920026395,0.016528784153744126,0.05313685569565657,0.0
0.43355808644849786,-0.2846901949762778,-0.3368024358063702,-0.056538844035043445,0.2060955374390095,0.007793857458001361,0.0
0.40974195625135407,-0.28000299266026135,-0.35736677348012474,-0.11634740343767769,0.2754337037488121,-0.027769279849888976,0.0
0.3995349412130274,-0.2893773972922947,-0.33268956917154485,-0.16286517443503884,0.24299107333998812,-0.03399282183024701,0.0
0.4267534097562799,-0.32218773145703805,-0.33268956917154485,-0.18375070568841387,0.33014090817078534,0.05224777705963654,0.0
0.42335130963579326,-0.3456237020134347,-0.3203509692670687,-0.17852931419089121,0.3295047544301854,0.1215958903369217,0.0
0.4165466329435753,-0.3878084408102111,-0.29978663384312804,-0.1472010231002813,0.3428634864241079,0.0878109136897843,0.0
0.3995349412130274,-0.448741947847368,-0.23398076093648051,-0.10068325789237272,0.3721254722696014,0.04068975784121773,0.0
0.3689138960980437,-0.434680340899318,-0.18462635681894832,0.06687564619427604,0.08268630880973958,0.006904778483110024,0.0
0.35870688105971377,-0.4018700067345747,-0.217529294397179,0.1304815712315086,-0.10369978924394223,0.005126620533327408,0.0
0.3893279261746975,-0.3456237020134347,-0.2504322297255958,0.11529209711421004,-0.08779654315110094,0.06736210946665032,0.0
0.3961326028669182,-0.2987517609006414,-0.2668836973898042,0.08633715737417937,-0.029908709683255673,0.12515220623648696,0.0
0.3348905126369493,-0.256567063127551,-0.2668836973898042,0.040294063594277174,0.1303960587263575,0.3047460290379589,0.0
0.3961326028669182,-0.27531583136793114,-0.22164216103200438,0.023680575192959467,0.06169401706191991,0.26029212366891774,0.0
0.3961326028669182,-0.27531583136793114,-0.22164216103200438,0.12668419980745774,0.09668116738870955,0.2922989450772428,0.0
0.4471674398329343,-0.4018700067345747,-0.2134164277623536,0.12905756273694222,-0.008280285531341677,0.09936893223046055,0.0
0.42335130963579326,-0.34093649969741785,-0.2833351653352394,0.08681183459163833,0.09604503692429754,0.19272216495270236,0.0
0.4267534097562799,-0.3268749337730546,-0.3203509692670687,-0.013818444461733257,0.19400906637391083,0.04068975784121773,0.0
0.36551155775193445,-0.3596852679377979,-0.3162381003824295,-0.03517864424838835,0.21372910301195353,0.06647303116950158,0.0
0.3995349412130274,-0.369059672569831,-0.3162381003824295,-0.030431932863050966,0.29833440046764426,0.18827677007824578,0.0
0.37912091113637086,-0.33624933840508764,-0.2545450963604212,0.07067301761832698,0.1698361242437135,0.27362829744840633,0.0
0.38252324948247957,-0.3503109043294512,-0.24631936309077046,0.11671611718768173,0.14439092118469218,0.3225276085357852,0.0
0.3757185727902616,-0.3456237020134347,-0.2504322297255958,0.03459801224765335,0.1711083851725375,0.22650714431081004,0.0
0.3757185727902616,-0.3456237020134347,-0.2504322297255958,-0.0161917987070388,0.20418715380450286,0.19450032290248498,0.0
0.3723162344441529,-0.3128133678486914,-0.23398076093648051,-0.010021075932408606,0.31232925516724935,0.2985224870576008,0.0
0.3757185727902616,-0.31750052914102156,-0.1722877569144722,-0.06603226535835507,0.24553559519763615,0.1998347859079517,0.0
0.4539721165251544,-0.3503109043294512,-0.18462635681894832,0.10152663149147798,-0.06298747055649163,0.38031770937207726,0.0
0.43355808644849786,-0.20969512201475793,-0.30801236711277874,0.019883203768908522,-0.14441212344885163,0.1464900853680568,0.0
0.43355808644849786,-0.20969512201475793,-0.30801236711277874,-0.05891219972771213,-0.17303797107120353,-0.04199453260426885,0.0
0.508409530062904,-0.4018700067345747,-0.2504322297255958,-0.13106220612696995,-0.24110389196964083,-0.2962709459210867,0.0
0.4165466329435753,-0.33624933840508764,-0.33268956917154485,-0.021413181520382553,-0.12723660866845693,-0.1895815339974157,0.0
0.4165466329435753,-0.33624933840508764,-0.33268956917154485,-0.34988560128049623,0.599223885131369,-0.16290918643843855,0.0
0.3314881742908398,-0.31750052914102156,-0.11470761502766164,-0.03422930139237561,0.2181820085041081,0.083365521526298,0.0
0.32468349759862103,-0.28000299266026135,-0.16406202364482145,0.0027950439395844568,0.13739349383488955,0.24606686007065667,0.0
0.3893279261746975,-0.3456237020134347,-0.20930356112752824,-0.0275839057423759,0.027979124996891074,0.19361124392759368,0.0
0.3859255878285888,-0.369059672569831,-0.16406202364482145,0.05500886628356942,-0.04453970260600233,0.13048667466389427,0.0
0.3995349412130274,-0.39718280441855786,-0.217529294397179,-0.008597061648389501,-0.02736418782560767,-0.09356108061632172,0.0
0.3927302645208068,-0.3503109043294512,-0.1928520900885991,0.040294063594277174,-0.003191245695410353,-0.023323884975432387,0.0
0.37912091113637086,-0.2893773972922947,-0.1352719572010438,0.07304636896890626,-0.08143523850698092,0.2051692597572996,0.0
0.3893279261746975,-0.2987517609006414,-0.23809362757130587,0.0065924153636354,-0.06744038380737567,0.25495764981956986,0.0
0.4029372795591361,-0.303438963216658,-0.18051349018412294,-0.014767787317745992,-0.02100288706085234,0.16693888552473532,0.0
0.3995349412130274,-0.2987517609006414,-0.18462635681894832,-0.057013514739368235,-0.03881452842629432,0.1420446959155408,0.0
0.40633961790524536,-0.33156213608907115,-0.20519069449270286,-0.08976582083767885,-0.08843267361551295,0.12870851671411165,0.0
0.4029372795591361,-0.3878084408102111,-0.22986789430165513,-0.10068325789237272,-0.20611672418571023,0.12959759568900298,0.0
0.3927302645208068,-0.37374687488584785,-0.20930356112752824,-0.09118983512169797,-0.14950115164668884,0.12604128521137828,0.0
0.42335130963579326,-0.369059672569831,-0.3368024358063702,-0.1434036574656829,0.11385668216910423,0.19716754898327776,0.0
0.4471674398329343,-0.37374687488584785,-0.3532539023456717,-0.12014477486172867,0.8714875687251183,0.19450032290248498,0.0
0.43696042479460656,-0.37843403617817806,-0.3532539023456717,-0.12251812621230793,0.6857375662215662,0.19894570693306038,0.0
0.36210921940582247,-0.3596852679377979,-0.08591755758313925,-0.08406976949105503,-0.012097068317813688,0.1402665379657582,0.0
0.3484998660213871,-0.37843403617817806,-0.08180468194905861,-0.05558950190271228,-0.12278368765884352,0.23361976526605935,0.0
0.3995349412130274,-0.3878084408102111,-0.22575502766682973,-0.057488186167374604,0.13548510244165354,0.31452590860564456,0.0
0.43355808644849786,-0.4018700067345747,-0.29978663384312804,-0.05891219972771213,0.6412084802651024,0.30030064500738346,0.0
0.4471674398329343,-0.39718280441855786,-0.29978663384312804,-0.051317461583540475,1.241715266251022,0.44166410442017223,0.0
0.4403627631407164,-0.4018700067345747,-0.3121252337476041,-0.12821418334838433,1.8473110338824026,0.4807835359398654,0.0
0.3723162344441529,-0.4112444113666077,-0.06946609104383772,-0.07457634672038026,1.4675414647363423,0.38476309340265274,0.0
0.31107438243980634,-0.4065572090505912,0.12795152542629104,0.01656050956231654,0.8301391273319851,0.31096959270607927,0.0
0.43355808644849786,-0.2893773972922947,-0.22164216103200438,-0.08074706949501045,2.025427501847928,0.5216811470971039,0.0
0.31447648256029304,-0.369059672569831,0.18964451594941634,-0.04277338166887844,0.6615646551262865,0.5892511058133191,0.0
0.2668439839403848,-0.4018700067345747,0.2389989155673208,-0.012394430177714152,-0.06235134009207962,0.6390395284072327,0.0
0.3757185727902616,-0.46749071608774767,-0.06535321540975712,-0.2758369048271234,0.4236520010933266,0.5190139427040734,0.0
0.4573744548712631,-0.5424857890492677,-0.11470761502766164,-0.5383300134627097,0.8116913516227665,-0.201139571514884,0.0
0.3519022043674958,-0.4628035137717312,-0.08180468194905861,-0.7115849862643399,1.1055834554890651,-0.09978462259667975,0.0
0.3893279261746975,-0.5237370208088877,0.03335560182456261,-0.6831047237417682,1.13102861199571,-0.30071632995166214,0.0
0.3927302645208068,-0.5471729913652843,0.10327430761882836,-0.6850033862959833,1.071232394893358,-0.5185405378295795,0.0
0.3689138960980437,-0.5471729913652843,0.15674158287081344,-0.5340579995579152,0.9344644303908008,-0.5958903761134807,0.0
0.3348905126369493,-0.4956138479364745,0.34182062643423167,-0.23121781375233522,0.4859927400533265,-0.561216285248838,0.0
0.32808583594473056,-0.5143626161768546,0.3870621144210344,-0.01097041589369505,-0.34479307232277395,-0.8306070953582142,0.0
0.24302761551761953,-0.2050079402105845,0.18553167631235673,0.08823584308620484,-0.19593865227257695,-0.005542316321487215,0.0
0.3416951893291678,-0.2893773972922947,0.16496733413897455,0.020357875196914902,-0.19911929683590743,0.27629552352919906,0.0
0.38252324948247957,-0.3549981066454677,0.18141880067827612,0.03459801224765335,-0.28626910063178734,0.03179897351424515,0.0
0.4029372795591361,-0.3268749337730546,0.10327430761882836,-0.09308852083372343,-0.08779654315110094,0.24428870212087403,0.0
0.38252324948247957,-0.369059672569831,0.18141880067827612,-0.07362700386436752,-0.46056873925846453,0.09492354006697425,0.0
0.3382928509830583,-0.3549981066454677,0.21843460939095996,-0.028533248598388638,-0.7818144298182911,0.03891160124692024,0.0
0.34509752767527785,-0.38312123849419455,0.13617727669445215,0.027952612255564203,-0.9134933506055523,0.07447473719932542,0.0
0.4267534097562799,-0.45342910913969814,-0.12704622393139303,-0.08976582083767885,0.20482327651018548,0.03268805248913646,0.0
0.40633961790524536,-0.48155228201211125,-0.044788891234885476,-0.16808655435365633,0.26271110997803077,0.007793857458001361,0.0
0.3416951893291678,-0.4112444113666077,0.08271000144246712,-0.12821418334838433,0.22072653036175618,0.0469133065990015,0.0
0.36551155775193445,-0.43936754321533456,0.07859712580838657,-0.13343556326700182,0.30405956688862273,0.051358698762487796,0.0
0.4165466329435753,-0.500301050252491,0.03335560182456261,-0.11729674629369044,0.4840843719362787,0.006904778483110024,0.0
0.43355808644849786,-0.5143626161768546,-0.007773082522201812,-0.10637930923899656,0.7837016422235558,-0.05977610125821404,0.0
0.3314881742908398,-0.44405474553135105,0.16496733413897455,-0.01097041589369505,0.5120740813354892,0.030020818275432806,0.0
0.31107438243980634,-0.4628035137717312,0.23077320029618067,0.09488124307829401,-0.2086612460433581,0.07980920698221788,0.0
0.37912091113637086,-0.44405474553135105,0.13206440106037165,0.07921709174353643,0.08459470020297559,0.09136722687837928,0.0
0.42335130963579326,-0.44405474553135105,0.02101699292083127,-0.04941877713795775,0.33650219729744674,0.0006812310808114147,0.0
0.35530454271360506,-0.369059672569831,0.041581317095702786,-0.20463622536288373,0.4274687993972573,-0.009098632221052505,0.0
0.3348905126369493,-0.4253059772909713,0.2389989155673208,-0.24355927088050072,0.2277239577115588,0.03980068022181156,0.0
0.32808583594473056,-0.3924956431262276,0.2348860759302612,-0.19087077131905678,-0.02481966984732435,0.1553808696950294,0.0
0.32468349759862103,-0.37843403617817806,0.2636761333747836,0.003269715367590814,-0.2754548904955127,0.18116413827911523,0.0
0.3519022043674958,-0.37374687488584785,0.14029011633151178,-0.04134936847038169,-0.5324514119084565,0.16960612244940929,0.0
0.5560420286828103,-0.2893773972922947,0.11972581015515059,-0.09118983512169797,-0.3549711597533659,0.1553808696950294,0.0
0.40633961790524536,-0.44405474553135105,0.07859712580838657,-0.15716911729896244,-0.4319429071535714,0.20072386488284302,0.0
0.3723162344441529,-0.4909266866441443,0.012791259651180359,-0.04799476380377071,-0.15013728986983024,0.16871704347451796,0.0
0.3723162344441529,-0.4909266866441443,0.012791259651180359,0.03697136359823262,-0.2092973842664995,-0.05710886433354008,0.0
0.3416951893291678,-0.42061877497495437,0.11972581015515059,-0.04467206593354076,-0.2595516676788597,-0.11223172824515824,0.0
0.4029372795591361,-0.5096754548845245,0.09093571671360731,0.1347536198730186,-0.12469208681080893,-0.008209553246161167,0.0
0.4029372795591361,-0.5096754548845245,0.09093571671360731,0.33981153782490753,0.1068592470605722,-0.014433100648459807,0.0
0.4675814699095909,-0.5706089208979945,0.0498070683638639,0.3027871780193158,0.618943906251953,-0.07933582786194184,0.0
0.3893279261746975,-0.33624933840508764,0.06214565926908496,0.09345722300482232,0.8663985250098224,-0.020656648050758435,0.0
0.3893279261746975,-0.33624933840508764,0.06214565926908496,-0.12346746906832064,0.20037037101803085,0.09047814790348796,0.0
0.22261358544096352,-0.33156213608907115,0.24311179120140167,0.043142092162315404,-0.2932665434990487,0.08869998995370533,0.0
0.32468349759862103,-0.4112444113666077,0.21432173375687902,0.05975558056363308,-0.10751657203041425,0.012239249621487638,0.0
0.37912091113637086,-0.45811631145571463,0.14440299196559236,0.10579868013298789,-0.041359050283942315,-0.03132559032751366,0.0
0.3689138960980437,-0.45811631145571463,0.2019831428516583,0.14329769399822806,-0.29899170992002744,-0.068666880163246,0.0
0.34509752767527785,-0.4018700067345747,0.19787026721757778,0.1252601913128912,-0.35878792702237927,-0.018878495522916396,0.0
0.3689138960980437,-0.33624933840508764,0.09093571671360731,0.018459189484889428,-0.22456449989492885,0.06558395287235284,0.0
0.40633961790524536,-0.3878084408102111,0.06625853490316551,0.06782498905028878,0.20482327651018548,0.0975907742806779,0.0
0.3859255878285888,-0.4299931796069878,0.11150005888698948,0.0493128149369456,-0.17685475385767557,0.022019112923351552,0.0
0.3689138960980437,-0.42061877497495437,0.16908020977305507,0.14662038820481993,-0.24873745754258503,0.051358698762487796,0.0
0.31107438243980634,-0.3643724702538145,0.14851586759967297,-0.4429211316963133,-0.5998812256186699,0.3767613934725119,0.0
0.34509752767527785,-0.37843403617817806,0.0744842501743057,-0.013818444461733257,-0.0591706877700196,0.1402665379657582,0.0
0.42335130963579326,-0.4768650796960947,0.025129850556401212,-0.08074706949501045,0.03179590535876015,-0.06333241715777933,0.0
0.4301557481023886,-0.448741947847368,0.07859712580838657,-0.10542996638298383,0.14184639932704418,-0.0677778011883547,0.0
0.3689138960980437,-0.44405474553135105,0.16496733413897455,0.03364866939164062,0.15138835629322422,0.0469133065990015,0.0
0.35530454271360506,-0.4112444113666077,0.1526287432337538,0.08016643459954917,0.09540890645988555,0.07536381481873158,0.0
0.3416951893291678,-0.4112444113666077,0.14851586759967297,0.0626036091316713,0.03942946535511744,0.13582114309130158,0.0
0.3757185727902616,-0.38312123849419455,0.06625853490316551,0.048838143508939225,0.30405956688862273,0.20783649668197357,0.0
0.38252324948247957,-0.4112444113666077,0.08271000144246712,0.08918518594221757,0.20482327651018548,0.20072386488284302,0.0
0.34509752767527785,-0.3878084408102111,0.18964451594941634,0.10627334577154166,-0.13232565238375296,0.17760783322343116,0.0
0.3348905126369493,-0.3456237020134347,0.2019831428516583,0.08253979752903359,-0.3187117620755289,0.22472898636102742,0.0
0.3927302645208068,-0.2987517609006414,0.09504859234768791,-0.26776749634046776,-0.2779994123531607,0.10470340065786786,0.0
0.4131442945974639,-0.33156213608907115,0.0498070683638639,-0.4358010544867652,-0.32761757305983813,-0.04288361157916019,0.0
0.2804533373248226,-0.32218773145703805,0.012791259651180359,-0.6327895639519985,0.013348134741207635,0.055804090756538444,0.0
0.2940626907092601,-0.24719265849551794,0.012791259651180359,-1.0068304408007234,0.13612123290606554,0.08158736357651537,5.0
0.37912091113637086,-0.18157196965418793,0.08271000144246712,-1.0566708654785082,0.038157205396134604,0.20694741770708225,5.0
0.36551155775193445,-0.3596852679377979,0.17730592504419562,-0.8017724765332137,-0.22456449989492885,0.09047814790348796,5.0
0.32128115925251205,-0.48155228201211125,0.3541591813424314,-0.09166450654970433,-0.4930113696672884,0.0780310503879204,5.0
0.38252324948247957,-0.6596656008075642,0.34182062643423167,0.5999312951099145,-0.5839780028020168,0.0344662104389191,5.0
0.40974195625135407,-0.6456039938595146,0.14851586759967297,0.8382162246011542,-0.3867776674565073,-0.0002078478940799232,5.0
0.3757185727902616,-0.45811631145571463,-0.11470761502766164,0.45705529370069153,-0.22074771710845678,-0.08378121189251723,5.0
0.3689138960980437,-0.256567063127551,-0.1722877569144722,0.14044966543018977,0.026070734815956533,0.011350173357566612,5.0
0.4029372795591361,-0.3878084408102111,-0.10236902412244075,0.001845701083571721,0.11449281263351624,0.018462799734756584,5.0
0.4165466329435753,-0.46749071608774767,-0.007773082522201812,-0.0859684523083542,-0.017186108153745005,0.04958054216819031,5.0
0.40633961790524536,-0.4862394843281278,0.0498070683638639,0.044566100656881914,-0.07952685487247431,0.1215958903369217,5.0
0.36551155775193445,-0.45811631145571463,0.10738718325290889,0.08111577745556191,-0.1386869415104142,0.157159027644812,5.0
0.36551155775193445,-0.4299931796069878,0.08271000144246712,0.11244406854617191,-0.1577708399253155,0.18560953315357182,5.0
0.3689138960980437,-0.44405474553135105,0.07037137454022513,0.12051347703282758,-0.12850886959728094,0.1322648326136769,5.0
0.32808583594473056,-0.448741947847368,0.09504859234768791,0.13570295115012618,-0.15459019536198487,0.13582114309130158,5.0
0.32808583594473056,-0.4299931796069878,0.07859712580838657,0.17699934801832234,-0.2805439342108088,0.14293377489043213,5.0
0.35870688105971377,-0.4253059772909713,-0.007773082522201812,0.17130329088224597,-0.25382647022296334,0.1847204541786805,5.0
0.4641791315634816,-0.5143626161768546,-0.13938482383586917,0.16418321367269786,-0.12850886959728094,0.17849691219832248,5.0
0.47098380825570013,-0.5471729913652843,-0.1311590905662184,0.18744210785555732,-0.02100288706085234,0.11981773238713907,5.0
0.4607767932173729,-0.5706089208979945,-0.1311590905662184,0.2667121726486423,0.12276250091214287,0.07180750163013662,5.0
0.4471674398329343,-0.5940449324780774,-0.11059475739209153,0.32177403513957065,0.20355101558136146,-0.010876790170835121,5.0
0.4131442945974639,-0.5471729913652843,-0.07357894867940787,0.3516783177356141,0.1329405805840055,-0.04377269055405151,5.0
0.3927302645208068,-0.4768650796960947,-0.03656315796523469,0.33886218338998964,-0.004463506624234345,-0.0677778011883547,5.0
0.4029372795591361,-0.44405474553135105,-0.07357894867940787,0.28997106683150176,-0.0381783979618823,-0.04288361157916019,5.0
0.43355808644849786,-0.44405474553135105,-0.12704622393139303,0.24772533868619792,0.11512894309792823,-0.068666880163246,5.0
0.4131442945974639,-0.4721778773800778,-0.08591755758313925,0.23253585298999413,0.23281300142685477,-0.11667711227573364,5.0
0.37912091113637086,-0.4253059772909713,-0.02833742469558394,0.26861085836066784,0.3072402114519534,-0.11134264927026688,5.0
0.34509752767527785,-0.3924956431262276,0.08271000144246712,0.299939161030183,0.2786143638296013,-0.06155425920799667,5.0
0.32468349759862103,-0.33624933840508764,0.15674158287081344,0.2989898297530754,0.16665547968038288,-0.0677778011883547,5.0
0.31787882090640257,-0.2940645996083112,0.14440299196559236,0.2619654699474839,0.07505274711616022,-0.08022490683683316,5.0
0.3382928509830583,-0.256567063127551,0.1526287432337538,0.20547961054089417,0.0025339226652506225,-0.053552548433974834,5.0
0.3416951893291678,-0.23313109257115444,0.09916146798176874,0.13522828551157237,-1.0597252715036626e-05,-0.044661769528942845,5.0
0.36210921940582247,-0.21906950613494786,0.09504859234768791,-0.005749035975077581,-0.008916415995753674,-0.0384382167047036,5.0
0.3757185727902616,-0.21438232433077456,0.10738718325290889,-0.057488186167374604,0.004442314058486649,-0.07844674888705054,5.0
0.3995349412130274,-0.18625917197020458,0.09504859234768791,-0.14815036595629402,0.019073304071709787,-0.09089384369164777,5.0
0.37912091113637086,-0.17219758553399794,0.11972581015515059,-0.18612405703899312,0.04897141553240926,-0.040216374654486235,5.0
0.3723162344441529,-0.17688476733817132,0.12795152542629104,-0.24593262223107998,0.011439743347971626,-0.08555936984229989,5.0
0.3961326028669182,-0.21906950613494786,0.07037137454022513,-0.29197572180043474,-0.01845836908256902,-0.13534777074845128,5.0
0.40633961790524536,-0.2612542244198813,0.05391990800092356,-0.30479183298824886,0.031159775258038595,-0.1469057865781572,5.0
0.4301557481023886,-0.3128133678486914,0.02924272619048177,-0.2824822932403074,0.09159212755277822,-0.11312080722004952,5.0
0.4573744548712631,-0.3643724702538145,0.02101699292083127,-0.21507899677902387,0.2595304654147001,-0.11934434920040755,5.0
0.450569778179043,-0.3924956431262276,0.09504859234768791,-0.12441681192433338,0.20100649372371346,-0.10956449132048425,5.0
0.3995349412130274,-0.4112444113666077,0.0580327836350044,-0.02663456433372632,0.1272154141630269,-0.04555084850383414,5.0
0.36551155775193445,-0.44405474553135105,0.025129850556401212,0.05311018057154395,0.10367860249724158,-0.02954743237773103,5.0
0.34509752767527785,-0.4909266866441443,0.05391990800092356,0.11481743147565623,0.09031987050331891,-0.06333241715777933,5.0
0.35530454271360506,-0.46749071608774767,0.10738718325290889,0.223517113226231,0.026070734815956533,-0.0579979433084314,5.0
0.3689138960980437,-0.4065572090505912,0.07037137454022513,0.32462205212870376,-0.05471778227786501,0.025575426111946527,5.0
0.3927302645208068,-0.369059672569831,0.025129850556401212,0.37873456018471413,-0.1170585212378649,0.16338256962517006,5.0
0.3927302645208068,-0.369059672569831,0.025129850556401212,0.4038921400795991,-0.04199518074835433,0.24073238622130874,5.0
0.3995349412130274,-0.3081261655326745,0.02924272619048177,0.38537997175570843,0.03942946535511744,0.23450884424095073,5.0
0.4029372795591361,-0.2659414267358981,0.025129850556401212,0.30088849230729053,0.10431473296165356,0.19627847000838644,5.0
0.38252324948247957,-0.15813599909779133,0.02101699292083127,0.1926634993530799,0.06360240651547358,0.19272216495270236,5.0
0.3859255878285888,-0.1253256649330479,0.02101699292083127,0.07114768325688076,0.019073304071709787,0.19361124392759368,5.0
0.3961326028669182,-0.12063846261703133,0.02924272619048177,-0.03802667064538184,0.013984264235778466,0.19272216495270236,5.0
0.4131442945974639,-0.21438232433077456,0.00045265074744897524,-0.19466814274310776,-0.02100288706085234,0.18560953315357182,5.0
0.4131442945974639,-0.21438232433077456,0.00045265074744897524,-0.24355927088050072,0.026070734815956533,0.10470340065786786,5.0
0.3519022043674958,-0.41593157265893793,0.09093571671360731,-0.15479576594838315,-0.0763462025504143,0.06202763934488658,5.0
0.35870688105971377,-0.43936754321533456,0.07037137454022513,0.007067086791641779,-0.2188393334739501,0.12870851671411165,5.0
0.35870688105971377,-0.43936754321533456,0.07037137454022513,0.10627334577154166,-0.2582793912325768,0.24517779193964653,5.0
0.40974195625135407,-0.44405474553135105,0.02101699292083127,0.13617762836758515,-0.1596792390772809,0.25940303385014524,5.0
0.42335130963579326,-0.4065572090505912,-0.04067601560080484,0.16987927080877424,0.06296627605106159,0.22828530226059268,5.0
0.42335130963579326,-0.4065572090505912,-0.04067601560080484,0.16608189938472337,0.12149023998331887,0.22739622328570136,5.0
0.3757185727902616,-0.3081261655326745,0.09916146798176874,0.15421511947401667,0.07759726897380825,0.16249350149415995,5.0
0.3859255878285888,-0.2893773972922947,0.10327430761882836,0.1347536198730186,0.036884945437151775,0.1118160270350578,5.0
0.3859255878285888,-0.2893773972922947,0.10327430761882836,0.11861479132080206,0.03306816531774299,0.1349320641164103,5.0
0.3757185727902616,-0.2612542244198813,0.08271000144246712,0.05121149485951848,0.06996370728022892,0.1171505008844057,5.0
0.36210921940582247,-0.256567063127551,0.09093571671360731,0.001845701083571721,0.04006559581952944,0.11626142190951438,5.0
0.35870688105971377,-0.27531583136793114,0.11561293452107008,-0.03470397282038198,-0.02481966984732435,0.10292524541905551,5.0
0.3757185727902616,-0.3081261655326745,0.0744842501743057,-0.06603226535835507,0.03624881545766036,0.06558395287235284,5.0
0.3927302645208068,-0.3878084408102111,0.045694192729783346,-0.056538844035043445,0.10558698613174819,0.06825118844154164,5.0
0.40633961790524536,-0.3924956431262276,0.02924272619048177,-0.04704542158097936,0.11449281263351624,0.037133444652622756,5.0
0.3859255878285888,-0.4112444113666077,0.03335560182456261,-0.06745627964237418,0.11512894309792823,0.0024593890305940197,5.0
0.3961326028669182,-0.4018700067345747,0.02101699292083127,-0.057013514739368235,0.0871392181812589,-0.0286583534028397,5.0
0.4301557481023886,-0.3643724702538145,0.0498070683638639,-0.052741474782037216,0.12021797905449483,-0.003764158371704579,5.0
0.4267534097562799,-0.2940645996083112,0.02101699292083127,-0.09071516369369159,0.11258442124028023,0.017573720759865245,5.0
0.40974195625135407,-0.256567063127551,-0.032450282331154094,-0.18992142846304408,0.11576507356234024,-0.023323884975432387,5.0
0.41994897128968456,-0.256567063127551,-0.06535321540975712,-0.2748875503922055,0.11512894309792823,-0.07577951196237655,5.0
0.450569778179043,-0.303438963216658,-0.12704622393139303,-0.3095385356894074,0.16411095782273488,-0.15401839668952538,5.0
0.450569778179043,-0.33624933840508764,-0.1352719572010438,-0.26159677356583755,0.30787633415763604,-0.17624536021792714,5.0
0.4131442945974639,-0.44405474553135105,-0.11470761502766164,-0.1709345829216945,0.36640030584862265,-0.15401839668952538,5.0
0.35870688105971377,-0.4768650796960947,-0.06946609104383772,-0.053216146210043586,0.3116931324615667,-0.1104535702953756,5.0
0.32808583594473056,-0.500301050252491,-0.020111691425933196,0.10152663149147798,0.019073304071709787,0.04157883681610904,5.0
0.34509752767527785,-0.5143626161768546,-0.05301462450453622,0.1812713850809271,-0.19084960855728086,0.14826824331783942,5.0
0.3893279261746975,-0.579983325530028,-0.18462635681894832,0.27003487843413954,-0.12405594858766752,0.18294229622889785,5.0
0.3893279261746975,-0.6362296712748543,-0.22986789430165513,0.37873456018471413,-0.04263131121276634,0.1518245537954641,5.0
0.3723162344441529,-0.6549783984915477,-0.25865796299524657,0.4717700906005312,0.043246246201907104,0.23806516014051599,5.0
0.3995349412130274,-0.5706089208979945,-0.22164216103200438,0.4793648334486331,0.011439743347971626,0.4043228091624992,5.0
0.37912091113637086,-0.4112444113666077,-0.10236902412244075,0.4470871995020104,-0.23347032639669685,0.649708432730404,5.0
0.2838556756709321,-0.2659414267358981,0.06625853490316551,0.4005694574519122,-0.6068786684859314,0.9964490377481565,5.0
0.15796939509050906,-0.15344881729361792,0.15674158287081344,0.3250967409250679,-1.1291413995904451,1.515670812080488,5.0
0.12054367328330629,-0.10188969437665131,0.2266603246621001,0.30705923823973097,-1.599877663941069,1.8330717350196586,5.0
0.1477623800521805,-0.1487616149776013,0.2019831428516583,0.2496240243982234,-1.8785025745916446,1.9993294274171667,5.0
0.27024632228649487,-0.2659414267358981,0.15674158287081344,0.1974102020542385,-1.9643801640110767,1.9868823868319754,5.0
0.3995349412130274,-0.4253059772909713,0.0580327836350044,0.17035393644732802,-1.8231592474639884,1.9166450935961554,5.0
0.47098380825570013,-0.5424857890492677,-0.020111691425933196,0.20120757347828938,-1.5979692647891037,1.8135119758842873,5.0
0.5050071917167925,-0.6362296712748543,-0.06535321540975712,0.2415546159115677,-1.3511507997718344,1.6988210158448123,5.0
0.5050071917167925,-0.7252862691370512,-0.06946609104383772,0.2538960614608282,-1.0687090908173282,1.4836640123599252,5.0
0.5118118684090133,-0.767471007933828,-0.05301462450453622,0.3108565865059716,-0.8753255537757497,1.3823090309100774,5.0
0.5288235601395589,-0.790907019513911,-0.048901748870455584,0.2838003440568716,-0.7321963001465313,1.2160513385125693,5.0
0.4641791315634816,-0.7205990668210347,-0.1352719572010438,0.1328549341609931,-0.38868606660847277,1.0542391168966863,5.0
0.3382928509830583,-0.6362296712748543,-0.032450282331154094,0.10769736584501334,-0.36832989174728864,1.0426811010669803,5.0
0.31447648256029304,-0.701850339604341,-0.01188594015777188,0.029376626539583308,-0.4014086448617953,0.7981845456300859,5.0
0.36551155775193445,-0.7487222807171341,-0.02833742469558394,0.013712480994278334,-0.2779994123531607,0.6381504169006982,5.0
0.3995349412130274,-0.767471007933828,-0.020111691425933196,0.03792070645424535,-0.15331793443316086,0.3785395514222946,5.0
0.3961326028669182,-0.7768454125658609,-0.020111691425933196,0.028427283683570573,-0.13677855787590762,0.19183308597781104,5.0
0.43355808644849786,-0.7346606737690844,-0.05301462450453622,-0.04894410607179217,-0.1183307821666889,0.009572015407783997,5.0
0.4641791315634816,-0.7205990668210347,-0.07357894867940787,-0.12963819763240342,0.028615255097612636,-0.16913275010655895,5.0
0.4641791315634816,-0.6971631372883244,-0.10236902412244075,-0.26064741913091966,0.18764776172979078,-0.2829347721415982,5.0
0.3995349412130274,-0.7065375419203578,-0.15583629037517066,-0.37884052944162167,0.20736779836783348,-0.2989381936896419,5.0
0.3757185727902616,-0.7299734714530677,-0.18051349018412294,-0.4452944830468924,0.14248252979145618,-0.32916685714818433,5.0
0.32808583594473056,-0.8377788785793311,-0.23398076093648051,-0.3793151950801754,0.16856386331488946,-0.3176088413184785,5.0
0.3042697057475879,-0.9549586903376279,-0.24220649645594508,-0.31570928162184797,0.3046956895943054,-0.42785454745395224,5.0
0.24642995386372907,-0.9221483561728842,-0.2668836973898042,-0.34134150399747637,0.347952530139404,-0.576330660353634,5.0
0.19539511689771158,-0.8330916762633146,-0.2134164277623536,-0.3555816352587622,0.11131216031145622,-0.675907418790412,5.0
0.22261358544096352,-0.8330916762633146,-0.18462635681894832,-0.2929250530775423,-0.0763462025504143,-0.6803528028209874,5.0
0.3416951893291678,-0.8659020924754309,-0.20107782335824986,-0.12821418334838433,-0.19911929683590743,-0.6767965302969469,5.0
0.42335130963579326,-0.8377788785793311,-0.20107782335824986,0.018933860912895787,-0.16667666642708354,-0.58788867618334,5.0
0.4811908232940262,-0.7721582102498445,-0.3162381003824295,0.1300069055929548,0.0559688467615766,-0.5532145853186975,5.0
0.4879954999862474,-0.6081064573787545,-0.3491410357108463,0.07162236047433972,0.19655358823155886,-0.5052043857378534,5.0
0.43355808644849786,-0.45811631145571463,-0.4026083064632039,-0.05843752829970577,0.09095600096773092,-0.4047385157945405,5.0
0.3995349412130274,-0.4018700067345747,-0.47663991488931595,-0.3570056553322339,0.07568887758057224,-0.39051325219627936,5.0
0.3927302645208068,-0.4112444113666077,-0.42728550627215617,-0.510324439736502,0.13930188522812556,-0.37006446830542256,5.0
0.42335130963579326,-0.44405474553135105,-0.41494690636768006,-0.5891198157332228,0.18001421167430554,-0.4394125632836581,5.0
0.43355808644849786,-0.4768650796960947,-0.44373698181071297,-0.6546244612191966,0.21945426943293214,-0.52565316962871,5.0
0.4165466329435753,-0.5237370208088877,-0.4643013059855846,-0.6930728179404494,0.24808011705528404,-0.5105388378994385,5.0
0.4267534097562799,-0.5612345572896478,-0.47663991488931595,-0.703990243416238,0.3358660745917641,-0.539878433226971,5.0
0.41994897128968456,-0.6081064573787545,-0.4972042390641876,-0.6921234403477211,0.49362630562627047,-0.6172282281353474,5.0
0.40974195625135407,-0.5987320527467213,-0.5177685812375697,-0.6532004411457247,0.6176716608405877,-0.6679057188602714,5.0
0.3859255878285888,-0.589357730162061,-0.41494690636768006,-0.5558928505094927,0.6380278357017718,-0.6270081077030333,5.0
0.3689138960980437,-0.5565473549736314,-0.3532539023456717,-0.42868100043502744,0.5903181051819775,-0.4989808220697328,5.0
0.40633961790524536,-0.5190498184928711,-0.35736677348012474,-0.3095385356894074,0.4891734156515746,-0.4180746678862666,5.0
0.4403627631407164,-0.5331113844172347,-0.3738182400194263,-0.26634347626699606,0.5375192999119692,-0.39051325219627936,5.0
0.3961326028669182,-0.5237370208088877,-0.30801236711277874,-0.24355927088050072,0.5604199966308016,-0.39051325219627936,5.0
0.37912091113637086,-0.4768650796960947,-0.2833351653352394,-0.22552175661625867,0.5915903505933426,-0.43318899961553786,5.0
0.3927302645208068,-0.434680340899318,-0.25865796299524657,-0.16049181150555442,0.6749233871202093,-0.38340062039714873,5.0
0.3927302645208068,-0.434680340899318,-0.25865796299524657,-0.09688588646832179,0.6978240528041237,-0.32472147311760885,5.0
0.3995349412130274,-0.38312123849419455,-0.20107782335824986,-0.06745627964237418,0.7277221613552998,-0.21981019745595817,5.0
0.3927302645208068,-0.34093649969741785,-0.20930356112752824,-0.05891219972771213,0.8008771104515742,-0.2002504816961115,5.0
0.3927302645208068,-0.34093649969741785,-0.20930356112752824,-0.10685398066700295,0.8829379015670755,-0.24826072465248025,5.0
0.37912091113637086,-0.2893773972922947,-0.18873922345377372,-0.20606024543635545,0.9128360101182516,-0.2544842666328384,5.0
0.3723162344441529,-0.3503109043294512,-0.08591755758313925,-0.27963427625117426,0.8892991906937366,-0.26604228246254424,5.0
0.3723162344441529,-0.3503109043294512,-0.08591755758313925,-0.32425335574705744,0.7359918496339263,-0.29982726182065206,5.0
0.35870688105971377,-0.3878084408102111,-0.024224549061503304,-0.2611220847694734,0.55342255376354,-0.27760029829225014,5.0
0.35870688105971377,-0.43936754321533456,-0.007773082522201812,-0.1666625458590898,0.43637461038156644,-0.2038067975956768,5.0
0.42335130963579326,-0.5143626161768546,-0.08591755758313925,-0.04419739486737518,0.4471888205178412,-0.12378974407486418,5.0
0.4437651014868251,-0.5752961232140111,-0.1311590905662184,0.1423483511422153,0.5826845085741158,-0.1068972543958103,5.0
0.42335130963579326,-0.5987320527467213,-0.1311590905662184,0.30848323515539244,0.6354832828092063,-0.06955595913813734,5.0
0.3995349412130274,-0.6034192550627379,-0.11470761502766164,0.4428151855972161,0.6475697693917635,-0.07489043298748525,5.0
0.35870688105971377,-0.5284242231249046,-0.05712748214010629,0.556736235687503,0.6259413491192142,-0.09356108061632172,5.0
0.35870688105971377,-0.500301050252491,-0.01188594015777188,0.5828431468594955,0.5400638217696174,-0.08822660676697384,5.0
0.3689138960980437,-0.42061877497495437,0.045694192729783346,0.5643309785356049,0.4427358995082279,-0.1068972543958103,5.0
0.40633961790524536,-0.303438963216658,0.09916146798176874,0.5311040133118746,0.2690724146221507,-0.025991121900106343,5.0
0.3961326028669182,-0.2846901949762778,0.09916146798176874,0.4333217338792783,0.06360240651547358,0.08869998995370533,5.0
0.3961326028669182,-0.24250545617950148,0.0580327836350044,0.37303852620644795,0.007622964440864304,0.13848838001597555,5.0
0.40633961790524536,-0.24719265849551794,0.09093571671360731,0.3374381864743282,-0.017186108153745005,0.22472898636102742,5.0
0.4301557481023886,-0.2612542244198813,0.045694192729783346,0.25816809852343287,0.03942946535511744,0.344754572064187,5.0
0.43696042479460656,-0.32218773145703805,0.00045265074744897524,0.20168223911684316,0.11003989938263221,0.32074945058600257,5.0
0.37912091113637086,-0.33624933840508764,0.0580327836350044,0.15848717969443182,0.11958184859008286,0.2745173655794165,5.0
0.3416951893291678,-0.34093649969741785,0.09093571671360731,0.13665229400613893,0.10367860249724158,0.20783649668197357,5.0
0.3348905126369493,-0.33156213608907115,0.09093571671360731,0.1470950654222789,0.09477277987483822,0.15982626456948598,5.0
0.35530454271360506,-0.3456237020134347,0.14851586759967297,0.14139900828620253,0.03624881545766036,0.13315391158856824,5.0
0.35870688105971377,-0.31750052914102156,0.14440299196559236,0.11576677433166899,-0.04072291981953033,0.1402665379657582,5.0
0.3689138960980437,-0.303438963216658,0.10738718325290889,0.051686172076977434,-0.12278368765884352,0.16338256962517006,5.0
0.3927302645208068,-0.31750052914102156,0.09093571671360731,0.025104589476978592,-0.1851244421363023,0.157159027644812,5.0
0.41994897128968456,-0.37843403617817806,0.05391990800092356,0.03459801224765335,-0.17876313749218217,0.14382284844338286,5.0
0.3995349412130274,-0.4018700067345747,0.025129850556401212,0.07352104618636518,-0.1755824929288516,0.2051692597572996,5.0
0.35870688105971377,-0.42061877497495437,-0.020111691425933196,0.10627334577154166,-0.12914499230296356,0.2709610496798512,5.0
0.3757185727902616,-0.4112444113666077,-0.020111691425933196,0.10057728863546525,-0.01845836908256902,0.23806516014051599,5.0
0.36210921940582247,-0.4112444113666077,-0.01188594015777188,0.06212893191421236,0.05278819637919892,0.18383137520378914,5.0
0.35870688105971377,-0.3878084408102111,-0.003660206888121216,0.03269932653562788,0.02543460483646512,0.17138428039919193,5.0
0.35870688105971377,-0.41593157265893793,0.0580327836350044,0.04504077208488828,0.0038061835940746353,0.157159027644812,5.0
0.35870688105971377,-0.434680340899318,0.0744842501743057,0.03697136359823262,-0.034361619054774986,0.11270510600994912,5.0
0.35870688105971377,-0.434680340899318,0.0498070683638639,0.022731232336946752,-0.029272579218843672,0.06736210946665032,5.0
0.3723162344441529,-0.39718280441855786,0.0744842501743057,0.04504077208488828,-0.06425973148531565,0.10114708746927288,5.0
0.38252324948247957,-0.4253059772909713,0.025129850556401212,0.019883203768908522,-0.012733198782225699,0.11537234293462308,5.0
0.38252324948247957,-0.4299931796069878,0.02101699292083127,0.008491101075660873,0.014620393730349292,0.09492354006697425,5.0
0.3757185727902616,-0.43936754321533456,0.045694192729783346,0.010389780998233759,0.016528784153744126,0.11537234293462308,5.0
0.3723162344441529,-0.434680340899318,0.0498070683638639,0.035547349314213494,0.020345565000533795,0.15982626456948598,5.0
0.37912091113637086,-0.38312123849419455,0.05391990800092356,0.014187152422284703,0.050879806925645275,0.17316243834897455,5.0
0.3927302645208068,-0.4018700067345747,0.00045265074744897524,-0.01856515584707064,0.029251385137719126,0.16604980654984403,5.0
0.3961326028669182,-0.41593157265893793,0.004565526381529571,-0.02615989290571994,-0.00573576755305835,0.1704952014243006,5.0
0.3893279261746975,-0.43936754321533456,0.06625853490316551,-0.01809048441906426,-0.04899260809815697,0.17405151732386587,5.0
0.36551155775193445,-0.45811631145571463,0.0498070683638639,-0.004799693119064839,-0.12405594858766752,0.19361124392759368,5.0
0.3519022043674958,-0.41593157265893793,0.02924272619048177,-0.005274364547071218,-0.14186760159120365,0.21939451251167952,5.0
0.3484998660213871,-0.39718280441855786,0.03746844146162223,-0.0252105500497072,-0.12214756495316094,0.2042801807824083,5.0
0.3689138960980437,-0.369059672569831,0.03335560182456261,-0.05843752829970577,-0.0979746228229636,0.19805662795816908,5.0
0.3893279261746975,-0.369059672569831,0.025129850556401212,-0.10590463781099022,-0.041359050283942315,0.19450032290248498,5.0
0.40633961790524536,-0.4018700067345747,-0.032450282331154094,-0.11872076057770953,-0.019730626132028334,0.1607153435443773,5.0
0.3689138960980437,-0.4112444113666077,0.0580327836350044,-0.14625168024426854,-0.026728057361195653,0.16960612244940929,5.0
0.35870688105971377,-0.4112444113666077,0.06214565926908496,-0.15811846015497516,-0.07443781115717832,0.18916584905313708,5.0
0.3893279261746975,-0.434680340899318,0.06214565926908496,-0.12346746906832064,-0.04326744167717835,0.126930358764329,5.0
0.40974195625135407,-0.45811631145571463,0.06214565926908496,-0.11160069494706662,0.008259092965593958,0.09403446109208294,5.0
0.3995349412130274,-0.4299931796069878,0.02924272619048177,-0.1073286520950093,0.022890084918499455,0.07980920698221788,5.0
0.3961326028669182,-0.4018700067345747,0.03335560182456261,-0.10163260074838547,-0.036270006568646304,0.1322648326136769,5.0
0.40633961790524536,-0.39718280441855786,-0.01188594015777188,-0.12679016906436522,-0.023547408918500344,0.10203616644416418,5.0
0.3995349412130274,-0.41593157265893793,-0.007773082522201812,-0.1467263574617275,0.022890084918499455,0.08514367676511034,5.0
0.3723162344441529,-0.43936754321533456,0.041581317095702786,-0.15194773738034498,0.008259092965593958,0.07980920698221788,5.0
0.38252324948247957,-0.434680340899318,0.041581317095702786,-0.13960628604163197,-0.03054484014766769,0.08603275574000166,5.0
0.3859255878285888,-0.434680340899318,0.02101699292083127,-0.14435300032169568,-0.019094499546981013,0.10737063758254178,5.0
0.3927302645208068,-0.4253059772909713,-0.01599881579185256,-0.19039609410159786,0.020981694495104623,0.10470340065786786,5.0
0.40633961790524536,-0.42061877497495437,0.012791259651180359,-0.23406584232037328,0.059149497143954254,0.06647303116950158,5.0
0.42335130963579326,-0.43936754321533456,0.008678384017099722,-0.23359116510291433,0.08141404788091558,0.11003787450721574,5.0
0.42335130963579326,-0.4628035137717312,0.004565526381529571,-0.22314840526567953,0.0566049772259886,0.14382284844338286,5.0
0.4131442945974639,-0.4956138479364745,-0.05301462450453622,-0.23359116510291433,-0.010824807388989674,0.22828530226059268,5.0
0.3723162344441529,-0.5331113844172347,-0.08591755758313925,-0.2430845820841366,-0.01845836908256902,0.24962317597022193,5.0
0.35530454271360506,-0.5987320527467213,-0.06535321540975712,-0.2084335967869347,-0.02100288706085234,0.20161294385773434,5.0
0.35530454271360506,-0.5987320527467213,-0.06535321540975712,-0.16571320300307704,-0.004463506624234345,0.15626994866992072,5.0
0.35870688105971377,-0.5987320527467213,-0.032450282331154094,-0.09830990075234088,0.012712004276795632,0.09403446109208294,5.0
0.34509752767527785,-0.5565473549736314,-0.05712748214010629,-0.05416548834237475,-0.003827376159822349,0.054025933992805315,5.0
0.34509752767527785,-0.5565473549736314,-0.05712748214010629,-0.04087469704237532,-0.023547408918500344,0.036244365677731434,5.0
0.31447648256029304,-0.46749071608774767,-0.02833742469558394,-0.03422930139237561,-0.05471778227786501,0.03268805248913646,5.0
0.32128115925251205,-0.448741947847368,-0.03656315796523469,-0.030906604291057328,-0.10497205017276623,0.026464505086837828,5.0
0.32128115925251205,-0.448741947847368,-0.03656315796523469,-0.03422930139237561,0.04133785577851227,0.030909897250324125,5.0
0.3382928509830583,-0.448741947847368,0.02101699292083127,-0.05226680371587163,0.13357671104841753,-0.032214669302404964,5.0
0.3416951893291678,-0.45342910913969814,0.0498070683638639,-0.0005276531617338315,0.02734299501739966,-0.01710033757313376,5.0
0.3416951893291678,-0.45342910913969814,0.0498070683638639,0.023205903764953108,-0.01654997768933301,0.019351875998677576,5.0
0.3995349412130274,-0.4768650796960947,-0.01188594015777188,0.018459189484889428,0.022890084918499455,0.06558395287235284,5.0
0.3927302645208068,-0.448741947847368,-0.02833742469558394,0.00421905822360355,-0.0025551171706806957,0.08425459779021903,5.0
0.3927302645208068,-0.448741947847368,-0.02833742469558394,0.002320372511578089,-0.01845836908256902,0.10114708746927288,5.0
0.4029372795591361,-0.4768650796960947,-0.048901748870455584,-0.004799693119064839,0.0566049772259886,0.07892012936281172,5.0
0.3893279261746975,-0.4909266866441443,-0.06946609104383772,-0.005749035975077581,0.12530702276979086,0.036244365677731434,5.0
0.36210921940582247,-0.46749071608774767,-0.048901748870455584,0.011339123854246494,0.13802962429930155,0.014906483835191298,5.0
0.36551155775193445,-0.4628035137717312,0.02924272619048177,0.046939457796913754,0.09031987050331891,-0.005542316321487215,5.0
0.37912091113637086,-0.45811631145571463,0.03335560182456261,0.039344720738264435,0.041973986242924276,0.008682936432892668,5.0
0.3893279261746975,-0.434680340899318,-0.003660206888121216,0.00421905822360355,0.03879333586054661,-0.021545727025649743,5.0
0.3927302645208068,-0.42061877497495437,0.012791259651180359,-0.007173047364370387,-0.014005455831684992,0.015795562810082604,5.0
0.4165466329435753,-0.4112444113666077,-0.003660206888121216,-0.04799476380377071,0.006350703512040294,0.006904778483110024,5.0
0.4165466329435753,-0.3878084408102111,0.012791259651180359,-0.09641121504031543,0.038157205396134604,-0.0135440216735685,5.0
0.3961326028669182,-0.3924956431262276,0.02101699292083127,-0.14530233738825582,0.026070734815956533,-0.023323884975432387,5.0
0.35530454271360506,-0.3878084408102111,0.00045265074744897524,-0.18327602847095492,0.06042175807277826,-0.06244333818288799,5.0
0.3519022043674958,-0.369059672569831,0.00045265074744897524,-0.21650300527359043,0.05978562760836627,-0.07577951196237655,5.0
0.3723162344441529,-0.3268749337730546,-0.02833742469558394,-0.28010894188972807,0.08395856973856358,-0.07133411708791995,5.0
0.3995349412130274,-0.3456237020134347,-0.048901748870455584,-0.3570056553322339,0.06741918930194558,-0.07933582786194184,5.0
0.3995349412130274,-0.369059672569831,-0.032450282331154094,-0.391181974990882,0.019073304071709787,-0.10600817542091898,5.0
0.3995349412130274,-0.5237370208088877,0.012791259651180359,-0.31570928162184797,-0.07125715883511827,-0.14246038085981944,5.0
0.37912091113637086,-0.5331113844172347,0.02924272619048177,-0.24023656509500366,0.013984264235778466,-0.11934434920040755,5.0
0.3689138960980437,-0.4909266866441443,0.02101699292083127,-0.14909970881230675,0.11767345719684685,-0.08555936984229989,5.0
0.40633961790524536,-0.448741947847368,-0.08591755758313925,-0.14530233738825582,0.14947996489998822,-0.0820030539427346,5.0
0.4165466329435753,-0.45811631145571463,-0.11059475739209153,-0.2169776824910492,0.23726590691900945,-0.1655764342069937,5.0
0.4165466329435753,-0.46749071608774767,-0.08591755758313925,-0.28485564459088664,0.24871625527842545,-0.29271463002152137,5.0
0.3723162344441529,-0.4065572090505912,0.0498070683638639,-0.24925530485876674,0.11194829077586822,-0.218921129324948,5.0
0.3757185727902616,-0.34093649969741785,0.041581317095702786,-0.20036418830027897,0.09540890645988555,-0.08911568574186514,5.0
0.3961326028669182,-0.33156213608907115,-0.020111691425933196,-0.23406584232037328,0.19846197186606546,-0.04288361157916019,5.0
0.3689138960980437,-0.34093649969741785,-0.06124035777418697,-0.3104878901243254,0.31996282074019333,-0.09178292266653908,5.0
0.36551155775193445,-0.39718280441855786,0.00045265074744897524,-0.30716518433882817,0.27734210290077754,-0.14868394452793984,5.0
0.3757185727902616,-0.4018700067345747,0.07859712580838657,-0.21792702534706196,0.18001421167430554,-0.14246038085981944,5.0
0.41994897128968456,-0.37843403617817806,0.05391990800092356,-0.11302470344163314,0.051515937390057276,-0.09622831754099567,5.0
0.4675814699095909,-0.37843403617817806,-0.06946609104383772,-0.08074706949501045,0.09604503692429754,-0.0775576699121592,5.0
0.42335130963579326,-0.37843403617817806,-0.08591755758313925,-0.1714092485602483,0.23090460227488938,-0.1077863333707016,5.0
0.3689138960980437,-0.44405474553135105,0.041581317095702786,-0.2264710994722714,0.28752017481391073,-0.09889554362178843,5.0
0.3689138960980437,-0.44405474553135105,0.041581317095702786,-0.1666625458590898,0.12403476184096689,-0.11578803330084228,5.0
0.3927302645208068,-0.4628035137717312,0.11561293452107008,-0.05843752829970577,-0.053445521349041,-0.08022490683683316,5.0
0.42335130963579326,-0.44405474553135105,0.00045265074744897524,0.039344720738264435,-0.10751657203041425,-0.0135440216735685,5.0
0.42335130963579326,-0.44405474553135105,0.00045265074744897524,0.028427283683570573,-0.00955254646016569,0.037133444652622756,5.0
0.4165466329435753,-0.41593157265893793,-0.05712748214010629,-0.004799693119064839,0.0858669572524349,0.036244365677731434,5.0
0.3689138960980437,-0.44405474553135105,0.00045265074744897524,0.035547349314213494,0.07696113850939623,0.04513515000470402,5.0
0.3519022043674958,-0.45811631145571463,0.02924272619048177,0.05833156049016141,0.04960754599682126,0.015795562810082604,5.0
0.3484998660213871,-0.43936754321533456,0.06625853490316551,0.11244406854617191,0.033704295539694694,0.01668464178497394,5.0
0.36551155775193445,-0.4018700067345747,0.0744842501743057,0.1380763140796105,0.031159775258038595,0.04513515000470402,5.0
0.3757185727902616,-0.3924956431262276,0.0580327836350044,0.16038586540645736,0.021617824959516627,0.07714197141302907,5.0
0.40633961790524536,-0.3643724702538145,0.06214565926908496,0.17320197659427145,0.022253954454087455,0.12248496931181302,5.0
0.3995349412130274,-0.369059672569831,0.05391990800092356,0.16987927080877424,-0.007644158946294359,0.10737063758254178,5.0
0.3757185727902616,-0.37843403617817806,0.10738718325290889,0.20832762753002704,0.012712004276795632,0.12426312726159565,5.0
0.3757185727902616,-0.3268749337730546,0.08682284107952674,0.22161842751420552,-0.014005455831684992,0.11981773238713907,5.0
0.4165466329435753,-0.2893773972922947,0.02924272619048177,0.16275921675703647,0.04960754599682126,0.1464900853680568,5.0
0.4165466329435753,-0.23313109257115444,-0.03656315796523469,0.05928090334617415,0.09031987050331891,0.12515220623648696,5.0
0.4131442945974639,-0.24250545617950148,-0.020111691425933196,-0.009546404504402226,0.14184639932704418,0.029131739300541488,5.0
0.4131442945974639,-0.2659414267358981,0.00045265074744897524,-0.057013514739368235,0.17683355159351613,-0.02954743237773103,5.0
0.3859255878285888,-0.28000299266026135,0.06214565926908496,-0.08074706949501045,0.14184639932704418,-0.0393272956795949,5.0
0.3519022043674958,-0.2706286290519146,0.09093571671360731,-0.11587273200967134,0.07759726897380825,-0.020656648050758435,5.0
0.35870688105971377,-0.2846901949762778,0.07859712580838657,-0.11777141772169683,0.08077791741650357,-0.04199453260426885,5.0
0.3689138960980437,-0.28000299266026135,0.0498070683638639,-0.10163260074838547,0.06551079790870958,0.01668464178497394,5.0
0.38252324948247957,-0.2987517609006414,0.0498070683638639,-0.07362700386436752,0.07632500804498425,0.04424607238529785,5.0
0.37912091113637086,-0.32218773145703805,0.06214565926908496,-0.04894410607179217,0.1272154141630269,0.09047814790348796,5.0
0.36210921940582247,-0.369059672569831,0.08682284107952674,0.020357875196914902,0.09986181971076956,0.07536381481873158,5.0
0.3689138960980437,-0.39718280441855786,0.09504859234768791,0.041243406450289934,0.05406045730802293,0.06914026606094781,5.0
0.3723162344441529,-0.3924956431262276,0.11972581015515059,0.13902565693562324,-0.04453970260600233,0.07269658060502793,5.0
0.37912091113637086,-0.3549981066454677,0.07859712580838657,0.1679805850967489,-0.07252941976394231,0.10114708746927288,5.0
0.40633961790524536,-0.31750052914102156,0.03746844146162223,0.17747401365687612,0.0025339226652506225,0.12959759568900298,5.0
0.4165466329435753,-0.2659414267358981,0.0498070683638639,0.15848717969443182,0.06360240651547358,0.1420446959155408,5.0
0.3995349412130274,-0.256567063127551,0.06214565926908496,0.11102006005160539,0.08077791741650357,0.13937745899086684,5.0
0.3893279261746975,-0.256567063127551,0.0498070683638639,0.025104589476978592,0.057241107690400604,0.1215958903369217,5.0
0.3859255878285888,-0.2846901949762778,0.07037137454022513,-0.03138127427170055,0.05851336667954226,0.1171505008844057,5.0
0.38252324948247957,-0.3081261655326745,0.0744842501743057,-0.03707732851305067,0.048335287007679605,0.0922563031423003,5.0
0.3893279261746975,-0.31750052914102156,0.11972581015515059,-0.019514495808357086,-0.06362360102090364,0.06825118844154164,5.0
0.4029372795591361,-0.32218773145703805,0.07859712580838657,-0.028533248598388638,-0.0706210283707063,0.06736210946665032,5.0
0.4165466329435753,-0.33624933840508764,0.0744842501743057,-0.04799476380377071,0.024162344877482287,0.05491501228995406,5.0
0.4165466329435753,-0.33156213608907115,0.07037137454022513,-0.06413358109369274,0.06996370728022892,0.09136722687837928,5.0
0.3995349412130274,-0.33624933840508764,0.08271000144246712,-0.05464015904669954,0.03306816531774299,0.09136722687837928,5.0
0.3859255878285888,-0.33624933840508764,0.09916146798176874,-0.07647502953767943,-0.029272579218843672,0.08692183471489298,5.0
0.4029372795591361,-0.33624933840508764,0.09093571671360731,-0.09641121504031543,-0.012733198782225699,0.10825971655743312,5.0
0.4165466329435753,-0.37843403617817806,0.0580327836350044,-0.09451253222301624,0.03497655549867753,0.10292524541905551,5.0
0.3927302645208068,-0.3596852679377979,0.0744842501743057,-0.1087526663790284,0.11449281263351624,0.05491501228995406,5.0
0.36210921940582247,-0.3456237020134347,0.11150005888698948,-0.09213917797771069,0.0559688467615766,0.055804090756538444,5.0
0.3723162344441529,-0.3503109043294512,0.08271000144246712,-0.07457634672038026,-0.010824807388989674,0.06647303116950158,5.0
0.3689138960980437,-0.3596852679377979,0.02101699292083127,-0.1073286520950093,0.05406045730802293,0.06380579627805535,5.0
0.3689138960980437,-0.3456237020134347,0.03746844146162223,-0.14055562889764475,0.11067602984704422,0.03179897351424515,5.0
0.3689138960980437,-0.3456237020134347,0.03746844146162223,-0.1709345829216945,0.07696113850939623,-0.0002078478940799232,5.0
0.36210921940582247,-0.3268749337730546,0.0744842501743057,-0.14862504317375297,0.010803614823241972,0.006015699508218716,5.0
0.3757185727902616,-0.3128133678486914,0.09916146798176874,-0.15432108873092423,-0.020366756596440324,0.026464505086837828,5.0
0.3757185727902616,-0.3128133678486914,0.09916146798176874,-0.16998524006568178,-0.034361619054774986,0.030909897250324125,5.0
0.4029372795591361,-0.38312123849419455,0.03746844146162223,-0.18375070568841387,-0.012097068317813688,0.014017407571270273,5.0
0.3995349412130274,-0.3878084408102111,0.0580327836350044,-0.18090267712037567,0.011439743347971626,-0.0028750848187538763,5.0
0.3995349412130274,-0.3878084408102111,0.0580327836350044,-0.13580892040703363,-0.03690613703305831,-0.01710033757313376,5.0
0.3995349412130274,-0.3549981066454677,0.0498070683638639,-0.09451253222301624,-0.10179140560943561,0.03357713146402778,5.0
0.4029372795591361,-0.33624933840508764,0.008678384017099722,-0.09356318936700352,-0.036270006568646304,0.06202763934488658,5.0
0.41994897128968456,-0.3128133678486914,-0.020111691425933196,-0.1315368775549763,0.05978562760836627,0.09314538211719159,5.0
0.40633961790524536,-0.34093649969741785,0.06214565926908496,-0.13960628604163197,0.05978562760836627,0.09047814790348796,5.0
0.3927302645208068,-0.3643724702538145,0.0580327836350044,-0.12631549763635885,0.033704295539694694,0.028242660325650162,5.0
0.3689138960980437,-0.369059672569831,0.05391990800092356,-0.11824608914970318,0.04897141553240926,0.0015703100557027223,5.0
0.3519022043674958,-0.3456237020134347,0.041581317095702786,-0.07267766100835478,0.0858669572524349,0.02113003394846022,5.0
0.3519022043674958,-0.369059672569831,0.0744842501743057,0.04266742073430903,0.05342432684361094,0.0629167179809066,5.0
0.3689138960980437,-0.37374687488584785,0.09916146798176874,0.12431084845687844,-0.028000318290019664,0.13315391158856824,5.0
0.40633961790524536,-0.3549981066454677,0.012791259651180359,0.1105453828341464,-0.02736418782560767,0.13671022206619288,5.0
0.40633961790524536,-0.38312123849419455,-0.02833742469558394,0.06355295198768404,0.003170053129662636,0.08247644255140668,5.0
0.3961326028669182,-0.4018700067345747,0.012791259651180359,0.08111577745556191,-0.06807651427178765,0.05313685569565657,5.0
0.40633961790524536,-0.3878084408102111,0.02101699292083127,0.11956413417681483,-0.19593865227257695,0.05936040428400471,5.0
0.42335130963579326,-0.37843403617817806,-0.044788891234885476,0.14092434264764875,-0.14632050708335823,0.1518245537954641,5.0
0.42335130963579326,-0.33156213608907115,-0.02833742469558394,0.0963052515728605,0.004442314058486649,0.1420446959155408,5.0
0.4165466329435753,-0.31750052914102156,-0.02833742469558394,0.07447037746347275,-0.034997749519186994,0.13937745899086684,5.0
0.3995349412130274,-0.3596852679377979,0.02101699292083127,0.05785689485160763,-0.08079910804256892,-0.003764158371704579,5.0
0.36551155775193445,-0.39718280441855786,0.041581317095702786,0.05405952342755668,-0.0381783979618823,-0.11489895432595096,5.0
0.3348905126369493,-0.33624933840508764,0.008678384017099722,0.030800640823602413,0.054696585832752595,-0.12823513894932073,5.0
0.3519022043674958,-0.256567063127551,0.02924272619048177,-0.0038503502630521146,0.1507522258288122,-0.11578803330084228,5.0
0.38252324948247957,-0.2612542244198813,0.02924272619048177,-0.07600035810967307,0.07505274711616022,-0.001096926868971231,5.0
0.40633961790524536,-0.32218773145703805,0.045694192729783346,-0.075525689576393,-0.01654997768933301,0.08869998995370533,5.0
0.43355808644849786,-0.4018700067345747,0.0580327836350044,-0.043248052735044014,0.007622964440864304,0.13582114309130158,5.0
0.3961326028669182,-0.4299931796069878,0.11150005888698948,0.046939457796913754,0.0158926546591733,0.12870851671411165,5.0
0.32468349759862103,-0.3081261655326745,0.18553167631235673,0.12193749710629914,-0.10624431110159024,0.10381432168297654,5.0
0.30767204409369736,-0.21438232433077456,0.16085445850489397,0.149943082411412,-0.21947545617963274,0.20161294385773434,5.0
0.34509752767527785,-0.17688476733817132,0.0744842501743057,0.038395377882251724,-0.12914499230296356,0.20072386488284302,5.0
0.34509752767527785,-0.17688476733817132,0.0744842501743057,-0.07077897674369246,-0.03054484014766769,0.14737916434294812,5.0
0.3757185727902616,-0.32218773145703805,0.02101699292083127,-0.1557451088043959,0.057877236215130246,0.054025933992805315,5.0
0.3757185727902616,-0.32218773145703805,0.02101699292083127,-0.0460960793129579,0.019073304071709787,-0.001096926868971231,5.0
0.4029372795591361,-0.3878084408102111,0.08682284107952674,-0.009071733076395864,-0.01654997768933301,0.017573720759865245,5.0
0.4131442945974639,-0.37374687488584785,0.07037137454022513,0.014187152422284703,-0.02227514798967633,-0.004653237346595917,5.0
0.4403627631407164,-0.39718280441855786,-0.020111691425933196,0.003269715367590814,0.04133785577851227,-0.009098632221052505,5.0
0.4403627631407164,-0.41593157265893793,-0.048901748870455584,-0.006223707403083938,0.1501160953644002,0.010461094382675305,5.0
0.38252324948247957,-0.434680340899318,0.004565526381529571,0.01656050956231654,0.09986181971076956,-0.0286583534028397,5.0
0.35530454271360506,-0.4065572090505912,0.008678384017099722,0.04551544351289466,0.036884945437151775,-0.015322179623351114,5.0
0.3519022043674958,-0.3549981066454677,-0.02833742469558394,0.04504077208488828,0.04960754599682126,-0.021545727025649743,5.0
0.34509752767527785,-0.33624933840508764,0.008678384017099722,0.04741412922492011,0.08205017834532756,0.0006812310808114147,5.0
0.3689138960980437,-0.3456237020134347,0.016904117286750384,0.046939457796913754,0.09986181971076956,0.04513515000470402,5.0
0.40633961790524536,-0.3549981066454677,0.03746844146162223,0.045990114940901015,0.07568887758057224,0.05046962046533905,5.0
0.41994897128968456,-0.3643724702538145,0.0498070683638639,0.06545162612080435,-0.015913847224921014,0.10114708746927288,5.0
0.4267534097562799,-0.3643724702538145,-0.003660206888121216,0.029376626539583308,-0.06171520962766763,0.13315391158856824,5.0
0.40633961790524536,-0.32218773145703805,-0.04067601560080484,0.016085838134310176,-0.010188676924577679,0.1349320641164103,5.0
0.40633961790524536,-0.33624933840508764,-0.03656315796523469,-0.0275839057423759,0.08395856973856358,0.09047814790348796,5.0
0.3995349412130274,-0.3268749337730546,-0.007773082522201812,-0.015717127279032427,0.11512894309792823,0.09670169530578657,5.0
0.38252324948247957,-0.2893773972922947,0.02101699292083127,-0.022362524376395288,0.0871392181812589,0.09670169530578657,5.0
0.3893279261746975,-0.2659414267358981,0.02924272619048177,-0.04277338166887844,0.027979124996891074,0.09136722687837928,5.0
0.3859255878285888,-0.256567063127551,0.02101699292083127,-0.07647502953767943,-0.005099637088646355,0.11092694806016648,5.0
0.3995349412130274,-0.2706286290519146,0.03335560182456261,-0.07647502953767943,-0.007008028481882363,0.10025801120535185,5.0
0.4029372795591361,-0.3081261655326745,0.008678384017099722,-0.09641121504031543,-0.034997749519186994,0.08514367676511034,5.0
0.40974195625135407,-0.3268749337730546,-0.020111691425933196,-0.09166450654970433,-0.00573576755305835,0.07002934503583913,5.0
0.41994897128968456,-0.37843403617817806,-0.007773082522201812,-0.07172831959970519,0.041973986242924276,0.061138561047737836,5.0
0.4029372795591361,-0.3643724702538145,-0.032450282331154094,-0.06223489682903042,0.08523082678802289,0.022019112923351552,5.0
0.37912091113637086,-0.3456237020134347,-0.007773082522201812,-0.0460960793129579,0.10177021110400557,0.04246791443551522,5.0
0.3757185727902616,-0.32218773145703805,0.008678384017099722,-0.053216146210043586,0.11194829077586822,0.01312832859637897,5.0
0.35870688105971377,-0.3268749337730546,0.016904117286750384,-0.0646082525216991,0.11322055170469222,0.0024593890305940197,5.0
0.3689138960980437,-0.3456237020134347,0.02101699292083127,-0.075525689576393,0.1278515446274389,0.02379726816216388,5.0
0.38252324948247957,-0.3549981066454677,-0.01188594015777188,-0.11397404629764585,0.13230445011959352,0.051358698762487796,5.0
0.3859255878285888,-0.3643724702538145,-0.020111691425933196,-0.1286888547763907,0.16220255867076946,0.05224777705963654,5.0
0.37912091113637086,-0.32218773145703805,0.07859712580838657,-0.14055562889764475,0.12467089230537888,0.09670169530578657,5.0
0.35530454271360506,-0.28000299266026135,0.12383864979221021,-0.09783522932433453,-0.029272579218843672,0.22828530226059268,5.0
0.35870688105971377,-0.27531583136793114,0.11150005888698948,-0.08122174092301682,-0.21120576790100612,0.3856521615336629,5.0
0.38252324948247957,-0.3128133678486914,0.07859712580838657,-0.04134936847038169,-0.264640680359238,0.414102688730185,5.0
0.3995349412130274,-0.3596852679377979,0.07037137454022513,0.008016429647654495,-0.24937358024826764,0.33586378231527375,5.0
0.38252324948247957,-0.3878084408102111,0.008678384017099722,0.035547349314213494,-0.2188393334739501,0.16693888552473532,5.0
0.38252324948247957,-0.3596852679377979,-0.02833742469558394,-0.004325021691058477,-0.03690613703305831,-0.035770979780029646,5.0
0.3927302645208068,-0.31750052914102156,0.00045265074744897524,-0.0460960793129579,0.07314435960228893,-0.1104535702953756,5.0
0.43355808644849786,-0.27531583136793114,0.004565526381529571,-0.08691779516436694,0.1507522258288122,-0.10423001747113635,5.0
0.43696042479460656,-0.2893773972922947,-0.03656315796523469,-0.14245431460967017,0.13930188522812556,-0.11134264927026688,5.0
0.43355808644849786,-0.3128133678486914,-0.003660206888121216,-0.2065349110749092,0.1723806461013615,-0.08022490683683316,5.0
0.43355808644849786,-0.3128133678486914,-0.003660206888121216,-0.23976188787754465,0.22645169678273477,-0.06333241715777933,5.0
0.3859255878285888,-0.3549981066454677,0.0498070683638639,-0.25067932493223843,0.23281300142685477,-0.10334093849624507,5.0
0.3757185727902616,-0.37843403617817806,0.016904117286750384,-0.23121781375233522,0.14629931257792816,-0.09089384369164777,5.0
0.3757185727902616,-0.37843403617817806,0.016904117286750384,-0.20511090258034267,0.1278515446274389,-0.1389040649602542,5.0
0.3995349412130274,-0.434680340899318,-0.02833742469558394,-0.18897208560703133,0.16474708052841747,-0.1700218182375691,5.0
0.3757185727902616,-0.4253059772909713,-0.06535321540975712,-0.16191583157902611,0.1736529070301855,-0.15846380240786315,5.0
0.3757185727902616,-0.4253059772909713,-0.06535321540975712,-0.16618786864163082,0.13484897197724152,-0.09356108061632172,5.0
0.36551155775193445,-0.33156213608907115,-0.04067601560080484,-0.18232668561494214,0.1081315079893962,0.020240954973568908,5.0
0.3757185727902616,-0.33624933840508764,0.004565526381529571,-0.19324412266963603,0.10495086342606559,0.1420446959155408,5.0
0.3757185727902616,-0.33624933840508764,0.004565526381529571,-0.14862504317375297,-0.033089358125950985,0.275406455398189,5.0
0.3416951893291678,-0.33624933840508764,0.09504859234768791,-0.10495529495497746,-0.1736740937768862,0.30118973482615596,5.0
0.32808583594473056,-0.3596852679377979,0.06214565926908496,-0.06270956825703679,-0.2799078115051262,0.3189712926362199,5.0
0.34509752767527785,-0.3549981066454677,0.06625853490316551,-0.0252105500497072,-0.23219804995041407,0.2433996339898639,5.0
0.3757185727902616,-0.3456237020134347,0.00045265074744897524,-0.02283719580440165,-0.13232565238375296,0.20961465463175621,5.0
0.4165466329435753,-0.3456237020134347,-0.06535321540975712,-0.07410167529237388,-0.008916415995753674,0.18116413827911523,5.0
0.4267534097562799,-0.3596852679377979,-0.06535321540975712,-0.08074706949501045,0.042610115737495104,0.11626142190951438,5.0
0.42335130963579326,-0.3456237020134347,-0.01599881579185256,-0.07172831959970519,0.10177021110400557,0.08958906892859662,5.0
0.41994897128968456,-0.33156213608907115,0.00045265074744897524,-0.07267766100835478,0.11894571812567083,0.0629167179809066,5.0
0.4131442945974639,-0.33624933840508764,0.012791259651180359,-0.10305661503240456,0.1908284218105802,0.030909897250324125,5.0
0.40633961790524536,-0.3503109043294512,0.02924272619048177,-0.13960628604163197,0.16220255867076946,-0.04377269055405151,5.0
0.37912091113637086,-0.37843403617817806,0.045694192729783346,-0.1025819436043982,0.08459470020297559,-0.030436511352622327,5.0
0.36551155775193445,-0.3878084408102111,0.08271000144246712,-0.057488186167374604,0.10876763845380821,-0.019767569075867138,5.0
0.3893279261746975,-0.3456237020134347,0.041581317095702786,-0.03802667064538184,0.17874195074548155,-0.006431395296378552,5.0
0.40633961790524536,-0.24250545617950148,0.008678384017099722,-0.10068325789237272,0.18319485623763618,0.06736210946665032,5.0
0.3859255878285888,-0.1909463537743779,-0.020111691425933196,-0.1623904972175799,0.2118207038599881,0.08958906892859662,5.0
0.3689138960980437,-0.22375670845096468,0.02101699292083127,-0.19941484544426627,0.20291489287567888,0.08425459779021903,5.0
0.35870688105971377,-0.3081261655326745,0.07859712580838657,-0.16333984007359262,0.08395856973856358,0.009572015407783997,5.0
0.36210921940582247,-0.3456237020134347,0.08271000144246712,-0.09878457218034727,-0.005099637088646355,-0.049107153559518245,5.0
0.35530454271360506,-0.32218773145703805,0.06214565926908496,-0.08074706949501045,0.01207587381238363,-0.07311227503770261,5.0
0.3689138960980437,-0.27531583136793114,0.045694192729783346,-0.08786713802037968,0.0566049772259886,-0.0677778011883547,5.0
0.3689138960980437,-0.256567063127551,0.02924272619048177,-0.1258408262083525,0.04579076611987277,0.008682936432892668,5.0
0.3519022043674958,-0.2518798608115345,0.09093571671360731,-0.13485957755102088,0.036884945437151775,0.06647303116950158,5.0
0.32128115925251205,-0.2518798608115345,0.09504859234768791,-0.13723293469105274,-0.020366756596440324,0.1518245537954641,5.0
0.32468349759862103,-0.2659414267358981,0.09093571671360731,-0.15479576594838315,-0.08334362990021696,0.21672727558700555,5.0
0.32468349759862103,-0.28000299266026135,0.09093571671360731,-0.1709345829216945,-0.12596434773963294,0.2238399073861361,5.0
0.3382928509830583,-0.3456237020134347,0.11150005888698948,-0.14482767174970204,-0.17049344921355555,0.2149491176372229,5.0
0.34509752767527785,-0.3878084408102111,0.09916146798176874,-0.06413358109369274,-0.2131141670529716,0.24251054417109139,5.0
0.3757185727902616,-0.44405474553135105,0.09093571671360731,0.024155246620965846,-0.30026398636631024,0.32786208238513315,5.0
0.3893279261746975,-0.46749071608774767,0.02101699292083127,0.06545162612080435,-0.3479737168861046,0.40610096711228183,5.0
0.3893279261746975,-0.4768650796960947,-0.007773082522201812,0.09867861450234493,-0.35815180431669663,0.4469985999572827,5.0
0.41994897128968456,-0.500301050252491,-0.024224549061503304,0.09440656586083501,-0.33270661677513425,0.43721872038959675,5.0
0.47098380825570013,-0.5565473549736314,-0.05712748214010629,0.10912137433957986,-0.28690525437238756,0.374094145703957,5.0
0.4948001766784654,-0.5612345572896478,-0.05712748214010629,0.1456710453488072,-0.24046773822904063,0.31452590860564456,5.0
0.49820251502457463,-0.5659217596056644,-0.06946609104383772,0.16560723374616954,-0.16794892735590755,0.22472898636102742,5.0
0.4811908232940262,-0.4909266866441443,-0.09825614848836012,0.1371269712235979,-0.028000318290019664,0.2113928125815388,5.0
0.43696042479460656,-0.4112444113666077,-0.11470761502766164,0.06640096897681708,0.12467089230537888,0.10737063758254178,5.0
0.4131442945974639,-0.3596852679377979,-0.0776918243134885,0.040294063594277174,0.1711083851725375,0.06024948275058909,5.0
0.3961326028669182,-0.3456237020134347,-0.048901748870455584,-0.02283719580440165,0.16856386331488946,0.028242660325650162,5.0
0.3893279261746975,-0.32218773145703805,-0.03656315796523469,-0.06555759537771184,0.21881813120979077,0.007793857458001361,5.0
0.3689138960980437,-0.33156213608907115,-0.01599881579185256,-0.08501910945234147,0.19909811008920683,-0.0002078478940799232,5.0
0.36210921940582247,-0.3081261655326745,0.012791259651180359,-0.09783522932433453,0.11067602984704422,0.03179897351424515,5.0
0.36210921940582247,-0.33624933840508764,-0.007773082522201812,-0.05226680371587163,0.07187209867346493,0.0975907742806779,5.0
0.3689138960980437,-0.3456237020134347,-0.03656315796523469,-0.060336212564368094,0.10240634156841757,0.13048667466389427,5.0
0.3757185727902616,-0.38312123849419455,-0.06535321540975712,-0.08549378088034784,0.08268630880973958,0.12426312726159565,5.0
0.3723162344441529,-0.369059672569831,-0.05712748214010629,-0.06508292394970548,0.02734299501739966,0.06825118844154164,5.0
0.35870688105971377,-0.2659414267358981,-0.05712748214010629,-0.16144115436156714,-0.026091926896783656,0.004237546980376665,5.0
0.43696042479460656,-0.23313109257115444,-0.06535321540975712,-0.3152345928254839,0.05851336667954226,-0.04199453260426885,5.0
0.4879954999862474,-0.3268749337730546,-0.02833742469558394,-0.3589043410442593,0.21372910301195353,0.022019112923351552,5.0
0.4437651014868251,-0.4628035137717312,0.045694192729783346,-0.25447669635628944,0.2919730803060653,0.11537234293462308,5.0
0.3689138960980437,-0.4909266866441443,0.11972581015515059,-0.18612405703899312,0.22199879129058012,0.0922563031423003,5.0
0.3689138960980437,-0.5331113844172347,0.11150005888698948,-0.14435300032169568,0.24235495063430554,0.13848838001597555,5.0
0.3927302645208068,-0.5424857890492677,0.09093571671360731,-0.10827799495102206,0.19591745000841743,0.157159027644812,5.0
0.3859255878285888,-0.4628035137717312,0.041581317095702786,-0.10685398066700295,0.1456631821135162,0.1900549280280284,5.0
0.3519022043674958,-0.3878084408102111,-0.007773082522201812,-0.19656681687622807,0.14693544304234019,0.12426312726159565,5.0
0.34509752767527785,-0.369059672569831,0.0580327836350044,-0.28343162451741494,0.1723806461013615,0.07180750163013662,5.0
0.3416951893291678,-0.4018700067345747,0.09093571671360731,-0.3052664986268026,0.12403476184096689,0.008682936432892668,5.0
0.35530454271360506,-0.448741947847368,0.08271000144246712,-0.24593262223107998,0.1068592470605722,-0.04110545362937755,5.0
0.35530454271360506,-0.45811631145571463,0.09916146798176874,-0.14245431460967017,0.07378048618733622,-0.035770979780029646,5.0
0.3757185727902616,-0.44405474553135105,0.07859712580838657,-0.05464015904669954,0.015256524194761294,0.012239249621487638,5.0
0.3893279261746975,-0.434680340899318,0.0498070683638639,-0.0010023245897401887,0.023526214897990873,0.05669316913840501,5.0
0.37912091113637086,-0.4253059772909713,0.03335560182456261,0.004693729651609929,0.050879806925645275,0.07358565822443411,5.0
0.38252324948247957,-0.42061877497495437,0.0498070683638639,0.008016429647654495,-0.008280285531341677,0.0469133065990015,5.0
0.3859255878285888,-0.43936754321533456,0.07037137454022513,0.03792070645424535,-0.020366756596440324,0.05669316913840501,5.0
0.3859255878285888,-0.43936754321533456,0.07037137454022513,0.040294063594277174,0.01843717457713896,0.0629167179809066,5.0
0.3927302645208068,-0.4112444113666077,0.03746844146162223,0.03981939216627082,0.01843717457713896,0.055804090756538444,5.0
0.3723162344441529,-0.3924956431262276,0.07037137454022513,0.039344720738264435,-0.02481966984732435,0.025575426111946527,5.0
0.3927302645208068,-0.41593157265893793,0.041581317095702786,0.052635514932990166,-0.007644158946294359,0.06825118844154164,5.0
0.3927302645208068,-0.4299931796069878,0.03335560182456261,0.06545162612080435,0.0559688467615766,0.08603275574000166,5.0
0.3961326028669182,-0.45811631145571463,0.0580327836350044,0.08538781451816663,0.06551079790870958,0.07892012936281172,5.0
0.3961326028669182,-0.45811631145571463,0.0580327836350044,0.1043746600595162,0.041973986242924276,0.0015703100557027223,5.0
0.3519022043674958,-0.4112444113666077,0.0498070683638639,0.12620953416890396,-0.08207136897139292,-0.0002078478940799232,5.0
0.35530454271360506,-0.3549981066454677,0.0498070683638639,0.0768437403929572,-0.06744038380737567,0.07536381481873158,5.0
0.43696042479460656,-0.33624933840508764,0.008678384017099722,0.021307218052927627,0.08841147911008289,0.029131739300541488,5.0
0.4267534097562799,-0.37843403617817806,0.06214565926908496,0.043142092162315404,0.08777534864567091,-0.00732047427126986,5.0
