acc_x,acc_y,acc_z,gyro_x,gyro_y,gyro_z,activity
-0.8077762375406639,0.6553942443744436,1.995495648735879,-0.1778318086397632,0.08484711222678092,0.08506011933513019,0.0
-0.8140677796006223,0.6808569150738573,2.010851021525791,-0.14096246723163747,0.15102831281673906,0.12410005632962474,0.0
-0.8077762375406639,0.6723693457931281,1.9993344919333569,-0.1540300817368078,0.135693645107641,0.1536180518065929,0.0
-0.8077762375406639,0.6723693457931281,1.9993344919333569,-0.1540300817368078,0.135693645107641,0.1536180518065929,0.0
-0.8423797188704346,0.6893444472118129,1.9532683735636212,-0.1470295739915926,0.09049672535067749,0.1583790225653561,0.0
-0.8172135506306014,0.6808569150738573,1.957107216761099,-0.15449678222943783,0.02189426726683185,0.06411186251367441,0.0
-0.8109220085706431,0.6893444472118129,1.995495648735879,-0.174098204698723,0.08404002393451993,0.004123671601144541,0.0
-0.8077762375406639,0.6808569150738573,1.995495648735879,-0.20070013598051786,0.10421722139718392,-0.013015811516721144,0.0
-0.8140677796006223,0.6553942443744436,1.980140275945967,-0.18436561767117252,0.0719337093944658,0.04030702468867095,0.0
-0.8077762375406639,0.6384191429557591,2.003173335130835,-0.1521632797662877,0.061441566517003346,0.04792457209585116,0.0
-0.8077762375406639,0.6384191429557591,2.003173335130835,-0.1586970871967553,0.05902030656215068,0.09362986089406304,0.0
-0.8235050926905597,0.6214440415370743,2.049239453500571,-0.1540300817368078,0.06789826793316088,0.11743469726735628,0.0
-0.8014848056113256,0.6129565093991185,2.0338840807106586,-0.18436561767117252,0.04126437397626968,0.044115798392261055,0.0
-0.8140677796006223,0.6214440415370743,2.026206394315703,-0.1703646007576828,0.05256360268502798,0.05554212095474157,0.0
-0.8140677796006223,0.6214440415370743,2.026206394315703,-0.17923191118494775,0.00817377583463511,0.04125921811456848,0.0
-0.8172135506306014,0.6214440415370743,1.9839791191434448,-0.21936815853183747,0.01059503909640968,0.044115798392261055,0.0
-0.8172135506306014,0.6214440415370743,1.9839791191434448,-0.1908994238564632,0.013823390189014262,0.04792457209585116,0.0
-0.8297966347505181,0.6469067122364877,1.9993344919333569,-0.1264947494697529,0.049335251976949206,0.054589926802988936,0.0
-0.8297966347505181,0.6044689401183897,2.026206394315703,-0.10782672976455195,0.1494141362322171,0.08791670179038812,0.0
-0.8235050926905597,0.6384191429557591,2.0146898647232687,-0.07655778999880852,0.12600858560050918,0.00698025115298201,0.0
-0.8392339478404556,0.6893444472118129,2.018528707920747,-0.11016023116040756,0.08646128881130288,-0.031107491689759896,0.0
-0.8297966347505181,0.6978320164925413,1.9878179623409231,-0.16476419413459284,0.10583139798170586,0.013645605860119798,0.0
-0.8297966347505181,0.6469067122364877,2.0146898647232687,-0.19323292809843748,0.12278023243146524,-0.015872391068558617,0.0
-0.8297966347505181,0.6978320164925413,1.9993344919333569,-0.16336409230093796,0.1582920976032273,0.046972379395808735,0.0
-0.8360881768104763,0.6384191429557591,2.0607559830930047,-0.1264947494697529,0.35844987595762373,0.08410792518337756,0.0
-0.8360881768104763,0.6384191429557591,2.0569171398955266,-0.09429241085333842,0.3665207391925122,0.1031517966047485,0.0
-0.8455254899004137,0.6384191429557591,2.022367551118225,-0.0896254080616272,0.38750501510357666,0.022215347419052636,0.0
-0.8706915480096269,0.6384191429557591,2.018528707920747,-0.10362642212899822,0.29630410698510995,0.0279285087002929,0.0
-0.8581085740203304,0.6299316108178029,2.010851021525791,-0.07795789254399309,0.28177651772441215,0.006028057001229376,0.0
-0.8518170319603721,0.6299316108178029,2.018528707920747,-0.09102551060681177,0.27047730132047965,-0.015872391068558617,0.0
-0.8612542349196893,0.6469067122364877,1.9647849031560551,-0.06068997253785804,0.18654017798850112,0.015549992711914849,0.0
-0.8518170319603721,0.6384191429557591,1.980140275945967,-0.04062185313359119,0.17362676531232532,0.053637734102946526,0.0
-0.8895661741895019,0.6808569150738573,1.9532683735636212,-0.003285808030951948,0.16474880394131516,0.017454379563709897,0.0
-0.8801288610995646,0.6893444472118129,2.010851021525791,-0.0410885482897487,0.019473004235772768,0.034593863498162576,0.0
-0.8455254899004137,0.7232946500491823,2.018528707920747,-0.07515769314586129,0.0033312494648963004,0.03745044404805082,0.0
-0.8581085740203304,0.7402697886106393,1.9878179623409231,-0.10549322552257766,0.06951244451768285,0.10219960245299589,0.0
-0.8769830900695853,0.7317822193299107,1.9993344919333569,-0.10782672976455195,0.18008347165041322,0.13552637453697458,0.0
-0.8769830900695853,0.7996826250046497,1.995495648735879,-0.15823038661518407,0.06386283139378628,0.18789701804232428,0.0
-0.8549628029903511,0.782707486443192,1.991656805538401,-0.16009718885252777,0.009787951342484823,0.2059886953119426,0.0
-0.826650863720539,0.7572448528865517,2.045400610303093,-0.141429166656973,0.017858828881733377,0.2783553927767341,0.0
-0.8612542349196893,0.7996826250046497,2.026206394315703,-0.13862896441272252,0.021087180205053447,0.2850207634526843,0.0
-0.8644000059496688,0.782707486443192,2.007012178328313,-0.12182774383192299,-0.05639324540221527,0.28216416938374467,0.0
-0.8235050926905597,0.782707486443192,2.0146898647232687,-0.1778318086397632,-0.07576334965068793,0.2478852031480133,0.0
-0.8203593216605805,0.7911950557239206,2.0338840807106586,-0.2651048075211095,-0.06607829998741677,0.185992629738819,0.0
-0.8077762375406639,0.7402697886106393,2.010851021525791,-0.36171183190870904,-0.005546716212802917,0.1412395394474904,0.0
-0.8297966347505181,0.7317822193299107,1.980140275945967,-0.40838187121029595,0.03642184668366893,0.1279088271297944,0.0
-0.8581085740203304,0.7317822193299107,1.9763014327484891,-0.3822466464691333,0.03965019739174771,0.09172547259055777,0.0
-0.8360881768104763,0.6638818136551723,2.030045237513181,-0.21423444919949403,-0.06365703511063381,0.044115798392261055,0.0
-0.8140677796006223,0.6214440415370743,2.026206394315703,-0.12416124807389728,-0.2089328292790046,0.10791276155667083,0.0
-0.8235050926905597,0.5450560665816071,1.9647849031560551,-0.061623374234647754,-0.20328322107703836,0.15647463426185082,0.0
-0.8612542349196893,0.595981370837661,1.87649177840297,-0.076091094842651,-0.27753528490188495,0.24312424400293187,0.0
-0.8518170319603721,0.595981370837661,1.907202523982794,-0.04062185313359119,-0.39859844999014754,0.29073392836320017,0.0
-0.8077762375406639,0.6723693457931281,1.991656805538401,-0.03175454270632624,-0.40344096005599217,0.2840685576872499,0.0
-0.8172135506306014,0.6808569150738573,2.018528707920747,-0.11202703455398699,-0.4147402158353673,0.3040646232603735,0.0
-0.7951932635513672,0.6553942443744436,1.9993344919333569,-0.34211039627612483,-0.38891339048301576,0.2659768804176316,0.0
-0.832942405780497,0.6299316108178029,1.9532683735636212,-0.5292573055610039,-0.2767282064534846,0.24312424400293187,0.0
-0.8518170319603721,0.6214440415370743,1.9225578967727062,-0.662733645741661,0.007366688157615418,0.1640921874758719,0.0
-0.873837319039606,0.595981370837661,1.8803306216004483,-0.6604001471919241,0.26240641839786977,-0.007302652413046218,0.0
-0.8612542349196893,0.5620311680002918,1.8995248375878382,-0.4667194487984665,0.5465013200842448,-0.44435949224256416,0.0
-0.8109220085706431,0.4516930273502281,1.949429530366143,-0.31177485820717116,0.7063046641378707,-0.6386069598359205,0.0
-0.7511525792622792,0.34984240026673397,1.930235583167662,-0.3855135581001345,0.9984704487468555,-0.8223803266010435,0.0
-0.7574440111916174,0.34135484955739165,1.8918471511928823,-0.4895877619086278,0.6724069755506308,-0.701451704169504,0.0
-0.7951932635513672,0.4262303566508148,2.007012178328313,-0.34771080645686314,-0.2040902995254387,-0.4624511462848191,0.0
-0.7951932635513672,0.4262303566508148,2.007012178328313,-0.17596500666924308,-0.22184624195518038,-0.419602421069632,0.0
-0.7951932635513672,0.46018055948818404,2.0645948262904827,-0.14096246723163747,-0.0693066482345304,-0.4243634266694405,0.0
-0.7763186373714923,0.46018055948818404,2.0569171398955266,-0.2025669365279786,-0.024916821691758163,-0.5024432774310661,0.0
-0.8172135506306014,0.46018055948818404,2.0607559830930047,-0.2753722261857963,0.051756514392766975,-0.6043279703728259,0.0
-0.8423797188704346,0.4177428245128588,2.09146645988392,-0.27443882448900664,-0.03944440110859524,-0.627180630014889,0.0
-0.8612542349196893,0.3753050523947609,2.106821832673832,-0.2165679534414683,-0.04590110252475279,-0.6871688267342597,0.0
-0.9052950293393978,0.34135484955739165,2.1029829894763536,-0.0849583995776786,0.11632353593723803,-0.768105225110098,0.0
-0.8832746321295438,0.30740464672002243,2.1260160486612216,0.09425459528448775,0.269670203184358,-0.9271216136117426,0.0
-0.8675457769796479,0.34135484955739165,2.095305303081398,0.10638882872722889,0.41010348728688417,-1.048050143133828,0.0
-0.9052950293393978,0.35832995097607634,2.106821832673832,0.005114795855680793,0.37620579869964416,-1.092803233425157,0.0
-0.9052950293393978,0.35832995097607634,2.106821832673832,-0.098959419337287,0.2398079659022835,-0.9890141754072552,0.0
-0.9273153164186317,0.4177428245128588,2.0799499302914857,-0.08542510042607346,0.31325295127872976,-0.9452132211992705,0.0
-0.9398984005385483,0.34135484955739165,2.030045237513181,-0.134895359048623,0.4649854517851885,-0.9804443932004364,0.0
-0.8990034872794392,0.25647934246396853,1.941751843971187,-0.255770801937687,0.39880423150750904,-0.9585439625511709,0.0
-0.8612542349196893,0.34984240026673397,2.122177205463744,0.18199430924482235,0.7022692325204263,-1.0432891839887468,0.0
-0.8612542349196893,0.34984240026673397,2.122177205463744,0.18199430924482235,0.7022692325204263,-1.0432891839887468,0.0
-0.8612542349196893,0.34984240026673397,2.122177205463744,0.18199430924482235,0.7022692325204263,-1.0432891839887468,0.0
-0.8172135506306014,0.5620311680002918,2.210470330216829,0.33460540128638067,0.7870134539885266,-1.047098007050484,0.0
-0.8360881768104763,0.6384191429557591,2.202792643821873,0.2767345188543677,0.8435095753836316,-1.0166277941943997,0.0
-0.8518170319603721,0.6638818136551723,2.16824332383348,0.13859115880528733,0.6966196440061817,-0.7033561157003727,0.0
-0.8612542349196893,0.6214440415370743,2.1260160486612216,-0.0046859048838991686,0.5561863795913765,-0.4710208820369109,0.0
-0.8675457769796479,0.5620311680002918,2.037722923908137,-0.09989282103407672,0.5230957694525369,-0.2072632994340207,0.0
-0.9052950293393978,0.5026183316062819,2.0338840807106586,-0.17736510921442766,0.3503789733472926,0.12029127972261419,0.0
-0.93360685847859,0.44320545806949946,2.037722923908137,-0.22216835792996928,0.19864649252855524,0.4002361745189809,0.0
-0.93360685847859,0.5195934330249667,2.0146898647232687,-0.2674383174553211,0.13488655681538006,0.60686215447144,0.0
-0.9619187977484025,0.6638818136551723,2.026206394315703,-0.30384094947669593,0.19299686463886767,0.8753806962194117,0.0
-0.9524814846584648,0.7402697886106393,2.0645948262904827,-0.2982405506804323,0.6457731111253215,1.1020028346544481,0.0
-0.993376397917574,0.7063195857732705,2.049239453500571,-0.229635571504287,0.7983127097679017,1.3467164877675588,0.0
-0.968210229677741,0.6384191429557591,2.07227224389653,-0.10829343061294681,0.8071906908266331,1.5047806472764056,0.0
-0.9839390848276364,0.5365685344436513,1.9187190535752279,-0.24316988472326317,-0.8642881091527769,2.6959747065475477,0.0
-1.0091051980021597,0.46866812876891273,1.9455906871686652,-0.18389891682277767,-0.41877564745281165,2.5759983131088062,0.0
-1.0751662795011019,0.5790062694189765,2.2258257030067408,0.043850949195741964,0.27451273293792394,2.5055359691064747,0.0
-1.1443730769647134,0.6044689401183897,2.3908956917093858,0.008848402642839743,0.4125247226320851,2.834994936566615,0.0
-1.0468543952965998,0.8166576892805615,2.4715111300675137,0.06858606569948272,1.3882937887492308,2.5893291473701603,0.0
-0.9839390848276364,0.8590954613986593,2.4638334436725584,0.3761417483323363,2.2462281413857648,2.196073160128912,0.0
-1.0311255401467039,0.7657324221672803,2.356346102932084,0.6183593349588592,2.312409282912559,2.221782320930461,0.0
-1.238745987602848,0.7742199914480087,2.114499519068788,0.538086811803893,1.456089165923711,2.783576614963517,0.0
-1.5910716271114833,1.325910806126646,2.1029829894763536,0.04105073272089807,0.5803990086714848,4.239480578739801,0.0
-1.528156344175175,1.325910806126646,2.118338362266266,-0.10922683230973652,0.442386979601881,4.100460162901825,0.0
-1.4778240902934736,1.3089356675651882,2.1528879510435672,-0.25390399854410756,0.04207146226853067,4.407066563629359,0.0
-1.6036546836987449,1.2664979697326355,2.1490491078460896,-0.19509972864589822,-1.5858245896165077,5.7106192773063125,0.0
-1.698027608103207,1.1646473612205277,2.049239453500571,-0.039688451436801477,-2.720589881963437,7.0732081445287465,0.0
-1.487261403383411,1.0712842477036033,1.818909264835255,-0.06582368187020146,-2.7117118221538203,7.533118117257858,0.0
-1.3079528401317693,0.7402697886106393,1.707583080897302,-0.3071078611076973,-2.588227598909848,8.01207081165385,0.0
-1.2198714164882831,0.46018055948818404,1.7190994760952816,-0.2921734453435365,-2.698798566979415,8.361526309234382,0.0
-1.2418917586328273,0.44320545806949946,1.7267771624902375,-0.05975657084106832,-2.5922629517764073,8.827149098463558,0.0
-1.2764951848972876,0.4771556609068687,1.8381034808226446,0.27953473532921147,-2.1007465460123114,8.963312734413686,0.0
-0.9650644586477616,0.5620311680002918,2.003173335130835,0.4074106653291303,-1.1830877581870711,8.046349940481125,0.0
-0.6567795584935247,0.1716038260848522,1.907202523982794,0.12365673165665188,0.14618578306317317,6.639008075876815,0.0
-0.4869083633971302,-0.18487333156460453,1.8150704216377767,-0.02615413252558794,1.5037073062600845,5.477332186287868,0.0
-0.6599253295235037,-0.14243557801789297,1.8956859943903601,0.08165368945453871,0.7837851401949253,5.109785359848167,0.0
-0.7480068082322998,-0.19336088227394688,2.045400610303093,0.25899987523088835,0.025122619205393215,4.838410224031256,0.0
-0.7511525792622792,-0.3970621178695489,2.037722923908137,0.39760995320507564,0.19299686463886767,4.526090635165849,0.0
-0.6504881265641863,-0.2867239400767123,2.1835986966233913,0.7182332368240358,1.457703401571397,3.445351143952737,0.0
-0.5403863607761559,-0.5158878278003413,2.2718918213764767,1.1139952830354827,2.4003818969251456,2.236065291275159,0.0
-0.5435321318061349,-1.0506035410602932,2.2488587621916083,1.2390710420984565,2.2486494161064083,1.823765467453585,0.0
-0.8360881768104763,-1.5004438215123679,2.2450199189941307,1.7669092974841896,1.6013650191552458,2.0760967666901706,0.0
-1.0657289664111647,-1.4240558465569007,2.1375325782536554,2.2667456613488763,2.681248347003869,2.3969859519434915,0.0
-0.8990034872794392,-1.2373296195230514,2.1413714214511335,1.9610566682648547,5.462472889303473,2.7150185431278735,0.0
-0.7920474925213881,-0.4479874221256026,2.475349973264991,1.4616871589389717,9.217044829245149,4.9574342955677455,0.0
-1.0216882821220763,-1.220354629532685,2.6289034323752025,-0.11016023116040756,9.48096298628645,6.712327013948085,0.0
-1.2796409559272672,-1.0590911103410219,2.2718918213764767,-1.2601103218459901,5.548024071093645,7.905425624114279,0.0
-1.2796409559272672,-1.0590911103410219,2.2718918213764767,-1.5928678616766407,4.861192554542767,9.213739389845767,0.0
-1.345701982360899,-0.6432011070118624,2.1720821670309576,-1.0692298399273763,5.159007927665996,9.808860119166031,0.0
-1.5910716271114833,-0.7705143490806105,1.9993344919333569,-0.5605262453267474,3.622312606709933,10.200211834240593,0.0
-1.5596139718770015,-1.5428815193449208,1.8342646376251668,1.544293089567876,0.02270135555909283,14.916426529609911,0.0
-1.3582850664808157,-2.4680246395201646,1.7229383192927594,4.580646703097004,-3.4251775181335478,19.323178416001667,0.0
-1.3582850664808157,-2.4680246395201646,1.7229383192927594,0.359340495021172,0.9807144866293926,16.139994980994373,0.0
-1.8584615864739564,1.8351639229727297,1.6269675081447186,-5.163127018079991,7.647259331280114,13.092975181937208,0.0
-1.9905836944065307,0.8760705999601165,2.1797598534259137,-5.340939762398802,3.479458185700812,10.581089309122738,0.0
-1.9905836944065307,0.8760705999601165,2.1797598534259137,-1.2115734791508237,1.2510889562543555,9.26896625578224,0.0
-1.9905836944065307,0.8760705999601165,2.1797598534259137,0.7229002339235098,1.4932151683045525,7.916852000390036,0.0
-2.2925770800334644,-1.9672590919548092,2.2872471941663886,1.4299516150928675,-0.21216118244804855,6.933235964245243,0.0
-2.2925770800334644,-1.9672590919548092,2.2872471941663886,1.1597319092558052,-0.46720090561302796,4.600361709320461,0.0
-2.2925770800334644,-1.9672590919548092,2.2872471941663886,0.7971056062036813,-0.9191700736510812,2.260822315993364,0.0
-2.2925770800334644,-1.9672590919548092,2.2872471941663886,-0.7042699927876167,-1.895746178841185,0.24217206146486098,0.0
-2.135288858926367,-0.5158878278003413,2.6365811187701573,-1.054762085165949,-2.2008253761263457,0.09172547259055777,0.0
-2.135288858926367,-0.5158878278003413,2.6365811187701573,-0.5292573055610039,-1.5801750011022628,0.540208633530846,0.0
-2.3083058801180507,-0.7280765769625132,2.475349973264991,0.03218343367810795,-0.9183629558272383,0.4649853303834331,0.0
-2.1730380286881514,-0.7195890819673298,2.3371518869446932,0.20719614367367004,-0.035408964569220644,0.07172940992085462,0.0
-2.1730380286881514,-0.7195890819673298,2.3371518869446932,-1.018359453144574,0.7353598032838236,0.26978565702464213,0.0
-2.1730380286881514,-0.7195890819673298,2.3371518869446932,-1.018359453144574,0.7353598032838236,0.26978565702464213,0.0
-2.1730380286881514,-0.7195890819673298,2.3371518869446932,-1.136901434483444,0.5812060871198851,0.23360230248540553,0.0
-2.302014365590747,-0.8384147547553493,2.3640237893270393,-0.8312125780131193,0.9419743273517505,-0.2196418117931232,0.0
-2.3366177643225527,-0.8553898933168064,2.2834083509689105,-0.599729093822966,0.9088836778374682,-0.3481879409839568,0.0
-2.3712211905870135,-0.914802729710816,2.022367551118225,-0.47138644589794026,-0.49706316258282385,-0.4015107670273772,0.0
-2.358638133999752,-0.7620268540854271,2.07227224389653,-0.28890653371253516,-1.5220645653085865,-1.130890999495262,0.0
-2.358638133999752,-0.7620268540854271,2.07227224389653,-0.2590377021842136,-1.2742886859932592,-1.3003814423704134,0.0
-2.358638133999752,-0.7620268540854271,2.07227224389653,-0.29404023735264123,0.8548088311630068,-1.6593584866032938,0.0
-2.2957228235307885,-0.8384147547553493,2.3371518869446932,-0.7728749776559992,0.6578794059776543,-2.4030215500516965,0.0
-2.23595331162446,-0.8723649575927183,1.9839791191434448,-0.6221307345459193,-2.096711035643982,-2.6096475300041555,0.0
-2.2076414274199574,-0.821439690479437,2.1528879510435672,-1.0374942050054754,-3.358189180032024,-3.30284459375171,0.0
-2.1730380286881514,-0.957240501828914,2.348668416537127,-2.1197727722879574,-3.651162003713967,-4.068408087849378,0.0
-2.056644748372818,-1.1609417188531301,2.410089907696774,-2.4730650811411325,-3.2274409751243516,-4.096021520817617,0.0
-2.015749807581054,-1.5004438215123679,2.233503389401697,-2.4861326365893404,-2.9602949767947595,-3.8427380854976865,0.0
-1.9591260494967948,-1.5259063807834632,2.2219868598092627,-2.143107848861125,-2.40663278237043,-3.595167838315638,0.0
-1.952834519482373,-1.6956574692558548,2.210470330216829,-0.9329533060408248,-0.6875358420546459,-2.760094136298981,0.0
-1.952834519482373,-1.814483142043874,2.1490491078460896,0.27300091206720883,0.33988683539176034,-1.3689394212966033,0.0
-1.7798174759204073,-1.8229707113246028,2.210470330216829,-0.17643170751763795,-0.8715518545638226,-1.4917723158948306,0.0
-1.7420683061586226,-1.78053301349205,2.218148016611784,-1.4397900289410261,-2.455058119281532,-2.2392442953144243,0.0
-1.6948818370732277,-1.6871698999751263,2.1490491078460896,-2.0170986539479365,-3.3953151824128667,-3.049560972612874,0.0
-1.754651362745884,-1.7380951670884073,2.045400610303093,-1.789348685469145,-2.9288185629281642,-3.891299998850754,0.0
-1.7106106646904686,-1.6956574692558548,1.907202523982794,-1.288112395518631,-2.299290128094465,-3.799889360282501,0.0
-1.6319665679032471,-1.8908711169993417,1.8956859943903601,-0.39578096538034685,-0.6399177017182722,-2.58774709935489,0.0
-1.628820796873268,-2.043647066910276,1.8918471511928823,0.13719105056786537,0.7385881958283103,-0.7214477697426277,0.0
-1.6665699666350526,-1.8908711169993417,1.799715048847865,0.36260742942112284,1.5254987787458771,0.21551063682946894,0.0
-1.6445496244905087,-1.8823835477186133,1.8611364056130582,0.8722444143340667,2.178432764211285,0.7182688121580896,0.0
-1.5910716271114833,-2.026671928348818,1.8918471511928823,1.310009525516576,2.3971535831315443,1.641896512219331,0.0
-1.6351123114005712,-2.196423016821211,2.045400610303093,1.624098985873534,2.7329019977085722,2.470304890014763,0.0
-1.6854445377496179,-2.31524868960923,2.3793791621169524,1.9848584172252302,3.5294977582596,3.1834977406070792,0.0
-1.7798174759204073,-2.4510495009587068,2.5098995620422917,1.9596566511032307,3.9548328649951303,3.9166867496819755,0.0
-1.874190410649615,-2.247348283934492,2.5521268372145522,1.2633394634460398,3.4310330062914813,3.44630328003608,0.0
-1.874190410649615,-2.247348283934492,2.5521268372145522,0.690231163151395,2.946780267187546,2.501727238954191,0.0
-2.0597905056364696,-2.349198966732145,2.5098995620422917,0.443346624963297,2.550500142096197,2.3855595756677332,0.0
-1.918231111716415,-2.264323422495949,2.5175772484372505,-0.4382507027386175,-0.4914135346931362,0.93917771600052,0.0
-1.918231111716415,-2.264323422495949,2.5175772484372505,-1.207373154438558,-2.905413169798227,-0.12537464883802113,0.0
-2.081810861547341,-2.7650889700613046,2.45999460047508,-1.6675399063440204,-3.9288001399990904,-0.05205574560779524,0.0
-2.053498977342839,-2.90937735069151,2.45999460047508,-1.3534504459870629,-3.790788268431255,1.0067834659339117,0.0
-2.053498977342839,-2.90937735069151,2.45999460047508,-1.381919192046912,-4.494568865528408,1.9523116430991454,0.0
-1.7515056054822327,-3.0621533006024446,2.1912763830183475,-1.9480269511544464,-6.793154431866448,2.5426715061837823,0.0
-1.345701982360899,-2.8499643657264095,1.926396739970184,-3.2533884898162477,-7.959396453083517,3.147314525432025,0.0
-1.345701982360899,-2.8499643657264095,1.926396739970184,-3.7830933436750143,-6.498567530038593,2.9406885454795657,0.0
-1.0783120505310813,-2.7905516779034905,2.0799499302914857,-3.5656108963211812,-7.246738111180288,1.4533622327638536,0.0
-1.0185425110920971,-3.172491404109736,1.7958762056503867,-3.872699906566827,-9.357272548395247,-0.11680490147224744,0.0
-1.0185425110920971,-3.172491404109736,1.7958762056503867,-5.557955537365427,-8.928708970364344,-0.37865810738531414,0.0
-1.0594374243512061,-3.4695557346508754,1.5809015241694373,-7.255345378837818,-6.563134435917699,0.5249735271028039,0.0
-0.832942405780497,-4.657812759673254,1.715260767292258,-6.948723040979381,-8.55018496489223,-0.74334824684662,0.0
-0.7480068082322998,-4.68327546751544,1.4311869082567046,-7.173672975134924,-8.683353972015235,-0.8042886261040615,0.0
-0.688237268793316,-4.8784892638300175,1.081852983652934,-7.147070827548109,-8.513865686580804,-2.2268657829553216,0.0
-0.606447332144478,-4.80210114030346,0.9474937405301135,-6.428352363471155,-9.574379289169594,-3.042895648391651,0.0
-0.7794644084014716,-5.3113544057206346,0.5405771679641733,-5.858044097499761,-8.343570362073418,-1.0194843882633395,0.0
-1.2324545006081995,-4.530499517604506,0.3678296272610271,-4.9251095284762405,-5.825456622738618,0.7001771116611077,0.0
-0.8172135506306014,-4.836051417426375,0.2987305841008779,-3.547876252697702,-6.399296054001057,-1.9488253229171872,0.0
-0.4711795082472346,-4.819076278864918,-0.10818595486644872,-3.993575340917534,-6.864178280336302,-3.852260189606757,0.0
-0.5938643581551816,-4.377723567693571,-0.37306557061573864,-3.8885678606414738,-6.479197332273443,-4.046507471381207,0.0
-0.5403863607761559,-4.785126001742002,-0.20415683321171682,-2.761485920837289,-3.091043181702435,-2.2125828126106235,0.0
-0.688237268793316,-4.5559622254466925,-0.069797590088896,-1.7529460534477694,-2.208896239361234,-1.8440840359064878,0.0
-0.5781355030052858,-4.454111691220129,-0.5573296514108855,-2.728350177677965,-1.4090723225183766,0.08410792518337756,0.0
-0.40826419777827144,-5.489592766331574,-0.7454325817032507,-3.6388828327511393,-0.8554101280940455,2.9045051444856025,0.0
-0.44915911103738043,-5.565980889858131,-0.7032053737282199,-4.979246804121094,3.6570174918719007,4.561321900076468,0.0
-0.5309490476862184,-4.309823310589924,-0.5918791729909602,-4.499945482506325,-0.11773191131667719,1.9542159152658334,0.0
-0.45230488206735947,-3.1640038348290065,-0.2962888683595069,-2.0871037015158422,-2.6084046782461843,-2.8638832872263364,0.0
-0.5844270450652441,-2.934840058533696,-0.09283061567515027,1.136863596145644,3.1380601826095376,-7.607711229744984,0.0
-0.565552418885369,-3.20644168123265,-0.5419743122195873,1.513024218108981,4.216329274810479,-7.563910740084269,0.0
-0.33905745537997006,-3.775107634472744,-1.056378242325309,0.5324864243921043,0.8653009691185389,-6.9335580025777555,0.0
-0.3453488873093083,-3.5629186995967093,-1.1677044262632617,-1.2610437576962037,-0.08383423257329778,-1.5031986921705889,0.0
0.3530107395173831,-4.810588709584188,-1.2867082965961707,-1.44072346479124,-3.6083864128188803,-1.5089117873990145,0.0
0.4505294211854978,-3.2828295076170266,-0.9834403559676818,-0.2511037934537384,-2.720589881963437,-5.693802494500814,0.0
0.019559671123313596,-3.096103280583178,-0.856758799239817,0.8503094459983216,-1.0846230062189521,-8.265676656944107,0.0
-0.398826884688334,-3.02820302347953,-0.9335354951963085,1.478955130175243,0.29468993040058794,-6.745023908941184,0.0
-0.3453488873093083,-3.3677052004243135,-1.0141510343502782,1.2474716004471904,1.1421320663307042,-4.163627270751008,0.0
0.04787161039312591,-4.012758980048783,-1.1677044262632617,0.21839694126619713,1.740991126370765,-2.7086756288769753,0.0
0.23347166063941618,-3.25736679977484,-1.5439102532493778,-1.5452643637558905,0.8919348335438481,-2.201156436334865,0.0
0.2869497681490615,-3.274341938336298,-1.3097413557810385,-0.901217625581025,1.0840217880387988,-3.6075463506747396,0.0
0.05730892348306335,-2.9942527463566155,-1.029506339942963,-0.6113965865716507,0.20106774756147752,-4.353113872108737,0.0
-0.1723319211829348,-2.4425619316779783,-1.4748112100892286,-1.549464688468156,0.37136324925835684,-5.830918266534287,0.0
0.07932932069291754,-2.4510495009587068,-1.2751918342009638,-1.6325373825600675,-0.1693855324897983,-6.742167500691154,0.0
0.2429089737293536,-2.951815197095154,-1.1024442263005902,-1.1266340044342824,0.26724894815143563,-5.243414625880772,0.0
0.2869497681490615,-3.1130784191446352,-0.9796015127702039,-0.32437577542159496,0.5021114935414724,-3.1238318609485822,0.0
0.337281884367488,-2.586850312308184,-1.0602170183255597,0.27486769269183886,1.3495535507207035,-2.769616054589144,0.0
0.10134971790277147,-1.177916857414587,-0.8951471304187562,0.3080034358511617,3.9354626672299804,-4.1141132213145974,0.0
-0.040209758185050376,-1.5089313907930963,-1.3020636693860828,-0.23476927514439308,1.0170334499372762,-4.661624545002957,0.0
0.20515994163084358,-1.04211604606511,-1.1408325910781432,-0.0527560638073828,0.19218978619046734,-4.911099435989511,0.0
0.08876663378285499,-1.3052301737688812,-1.037184026337919,0.17826070245766357,-0.7311186295244602,-4.851111146360685,0.0
0.1579733761811559,-1.067578679621751,-1.052539399127831,-0.5017219725824192,0.11551644764497704,-5.524311865806756,0.0
0.32469880024757153,-1.5513690886256493,-0.9066636600111898,-0.3519111197846543,0.3971900746107084,-6.781207309935148,0.0
0.32784457127755057,-1.3646430101628908,-0.9949568183628883,-0.5539924220647446,0.2228591216086635,-7.045917493168653,0.0
0.2554920578492701,-1.3222051637592476,-1.0870889207079057,-0.7700748067190543,0.3148671278632518,-4.50260815650131,0.0
0.38132267878719517,-1.0336284767843815,-0.9258578088013526,-0.17829850948815804,-0.6068270915794327,-1.9488253229171872,0.0
0.28380399711908266,-1.4325434158376298,-1.0333451831404412,-0.14842967511371785,-1.2565327238757962,1.656179482564029,0.0
0.5606311869735283,-0.7111015126866007,-1.3750014885464825,-0.6515328709180833,0.12681567389277018,-1.148982699992244,0.0
0.5323192477037157,-0.6432011070118624,-1.3020636693860828,-0.6594667568796091,0.1873472564369014,-0.2367812832973071,0.0
0.48198713148528893,-0.21033598369263148,-1.2521587750160958,-0.1918328255532529,1.2615810942098875,-0.33485722285941993,0.0
0.45682096324545596,-0.2782364079387564,-1.26367530460853,-0.1395623646864529,1.5521326431711864,-0.45483359307079785,0.0
0.3435734264274469,-0.30369904149539695,-1.0986053831031124,-0.0023524063341622313,1.9007946279261616,-0.8423763921741667,0.0
0.3687395946672799,-0.3800870164508641,-1.0640558615230375,-0.024754035672640742,1.5456760155839837,-0.8433285282575107,0.0
0.4505294211854978,-0.3970621178695489,-1.0141510343502782,0.026116328341212018,1.1243761042132414,-0.6386069598359205,0.0
0.2932413102090201,-0.4904251942437007,-0.9642461735789053,-0.1540300817368078,0.7773284338568375,-0.3748493307783035,0.0
0.24920051578931174,-0.5413504984997545,-0.9143413128075321,-0.5166563997310548,0.7555370401219301,-0.25011200142184403,0.0
0.4127803890869888,-0.16789823014591992,-0.9296966519988306,-0.3822466464691333,0.5812060871198851,0.38595327385637324,0.0
0.4442378791255397,-0.13394802730855068,-0.9680850167763834,-0.34397719966970436,0.04852816368468821,1.7456856631466864,0.0
0.3844684498171742,-0.21033598369263148,-0.941213147992651,-0.1778318086397632,0.21720951340669722,1.7475899353133741,0.0
0.20515994163084358,-0.43101232070691803,-0.9335354951963085,-0.10922683230973652,0.07031953280994384,0.6849420516877925,0.0
0.1611191472111352,-0.7365641462432415,-0.8605976088386813,-0.20350033822476832,0.10260304481266193,0.39928399198091,0.0
0.10449526867151057,-0.5498380306377103,-0.7032053737282199,0.09752150691548919,1.0267185488198507,0.4011883570570518,0.0
0.36244805260732227,-0.0999978244711814,-0.8529199560423392,-0.35564470380286367,0.3189025594806961,-2.6410698789435836,0.0
0.48198713148528893,-0.43949985284487403,-0.7723044168883693,-0.2086340447109931,-0.1540508647807002,-1.4232144298780949,0.0
0.4127803890869888,-0.40554965000750476,-0.7876597560796677,0.5866236544990595,0.8330174374280996,0.9877395364441321,0.0
-0.040209758185050376,0.18009137679419449,-1.1868985750534244,1.1387303767702739,1.565046055847362,2.5817115012466854,0.0
0.7525227792797757,0.7911950557239206,-1.2483199318186178,0.7004985932005565,2.6901264068134876,1.0572497443631195,0.0
0.4977159866351853,0.06975320886740706,-0.9181801560050104,0.1418580476673392,2.0799680122431656,1.243879658742455,0.0
0.5889431262433399,0.18009137679419449,-0.760787920894549,0.14279146074860366,3.0589656284065683,1.6618926707019084,0.0
0.3184072581876134,-0.32067414291408164,-0.6916888777343995,-0.2240351613235487,2.3632558945443045,1.5476293724915924,0.0
-0.26041328976111106,0.6808569150738573,-0.6341063473673773,-0.1395623646864529,2.701425583841976,2.7959551273226193,0.0
-0.07795901054480038,0.7657324221672803,-0.6801723817405791,-0.9595551804002461,5.367236608630723,2.495061914732968,0.0
0.9916009370357121,-4.522011948323777,-1.3097413557810385,-0.603462700610125,6.874876317935522,-1.6155574394858556,0.0
0.48827867354524657,-1.220354629532685,-0.3269995467421036,0.03778384385884621,5.912020743245439,-3.1781069624395277,0.0
0.49142444457522766,-1.0166533382229244,-0.5650073210065347,-0.31457506329754037,6.49958046875524,-2.522997943490438,0.0
0.9192484236074298,-0.9657280711096433,1.6384840377371526,-0.36404533045844584,3.724812869046382,-0.11299613647891862,0.0
0.43794633706558006,-0.6347135377311339,0.20275970575560964,-0.09989282103407672,0.530359554239025,-0.16441457421883393,0.0
0.0698920076029801,-0.19336088227394688,-0.1197024508602692,-0.2072339421658085,0.9710294664977034,0.3116821764743946,0.0
0.17684800236103151,-0.4989127263816565,0.03768978425019246,-0.511989402631581,1.6062075685965331,1.38385211775432,0.0
0.5040075286951429,-0.8553898933168064,0.19892086255813168,-0.30757455626385477,0.8790214996185577,1.1381861427389577,0.0
0.5040075286951429,-0.8553898933168064,0.19892086255813168,-0.09615921424691785,0.2527213588907379,-0.03015529753800726,0.0
0.4316547950056224,-0.8808525268734473,0.07223930583026691,-0.09429241085333842,0.28016234113989014,-0.6490810606641545,0.0
0.2869497681490615,-0.6347135377311339,0.12598297620050453,-0.13442865962328748,0.2422292209352058,-0.8671334168923719,0.0
0.2869497681490615,-0.6347135377311339,0.12598297620050453,-0.2781724198916908,-0.15082251161165627,-0.6005191937658153,0.0
0.4285090239756439,-0.5243753970810698,0.07223930583026691,-0.37197923918892106,-0.3380668576021557,-0.2758212319054834,0.0
0.4442378791255397,-0.5583255999184394,-0.0006985805273602496,0.047117860826743414,0.3979971530591087,0.14219173359924303,0.0
0.4442378791255397,-0.5583255999184394,-0.0006985805273602496,-0.14329597005055242,0.7732930022393932,0.09553424919756832,0.0
0.3215530292175922,-0.3970621178695489,0.010817949065073463,0.09658811660317418,1.5254987787458771,0.3345348128890943,0.0
0.2869497681490615,-0.36311191503217954,0.14901600178675878,0.05551846471337599,1.690951711313748,0.09648644334932094,0.0
0.2869497681490615,-0.36311191503217954,0.14901600178675878,0.01071520603641905,0.715989763020445,0.4421326707413698,0.0
0.35615651054736164,-0.566813132056395,0.21043739215056578,-0.0704906846619127,0.42705233158050426,0.0031714774493919067,0.0
0.34042765539746783,-0.5753007013371235,0.16437134097805725,-0.32530917711838464,0.745852019990241,-0.6719337203062176,0.0
0.34042765539746783,-0.5753007013371235,0.16437134097805725,-0.6048628088475468,0.530359554239025,-2.151642386898455,0.0
0.08876663378285499,-0.651688676292591,0.20659854895308782,-0.1778318086397632,0.025929706267171608,-3.0733658612477353,0.0
-0.040209758185050376,-1.0081657689421952,0.21811501134829456,-0.1376955627159328,0.5150248668422056,-2.5906036934238297,0.0
-0.07481323951482106,-0.6177384734552215,0.17588787057049096,-0.14516277202107253,1.0275255878928085,-0.7423960643085492,0.0
0.5606311869735283,0.027315452418916374,0.31792473289104073,-0.1955664294942931,0.7878205718123696,0.36595720828324957,0.0
0.39075999187713434,0.2055540289222215,0.17588787057049096,-0.21330104750270432,0.5150248668422056,0.44879804141732005,0.0
0.5480481028536126,-0.0999978244711814,0.24882568973089114,-0.2025669365279786,0.3503789733472926,0.6268582200445634,0.0
0.4190717108857067,-0.1084853751805237,0.2872140545084438,-0.11389383510144775,0.20429610073052148,0.556395922496959,0.0
0.3781769077572166,-0.26126130652007173,0.2948917409034,-0.058823169144278604,0.33827265880723856,0.1098171498601761,0.0
0.13909875000128127,-0.25277373723934304,0.2833752113109659,-0.1050265246741828,0.5368162605771131,0.025071928422600323,0.0
0.5040075286951429,-0.48193762496297193,0.21811501134829456,-0.2693051094644258,0.266441850015314,-0.41769805599349025,0.0
0.5165906128150586,-0.26126130652007173,0.30256942729835573,-0.15262998025891772,0.14779995964769513,-0.6652683496302675,0.0
0.4033430759970501,-0.12546047659920836,0.24114807053316237,-0.13209515680437253,0.4665996086819892,-0.21202425857910215,0.0
0.37503113672723754,-0.09151026447614591,0.2526645329283693,-0.12696145031814776,0.6820920744332051,0.015549992711914849,0.0
0.37503113672723754,-0.21882353440197383,0.24114807053316237,-0.18763252076381784,0.6433518364046779,-0.19678915215106,0.0
0.337281884367488,-0.20184843298328922,0.35631309766859315,-0.18856592246060758,0.3261663442671842,-0.17964968064687606,0.0
0.3152614871576341,-0.12546047659920836,0.37934608965623384,-0.17363150385032813,0.008980863511654806,-0.0863347118435266,0.0
0.35615651054736164,-0.1084853751805237,0.3409577248786813,-0.16803109793876786,0.18654017798850112,0.044115798392261055,0.0
0.36244805260732227,-0.13394802730855068,0.31024704649608464,-0.16196399082304788,0.3568356796853804,0.054589926802988936,0.0
0.34042765539746783,-0.15941067943657758,0.3409577248786813,-0.15776368607808344,0.4375444695360364,0.08696450763863546,0.0
0.3309903423075299,-0.22731108511131617,0.36015194086607133,-0.16009718885252777,0.4254381353082609,0.07553818362444471,0.0
0.3184072581876134,-0.20184843298328922,0.47915581119898004,-0.1974332328878725,0.19380396277498926,-0.024442132627491446,0.0
0.3844684498171742,-0.15092312872723523,0.5137053327790544,-0.07375759060067671,-0.13225949073351428,0.1412395394474904,0.0
0.337281884367488,-0.15092312872723523,0.4714781248040241,-0.1376955627159328,-0.4098976663940802,0.2355066907889108,0.0
0.22088857651949967,-0.12546047659920836,0.37550724645875583,-0.2380361810831571,-0.8497605395798007,0.25074179721695294,0.0
0.13595297897130246,-0.11697292588986599,0.3294412624834745,-0.2837728300724291,-1.9336793777967547,0.061255282961836945,0.0
0.22718011857945755,-0.2782364079387564,0.2565033761258473,-0.46251914685514994,-3.513150132146133,-0.033011874186424296,0.0
0.3844684498171742,-0.2782364079387564,0.4829946543964579,-0.1703646007576828,-1.1992294846568479,-0.30629142153420413,0.0
0.5795058131534037,-0.19336088227394688,0.17588787057049096,0.329938358649008,1.8983733532055178,0.05839870050657904,0.0
0.5795058131534037,-0.19336088227394688,0.17588787057049096,-0.28750643685958793,0.4762846681891209,-0.03777284494518747,0.0
0.14224452103126056,-0.15941067943657758,0.5904820623341601,-0.19696653203947767,-0.38084252724812734,0.016502186863667487,0.0
0.236617431669395,-0.21882353440197383,0.47915581119898004,-0.1264947494697529,-0.3501731918299311,0.015549992711914849,0.0
0.274366684029145,-0.2357986358206584,0.39470146244614585,-0.17596500666924308,-0.1887556318163406,-0.012063620268388938,0.0
0.3530107395173831,-0.25277373723934304,0.2987305841008779,-0.24036967963289405,-0.11934608790119916,-0.05205574560779524,0.0
0.34042765539746783,-0.21033598369263148,0.2641810625208031,-0.2688384143082684,0.031579320621550756,-0.09014348845053713,0.0
0.3435734264274469,-0.19336088227394688,0.2641810625208031,-0.28097262498205994,0.05821321826988972,-0.05396013391130049,0.0
0.3498649684874045,-0.18487333156460453,0.3332801056809527,-0.13256185765276737,0.09291799022746042,0.0364982506221533,0.0
0.3435734264274469,-0.18487333156460453,0.3371189488784306,-0.3659121338520253,-0.287220344409017,-0.007302652413046218,0.0
0.32469880024757153,-0.295211509357441,0.23347038413820653,0.012115314273841021,0.14295742989412924,0.18027947644198494,0.0
0.3058243943289366,-0.24428618653000075,0.42541214082874235,-0.15262998025891772,0.08484711222678092,0.07363379822435989,0.0
0.2900955391790406,-0.24428618653000075,0.17204902737301309,-0.2590377021842136,-0.03944440110859524,0.030785089340913032,0.0
0.34042765539746783,-0.18487333156460453,0.26801990571828127,-0.03735495288706454,0.2357725145971179,-0.04729478065587294,0.0
0.3341361133375087,-0.09151026447614591,0.24498684653341324,-0.3500443163910748,-0.22265332040358068,-0.09585665336105297,0.0
0.3309903423075299,-0.11697292588986599,0.2756975249160101,-0.2021002385257024,0.0267367945594326,-0.034916262489929566,0.0
0.3530107395173831,-0.11697292588986599,0.3524742544711151,-0.1731648044249926,-0.23798798811267877,-0.029203103386254616,0.0
0.3215530292175922,-0.04058496022009205,0.34863541127363723,-0.19136612470485803,-0.31062589504072485,-0.07395619948442408,0.0
0.3026786232989573,-0.03209740951074969,0.3870237760511899,-0.16009718885252777,-0.4211969221734553,-0.06729084042215565,0.0
0.35615651054736164,-0.0745351630574613,0.39470146244614585,-0.0788912942407828,-0.2525155773733765,-0.05300793975954787,0.0
0.4756955894253313,-0.15941067943657758,0.2833752113109659,-0.06022327738170053,0.16152045077227123,-0.04158161574535712,0.0
0.5763600421234252,-0.2357986358206584,0.02617328825637194,-0.21003414725617767,0.8104190046202345,-0.27677341444355436,0.0
0.4127803890869888,-0.7026139434058721,0.19124317616317588,-0.48072046286583753,0.8701435185598263,-0.45292922799465607,0.0
0.2523462868192908,-0.21882353440197383,0.05304512344149056,-0.49238797838347165,0.4109105657352845,-0.31010019814121476,0.0
0.2429089737293536,-0.14243557801789297,0.10294998421286379,-0.39018055519960854,-0.46881510188527137,-0.32057432219681214,0.0
0.36244805260732227,-0.12546047659920836,0.37550724645875583,-0.3486442081536529,0.45368623538125613,-0.08157374108476342,0.0
0.3152614871576341,-0.006634752739876158,0.3447965680761593,-0.17549830582084822,0.46821380495423254,-0.09109568260228978,0.0
0.337281884367488,-0.14243557801789297,0.3294412624834745,-0.4088485663664533,0.4520720391090128,-0.13775316119712364,0.0
0.2617835999092282,-0.0830227137668036,0.4330897600264711,-0.03688824634643233,0.1841189032678575,-0.006350458261293567,0.0
0.17999377339101033,0.027315452418916374,0.3332801056809527,-0.22823546895910243,-0.36147240823386356,0.08220353978329274,0.0
0.2900955391790406,-0.0830227137668036,0.2526645329283693,-0.27723901819490104,-0.12176735277798212,0.022215347419052636,0.0
0.34671919745742547,-0.21033598369263148,0.4100567680388305,-0.252503895998923,-0.11611773473215524,0.011741219008324746,0.0
0.32469880024757153,-0.20184843298328922,0.3831849328537121,-0.18903262330900242,-0.43814576646707515,0.008884639456487278,0.0
0.3152614871576341,-0.2867239400767123,0.21811501134829456,-0.25390399854410756,-0.35743697661641927,-0.040629421593604505,0.0
0.2712209129991662,-0.05756006163877663,0.18740433296569767,-0.3178419749285416,-0.5035198689209116,0.054589926802988936,0.0
0.34671919745742547,-0.04907251092943433,0.16821018417553513,-0.43031679400814227,-0.3017479139819934,0.10791276155667083,0.0
0.371885365697259,-0.1763857808552622,0.2526645329283693,-0.44291772260704076,-0.07253499648164398,0.04506799254401369,0.0
0.3530107395173831,-0.32067414291408164,0.2641810625208031,-0.43031679400814227,-0.06365703511063381,-0.017776779372063865,0.0
0.3152614871576341,-0.2782364079387564,0.26034221932332513,-0.5054555793695782,-0.12257444107024311,-0.040629421593604505,0.0
0.2932413102090201,-0.21882353440197383,0.2526645329283693,-0.5651932424262213,-0.20328322107703836,-0.040629421593604505,0.0
0.31211571612765476,-0.15941067943657758,0.3371189488784306,-0.4251831017525108,-0.2565510089908208,-0.03967723324869271,0.0
0.31211571612765476,-0.09151026447614591,0.39086261924866783,-0.23196907005402395,-0.3695433108441946,-0.011111426116636314,0.0
0.34042765539746783,-0.03209740951074969,0.35631309766859315,-0.10455982382578795,-0.5107836537074,0.04030702468867095,0.0
0.39390576290711293,-0.03209740951074969,0.2987305841008779,0.043384254039584465,-0.379228330975884,0.1469526927443245,0.0
0.4285090239756439,-0.09151026447614591,0.2641810625208031,0.12412344958175885,-0.22749585015714657,0.22598476088506614,0.0
0.4001973049670705,-0.21033598369263148,0.18356548976821974,0.10452202533364942,0.06951244451768285,0.17742289398672703,0.0
0.39075999187713434,-0.2697488386580276,0.11830532340416196,-0.09522581255012812,0.49888314037242876,0.053637734102946526,0.0
0.2617835999092282,-0.31218661077612564,0.20659854895308782,-0.21750135513825805,0.15506374443418336,-0.05110355145604258,0.0
0.3089701653589154,-0.16789823014591992,0.2641810625208031,-0.10642662721936738,-0.014424681275260844,0.0003148978975544327,0.0
0.34042765539746783,-0.11697292588986599,0.2526645329283693,-0.1768984083660328,0.14295742989412924,-0.02729871508274934,0.0
0.3435734264274469,-0.11697292588986599,0.2257926977432504,-0.22123496192541692,-0.05558615710995428,-0.017776779372063865,0.0
0.3435734264274469,-0.11697292588986599,0.2257926977432504,-0.21703465428986318,-0.007967979859103292,-0.004446069957788288,0.0
0.37503113672723754,-0.09151026447614591,0.2718587489157592,-0.15636358446678156,0.1687842355587594,0.029832895915015506,0.0
0.3844684498171742,-0.15092312872723523,0.24498684653341324,-0.06722378441538607,0.18573307985237944,0.04982896039935643,0.0
0.3844684498171742,-0.15092312872723523,0.24498684653341324,-0.03128783616569401,0.1582920976032273,0.07268160407260726,0.0
0.3530107395173831,-0.14243557801789297,0.21811501134829456,-0.053689465504172515,0.1889614330214234,0.04030702468867095,0.0
0.3026786232989573,-0.15941067943657758,0.19124317616317588,-0.08635850212286318,0.1381149001405633,0.026976315274395375,0.0
0.3026786232989573,-0.15941067943657758,0.19124317616317588,-0.1442293703242828,0.035614758391407944,0.017454379563709897,0.0
0.32784457127755057,-0.1763857808552622,0.17972664657074178,-0.16989789990928794,0.10986682959915015,-0.005398264109540939,0.0
0.3435734264274469,-0.1763857808552622,0.23347038413820653,-0.16616429596824775,0.16797714726649843,-0.0006372962541981852,0.0
0.3435734264274469,-0.1763857808552622,0.23347038413820653,-0.15496348289995027,0.11390227106045507,-0.02063336182732179,0.0
0.34671919745742547,-0.13394802730855068,0.22963154094072827,-0.1652308949829877,0.02915805697525039,0.016502186863667487,0.0
0.3026786232989573,-0.0830227137668036,0.2526645329283693,-0.1689644989240279,-0.01523176956752184,0.03268947646490375,0.0
0.3026786232989573,-0.0830227137668036,0.2526645329283693,-0.14282926920215758,-0.06284994681837282,0.06030308881008431,0.0
0.3026786232989573,-0.15092312872723523,0.2526645329283693,-0.0620900750830426,-0.08625548760622008,0.07839476607970265,0.0
0.32469880024757153,-0.19336088227394688,0.23347038413820653,-0.012153118458216901,-0.09997597873079617,0.12981321543329966,0.0
0.35615651054736164,-0.21033598369263148,0.2257926977432504,0.012115314273841021,-0.12580279423928706,0.14219173359924303,0.0
0.35930228157734323,-0.22731108511131617,0.19124317616317588,-0.010286315064637468,-0.08302714428103679,0.12695663297804177,0.0
0.3341361133375087,-0.2357986358206584,0.17204902737301309,-0.0704906846619127,-0.044286925940230815,0.1326697920817167,0.0
0.31211571612765476,-0.2867239400767123,0.21043739215056578,-0.09755931679210242,-0.07253499648164398,0.09553424919756832,0.0
0.29953285226897824,-0.21033598369263148,0.2373092273356844,-0.09802601764049729,-0.21054700586352657,0.09172547259055777,0.0
0.3089701653589154,-0.16789823014591992,0.2641810625208031,-0.1264947494697529,-0.3017479139819934,0.11553031477069188,0.0
0.32784457127755057,-0.1084853751805237,0.2987305841008779,-0.11389383510144775,-0.2726927551483192,0.11457812061893927,0.0
0.3435734264274469,-0.05756006163877663,0.26801990571828127,-0.0718907872070973,-0.2718856766999189,0.11076934401192871,0.0
0.36244805260732227,-0.0999978244711814,0.22195385454577243,-0.06115667907849025,-0.27914946148640696,0.12124347387436682,0.0
0.3435734264274469,-0.1763857808552622,0.19892086255813168,-0.0620900750830426,-0.3001337373974714,0.16694875831744804,0.0
0.3215530292175922,-0.21033598369263148,0.16821018417553513,-0.08169149933115195,-0.33887397542599873,0.1736141173797165,0.0
0.3309903423075299,-0.1763857808552622,0.19892086255813168,-0.07142408635870243,-0.40021264626239084,0.18123167059373757,0.0
0.34042765539746783,-0.20184843298328922,0.21043739215056578,-0.04668895847048698,-0.4873781030756921,0.19551457125634536,0.0
0.3309903423075299,-0.2697488386580276,0.17204902737301309,-0.06722378441538607,-0.5099765752589996,0.18313604728356112,0.0
0.3309903423075299,-0.22731108511131617,0.16821018417553513,-0.12416124807389728,-0.49544896631058055,0.1650443700139428,0.0
0.35930228157734323,-0.21882353440197383,0.18740433296569767,-0.125094649770687,-0.44137411963611917,0.14790488689607714,0.0
0.3687395946672799,-0.18487333156460453,0.14901600178675878,-0.12042764413285709,-0.4437953549813201,0.16694875831744804,0.0
0.38132267878719517,-0.15941067943657758,0.1566936545831011,-0.14049576638324263,-0.40586223477663586,0.15933121671710873,0.0
0.39075999187713434,-0.1763857808552622,0.10294998421286379,-0.13256185765276737,-0.36792911457195154,0.1640921874758719,0.0
0.3781769077572166,-0.15941067943657758,0.09527229781790765,-0.12042764413285709,-0.38891339048301576,0.14409612190274831,0.0
0.3530107395173831,-0.13394802730855068,0.11446648020668401,-0.11109363285719728,-0.38891339048301576,0.17075753492445858,0.0
0.3435734264274469,-0.0999978244711814,0.11062763700920614,-0.10922683230973652,-0.3606653297854633,0.13362198623346933,0.0
0.3530107395173831,-0.11697292588986599,0.14901600178675878,-0.19136612470485803,-0.16454300273623232,0.04602018524405611,0.0
0.4033430759970501,-0.2357986358206584,0.1451771585892809,-0.1521632797662877,-0.19359816156990658,-0.05681671636655843,0.0
0.4253632529456643,-0.25277373723934304,0.056883966638968816,-0.1624306913156779,-0.3816496056965277,-0.04158161574535712,0.0
0.3435734264274469,-0.22731108511131617,0.0031402626701176285,-0.2968404424430104,-0.6609019776293368,0.008884639456487278,0.0
0.1831395444209899,-0.13394802730855068,0.045367437046534724,-0.3551780086467062,-0.8489534217559578,0.07839476607970265,0.0
0.10449526867151057,-0.15092312872723523,0.16053249778057907,-0.3906472503557661,-1.2637965480377271,0.24217206146486098,0.0
0.1925768575109271,-0.16789823014591992,0.19892086255813168,-0.33837678948896605,-1.5365922136324484,0.3516743076206419,0.0
0.32469880024757153,-0.21882353440197383,0.16053249778057907,-0.252503895998923,-1.5599977642641563,0.38880984469794944,0.0
0.3876142208471553,-0.19336088227394688,0.06456161943531108,-0.3001073540740118,-1.5236788009562725,0.3088256056328184,0.0
0.4253632529456643,-0.12546047659920836,-0.050603441298733176,-0.3845801450188703,-1.4098793615913343,0.22408037258156088,0.0
0.4788413604553099,-0.0999978244711814,-0.12354129405774711,-0.5007885822701044,-1.2347413301408887,0.06887283036901717,0.0
0.47254981839535226,0.01034034867880845,-0.15809079883851493,-0.5516589235150078,-0.9611386254732099,0.04887676624760379,0.0
0.47254981839535226,0.12067851718595171,-0.1465743028446946,-0.6188638001459685,-0.664130291422938,0.05839870050657904,0.0
0.4442378791255397,0.15462872466616753,-0.10050826847149288,-0.6678673607662419,-0.4994844373034676,0.12886102128154706,0.0
0.4159259398557281,0.11219096647660941,-0.10050826847149288,-0.6169970195213385,-0.5301537727216635,0.21931940182279774,0.0
0.42221748191568576,0.04429055499831265,-0.17344615482912012,-0.5679934589010651,-0.5664726966541047,0.25931153296904497,0.0
0.4631125053054131,-0.09151026447614591,-0.2310286683968355,-0.5343910205855846,-0.5059411042661126,0.19170579464933482,0.0
0.5323192477037157,-0.31218661077612564,-0.25022285078561185,-0.5535257496775365,-0.23798798811267877,0.09553424919756832,0.0
0.5323192477037157,-0.4140372192882334,-0.25406167718378303,-0.5992623758978591,0.07677623422610139,-0.008254843661378386,0.0
0.48513290251526753,-0.3800870164508641,-0.24254518118996266,-0.6412654408689216,0.303567891771598,-0.11490051316874217,0.0
0.4064888470270312,-0.2782364079387564,-0.20799565960988803,-0.6505994350678694,0.41656019362497215,-0.14251413195588677,0.0
0.34671919745742547,-0.21882353440197383,-0.14273545964721665,-0.6286645122700232,0.37136324925835684,-0.08347812938826872,0.0
0.3341361133375087,-0.15092312872723523,-0.1197024508602692,-0.573593846312854,0.19218978619046734,-0.05967329301497545,0.0
0.37503113672723754,-0.16789823014591992,-0.1043471116689708,-0.5413915390037449,0.0751620576415794,-0.028250909234501995,0.0
0.40963461805701024,-0.13394802730855068,-0.1043471116689708,-0.46531934056104457,0.09049672535067749,-0.004446069957788288,0.0
0.48198713148528893,-0.15092312872723523,-0.21567332920553717,-0.40744848089798097,0.20268192414599953,-0.05015135730428997,0.0
0.48827867354524657,-0.295211509357441,-0.24638400758813386,-0.3883137518060291,0.41898142897017315,-0.07586058778792938,0.0
0.4788413604553099,-0.3800870164508641,-0.25790052038126104,-0.4046482644231371,0.5666785175469087,-0.033011874186424296,0.0
0.4127803890869888,-0.5328629292190258,-0.2387063379924847,-0.3733793246573936,0.5295524757906247,-0.05872109886322281,0.0
0.39075999187713434,-0.5753007013371235,-0.22718984199866432,-0.31504176983817256,0.39154044672102095,-0.013968005668473761,0.0
0.3215530292175922,-0.7959770569227965,-0.2348675115943135,-0.22123496192541692,0.23819378931776153,0.07458599237611255,0.0
0.2932413102090201,-0.9657280711096433,-0.16576848523347096,-0.12882825371172718,0.12197315398306492,0.1383829569922325,0.0
0.28065822608910335,-0.982703135385555,-0.12738012045591812,-0.08589180127446831,0.16474880394131516,0.13933515114398515,0.0
0.29638708123899893,-0.9232902989915452,0.010817949065073463,-0.028020935919167374,0.12923693876955314,0.06315966836192177,0.0
0.3089701653589154,-0.8553898933168064,0.049206280244012676,-0.09289231400039119,0.13730781184830235,-0.06443425796689775,0.0
0.34671919745742547,-0.7026139434058721,0.11830532340416196,-0.2021002385257024,0.20913863048408737,-0.23297250669029662,0.0
0.3876142208471553,-0.5837882706178527,0.11062763700920614,-0.3043076560173281,0.13407946852311906,-0.38246688399232465,0.0
0.4442378791255397,-0.4479874221256026,0.056883966638968816,-0.376646236288395,0.10663848627396687,-0.45959455221587936,0.0
0.4348005660356015,-0.37159944717013554,-0.0006985805273602496,-0.4317169022455642,0.1243944090159872,-0.4881603999958219,0.0
0.39075999187713434,-0.43101232070691803,-0.062119937292553704,-0.40744848089798097,0.07919749910288434,-0.27772562020898867,0.0
0.3844684498171742,-0.4649625235442873,-0.10050826847149288,-0.3855135581001345,0.098567603351357,-0.12632684298977376,0.0
0.39705153393709197,-0.4904251942437007,-0.11586360766279101,-0.3463106982194413,0.15264247955740037,-0.06824303457390826,0.0
0.3844684498171742,-0.5158878278003413,-0.15809079883851493,-0.1894993213112786,0.13246529193859705,-0.017776779372063865,0.0
0.3215530292175922,-0.7959770569227965,-0.16576848523347096,0.7728371848560981,-0.285606167824495,0.01269341316007738,0.0
0.3687395946672799,-0.7535392848046987,-0.21951217240301518,1.4005494331828048,-0.49302773096537955,0.13362198623346933,0.0
0.4694040473653732,-0.6686637405685026,-0.2809335291682086,1.5209581951463056,-0.5858428156683683,0.266929086183066,0.0
0.5857973552133613,-0.7365641462432415,-0.3423548901332286,0.24593227424478176,0.40687513411784015,0.08125134563154009,0.0
0.5040075286951429,-0.4904251942437007,-0.22718984199866432,-0.3449106013664941,0.8580371449566082,-0.28343876189214107,0.0
0.4033430759970501,-0.2782364079387564,-0.15809079883851493,-0.5124560977877385,0.9290609146755746,-0.5052998715000058,0.0
0.3341361133375087,-0.12546047659920836,-0.10050826847149288,-0.3449106013664941,0.7797496298265959,-0.4624511462848191,0.0
0.2932413102090201,-0.006634752739876158,-0.1043471116689708,-0.18296551512598794,0.5222886910041366,-0.2853431501956464,0.0
0.28065822608910335,0.09521586273650148,-0.10050826847149288,-0.06068997253785804,0.40445385939719675,-0.09014348845053713,0.0
0.3089701653589154,0.13765361860463637,-0.10818595486644872,0.047117860826743414,0.3213238342013398,0.08315573103162495,0.0
0.3152614871576341,0.09521586273650148,-0.07363643328637391,0.11572282292617664,0.2099457089324877,0.13552637453697458,0.0
0.3152614871576341,0.06975320886740706,-0.08515292928019444,0.18992821797529758,0.1243944090159872,0.11267373231543398,0.0
0.2554920578492701,-0.0830227137668036,-0.10818595486644872,0.2239973514469355,0.013016302358184245,0.07458599237611255,0.0
0.23976320269937457,-0.24428618653000075,-0.17344615482912012,0.16705988209618688,-0.13225949073351428,0.11648250311560368,0.0
0.236617431669395,-0.2697488386580276,-0.19264032041858964,0.06718598023101018,-0.24686594948368898,0.14600051020625357,0.0
0.236617431669395,-0.2697488386580276,-0.19264032041858964,-0.0667570835669912,-0.4534804144884519,0.2288413433403241,0.0
0.4001973049670705,-0.3376492443327662,-0.21951217240301518,-0.17736510921442766,-0.7125555495831544,0.26978565702464213,5.0
0.5732142710934456,-0.21882353440197383,-0.19264032041858964,-0.3164418666911197,-0.8667093838734207,0.2355066907889108,5.0
0.5732142710934456,-0.21882353440197383,-0.19264032041858964,-0.43545050903272303,-0.6334609953801845,0.12600443882628912,5.0
0.7336481530999008,0.15462872466616753,-0.2348675115943135,-0.5493254249652708,-0.20328322107703836,-0.03872503909694009,5.0
0.6581498686416425,0.15462872466616753,-0.19264032041858964,-0.7845425159425828,0.5618359681056215,-0.329144057948904,5.0
0.6581498686416425,0.15462872466616753,-0.19264032041858964,-0.7630742655319447,1.0501240994515586,-0.42721997428365327,5.0
0.3530107395173831,0.11219096647660941,-0.058281094095075744,-0.9021510614312389,1.2672306827241324,-0.27296463783654373,5.0
0.1831395444209899,0.0018527979694661354,0.13749950579293832,-0.6412654408689216,1.1235690651402839,-0.28058219105056487,5.0
0.1831395444209899,0.0018527979694661354,0.13749950579293832,-0.3528445100969693,0.38185538721388895,-0.026346520930996715,5.0
0.23347166063941618,-0.0745351630574613,0.20275970575560964,-0.3593783105900226,0.014630477866033957,-0.031107491689759896,5.0
0.39705153393709197,-0.04058496022009205,0.045367437046534724,-0.20350033822476832,0.3277805208517062,-0.006350458261293567,5.0
0.39705153393709197,-0.04058496022009205,0.045367437046534724,-0.17129800103141318,0.38427666193453264,-0.04919916315253736,5.0
0.36559382363730136,0.018827899388150764,-0.0006985805273602496,-0.26603820921789917,0.35280024806793603,-0.11013955402366071,5.0
0.36244805260732227,0.018827899388150764,-0.031409258909957126,-0.3337097923894921,0.33907975694336023,-0.16822335082584447,5.0
0.4033430759970501,-0.09151026447614591,0.02617328825637194,-0.3677789372456048,0.3681348960893128,-0.27772562020898867,5.0
0.4159259398557281,-0.11697292588986599,-0.02373157251500099,-0.3495775984659679,0.3753987202512439,-0.24344665397325732,5.0
0.34671919745742547,-0.05756006163877663,0.018495601861416106,-0.2968404424430104,0.23819378931776153,-0.12632684298977376,5.0
0.3089701653589154,-0.02360985880140739,0.07223930583026691,-0.22683536641391785,0.054177776808584786,-0.044438198200615016,5.0
0.3089701653589154,-0.03209740951074969,0.07223930583026691,-0.027087534222377658,-0.20973992741512626,0.09934301999773797,5.0
0.3341361133375087,-0.04907251092943433,0.09143348821904328,0.264600308180576,-0.4809213967376041,0.2612159212725502,5.0
0.4064888470270312,-0.06604761234811894,0.03768978425019246,0.5450873074531037,-0.3622794866822639,0.2983514583498577,5.0
0.5008617576651643,-0.1763857808552622,-0.1043471116689708,0.30333643875168775,0.342308110112404,0.1412395394474904,5.0
0.4945702156052067,-0.22731108511131617,-0.13505779005156746,-0.14282926920215758,0.9992775665706985,-0.03872503909694009,5.0
0.42221748191568576,-0.18487333156460453,-0.012215076521180772,-0.24970369090855385,0.9831357613500361,-0.14441852025939209,5.0
0.3309903423075299,-0.19336088227394688,0.06456161943531108,-0.1834322159743828,0.825753692017054,-0.16727116828777355,5.0
0.29953285226897824,-0.14243557801789297,0.13749950579293832,-0.08355830272473137,0.5343949858564694,-0.1710799448947841,5.0
0.28380399711908266,-0.0830227137668036,0.13749950579293832,-0.04902245702022393,0.27774108610696785,-0.14632290856289737,5.0
0.2869497681490615,0.2395042410452838,0.11446648020668401,-0.05788976744748889,0.19218978619046734,-0.06633864627040302,5.0
0.3026786232989573,0.324379748138707,0.1566936545831011,-0.03922174489616927,0.0727407976867268,0.0364982506221533,5.0
0.28065822608910335,0.4177428245128588,0.1528548449842367,-0.08262490102794166,-0.20328322107703836,0.1717097290762112,5.0
0.29638708123899893,0.29891709601068006,0.12214416660164015,-0.13536205989701786,-0.38326380196877075,0.21455844267771632,5.0
0.3152614871576341,0.2055540289222215,0.08375580182408744,-0.2147011500478889,-0.4776930435685601,0.3269172829024367,5.0
0.36244805260732227,0.07824076015710521,0.06456161943531108,-0.24970369090855385,-0.4591300423781396,0.3126343590124655,5.0
0.45682096324545596,-0.09151026447614591,-0.012215076521180772,-0.38504684017502777,-0.2573580874392211,0.2840685576872499,5.0
0.4788413604553099,-0.1763857808552622,-0.0467645981012553,-0.48258726625941695,0.03722893497592991,0.2059886953119426,5.0
0.4631125053054131,-0.19336088227394688,-0.10818595486644872,-0.48305396141557444,0.30921749997356435,0.1412395394474904,5.0
0.4001973049670705,-0.19336088227394688,-0.1197024508602692,-0.4746533575289417,0.36894201391315584,0.0660162508171797,5.0
0.3309903423075299,-0.18487333156460453,-0.05444225089759756,-0.40558167750440155,0.23900086776616186,-0.009207037813131041,5.0
0.3089701653589154,-0.11697292588986599,0.056883966638968816,-0.2800392232852702,0.028350969913471986,-0.001589490405950841,5.0
0.3058243943289366,-0.0999978244711814,0.06456161943531108,-0.17129800103141318,-0.1306453141489923,0.01269341316007738,5.0
0.3215530292175922,-0.0999978244711814,0.03768978425019246,-0.08169149933115195,-0.1621217477033101,-0.017776779372063865,5.0
0.3498649684874045,-0.11697292588986599,0.045367437046534724,-0.11156033370559214,-0.15485794322910054,-0.05396013391130049,5.0
0.37503113672723754,-0.0999978244711814,0.06456161943531108,-0.14889637596211272,-0.091905105652047,-0.014920199820226411,5.0
0.3844684498171742,-0.09151026447614591,0.049206280244012676,-0.1540300817368078,-0.030566434815654735,0.015549992711914849,5.0
0.39075999187713434,-0.02360985880140739,0.0760781154291313,-0.1502964777957676,0.0009099864338372191,0.030785089340913032,5.0
0.39705153393709197,0.027315452418916374,0.05304512344149056,-0.1964998311910828,-0.018460120275600615,-0.02063336182732179,5.0
0.4316547950056224,-0.015122303449218524,0.010817949065073463,-0.24036967963289405,-0.018460120275600615,-0.033011874186424296,5.0
0.4285090239756439,-0.0830227137668036,-0.008376233323702818,-0.3043076560173281,0.056599041685367724,-0.07109961702916619,5.0
0.39075999187713434,-0.15092312872723523,0.006979105867595583,-0.3369766926360188,0.11228809447593312,-0.05205574560779524,5.0
0.34042765539746783,-0.16789823014591992,0.045367437046534724,-0.3327763906927024,0.06789826793316088,-0.008254843661378386,5.0
0.3215530292175922,-0.16789823014591992,0.10678882741034175,-0.30664115456706514,-0.0854483993139591,0.03745044404805082,5.0
0.3530107395173831,-0.20184843298328922,0.07991695862660948,-0.27630562788258606,-0.1484012467348733,0.05078115309939884,5.0
0.37503113672723754,-0.21882353440197383,0.045367437046534724,-0.2688384143082684,-0.08706257589848106,0.006028057001229376,5.0
0.36244805260732227,-0.26126130652007173,0.05304512344149056,-0.29870724583658986,0.04368563639208745,-0.012063620268388938,5.0
0.3498649684874045,-0.22731108511131617,0.045367437046534724,-0.2665049157585314,0.05014234026921019,-0.031107491689759896,5.0
0.36559382363730136,-0.22731108511131617,0.030012097855236324,-0.23476927514439308,0.061441566517003346,-0.013015811516721144,5.0
0.3844684498171742,-0.20184843298328922,0.006979105867595583,-0.21283434665430945,0.13730781184830235,0.026976315274395375,5.0
0.3844684498171742,-0.19336088227394688,0.018495601861416106,-0.1824988142775931,0.12762276218503116,-0.0006372962541981852,5.0
0.37503113672723754,-0.21882353440197383,0.02617328825637194,-0.16196399082304788,0.14779995964769513,0.010789024856572113,5.0
0.36244805260732227,-0.19336088227394688,0.030012097855236324,-0.14796297497685265,0.10986682959915015,-0.007302652413046218,5.0
0.337281884367488,-0.1763857808552622,0.0760781154291313,-0.1535633812441778,0.013016302358184245,0.016502186863667487,5.0
0.3184072581876134,-0.15941067943657758,0.11830532340416196,-0.1423625683537627,-0.11046812653018899,0.025071928422600323,5.0
0.32784457127755057,-0.12546047659920836,0.10678882741034175,-0.12322784637710757,-0.20973992741512626,0.03745044404805082,5.0
0.3341361133375087,-0.11697292588986599,0.08759464502156539,-0.13209515680437253,-0.23798798811267877,0.03935483126277343,5.0
0.3530107395173831,-0.13394802730855068,0.03768978425019246,-0.1652308949829877,-0.23879508624880041,0.005075865752897175,5.0
0.3687395946672799,-0.14243557801789297,0.045367437046534724,-0.17456490554711784,-0.2040902995254387,-0.06919522872566092,5.0
0.37503113672723754,-0.1763857808552622,0.041528627447670344,-0.13209515680437253,-0.2040902995254387,-0.024442132627491446,5.0
0.39705153393709197,-0.18487333156460453,0.033850941052714204,-0.0905588097584169,-0.21781079065001474,0.024119734996702797,5.0
0.4285090239756439,-0.16789823014591992,0.02617328825637194,-0.007019414818110835,-0.17745641541240817,0.12505225048137736,5.0
0.4253632529456643,-0.20184843298328922,-0.012215076521180772,0.02891653343158123,-0.0507436322783187,0.1583790225653561,5.0
0.4033430759970501,-0.21033598369263148,-0.01989272931752311,0.035450345309109225,0.009787951342484823,0.17647069983497438,5.0
0.3844684498171742,-0.25277373723934304,-0.008376233323702818,0.021916026397895732,0.0267367945594326,0.16313999332411927,5.0
0.35615651054736164,-0.2357986358206584,0.014656758663937921,0.015382214520367738,-0.006353803274581319,0.14504831605450091,5.0
0.34042765539746783,-0.15941067943657758,0.05304512344149056,0.024249524947632713,-0.05881450535706791,0.16694875831744804,5.0
0.3309903423075299,-0.0999978244711814,0.060722776237833204,0.028449826890949,-0.10966103823792799,0.17551850568322178,5.0
0.36244805260732227,-0.015122303449218524,0.033850941052714204,0.01678231137331498,-0.1427516385329071,0.2031321128566847,5.0
0.36559382363730136,-0.04058496022009205,0.006979105867595583,0.014448812823578001,-0.14597998185809036,0.22408037258156088,5.0
0.39075999187713434,-0.04907251092943433,0.041528627447670344,-0.006552708277478581,-0.1693855324897983,0.18694482389057165,5.0
0.38132267878719517,-0.09151026447614591,0.041528627447670344,-0.03642155119027482,-0.127416970823809,0.1717097290762112,5.0
0.3844684498171742,-0.11697292588986599,0.018495601861416106,-0.06115667907849025,-0.13306657902577526,0.11267373231543398,5.0
0.3844684498171742,-0.16789823014591992,0.0031402626701176285,-0.06255677593143746,-0.14678707015035136,0.1098171498601761,5.0
0.38132267878719517,-0.12546047659920836,0.018495601861416106,-0.08262490102794166,-0.15889339453426612,0.070777215769102,5.0
0.3844684498171742,-0.11697292588986599,-0.0006985805273602496,-0.0882253055164426,-0.1427516385329071,0.05554212095474157,5.0
0.38132267878719517,-0.13394802730855068,-0.01989272931752311,-0.09849271848889214,-0.11450355814763326,0.04982896039935643,5.0
0.38132267878719517,-0.13394802730855068,-0.008376233323702818,-0.1134271342530529,-0.12176735277798212,0.03745044404805082,5.0
0.3530107395173831,-0.1084853751805237,-0.012215076521180772,-0.11109363285719728,-0.12418861765476508,0.06030308881008431,5.0
0.3687395946672799,-0.13394802730855068,-0.016053919718658726,-0.11669404019181691,-0.127416970823809,0.05839870050657904,5.0
0.37503113672723754,-0.13394802730855068,-0.027570415712478945,-0.12462794892229213,-0.12338152936250409,0.07649037777619737,5.0
0.39075999187713434,-0.18487333156460453,-0.03524806850882151,-0.12322784637710757,-0.10562559677662305,0.08220353978329274,5.0
0.39075999187713434,-0.19336088227394688,-0.03908691170629939,-0.10689332806776224,-0.10723977336114504,0.10219960245299589,5.0
0.39075999187713434,-0.19336088227394688,-0.03908691170629939,-0.09942612018568185,-0.07576334965068793,0.09458205504581567,5.0
0.4064888470270312,-0.15092312872723523,-0.058281094095075744,-0.12042764413285709,-0.02249555927594037,0.07839476607970265,5.0
0.4001973049670705,-0.15941067943657758,-0.07363643328637391,-0.12229444468031785,0.0267367945594326,0.07934696023145525,5.0
0.4001973049670705,-0.15941067943657758,-0.07363643328637391,-0.13536205989701786,0.04287854809982648,0.043163604966363525,5.0
0.3844684498171742,-0.15941067943657758,-0.031409258909957126,-0.13162845595597766,0.11632353593723803,0.04506799254401369,5.0
0.371885365697259,-0.15941067943657758,-0.04292575490377735,-0.1180941398908828,0.09291799022746042,0.03268947646490375,5.0
0.371885365697259,-0.15941067943657758,-0.04292575490377735,-0.11529393764663233,0.0896896370584165,0.10124740830124324,5.0
0.371885365697259,-0.15941067943657758,-0.0467645981012553,-0.13349525792649775,0.11309518276819408,0.08029915147978747,5.0
0.37503113672723754,-0.15941067943657758,-0.02373157251500099,-0.1521632797662877,0.11551644764497704,0.05744650780653662,5.0
0.37503113672723754,-0.15941067943657758,-0.02373157251500099,-0.1558968838852103,0.0727407976867268,0.05839870050657904,5.0
0.3687395946672799,-0.14243557801789297,0.0031402626701176285,-0.12556134777296318,0.023508442620871237,0.061255282961836945,5.0
0.3844684498171742,-0.12546047659920836,-0.027570415712478945,-0.1264947494697529,-0.008775066920881692,0.070777215769102,5.0
0.3844684498171742,-0.12546047659920836,-0.027570415712478945,-0.12042764413285709,-0.003932540858763529,0.061255282961836945,5.0
0.3844684498171742,-0.11697292588986599,-0.01989272931752311,-0.14842967511371785,0.033193495975590154,0.004123671601144541,5.0
0.3844684498171742,-0.15941067943657758,-0.03524806850882151,-0.1638307931493328,0.029965145267511376,-0.008254843661378386,5.0
0.3844684498171742,-0.15941067943657758,-0.03908691170629939,-0.17643170751763795,0.054984865100845756,0.034593863498162576,5.0
0.3687395946672799,-0.12546047659920836,-0.04292575490377735,-0.1768984083660328,0.04126437397626968,0.024119734996702797,5.0
0.3687395946672799,-0.11697292588986599,-0.03908691170629939,-0.1778318086397632,0.03722893497592991,0.020310960567257588,5.0
0.37503113672723754,-0.13394802730855068,-0.03524806850882151,-0.16149729033041785,-0.007160891566842306,0.059350894658331675,5.0
0.38132267878719517,-0.13394802730855068,-0.008376233323702818,-0.16476419413459284,0.006559600172975078,0.0279285087002929,5.0
0.3781769077572166,-0.11697292588986599,-0.027570415712478945,-0.174098204698723,0.017051741204713686,0.009836832156529697,5.0
0.37503113672723754,-0.15092312872723523,-0.012215076521180772,-0.1834322159743828,0.023508442620871237,0.03554605701479199,5.0
0.37503113672723754,-0.16789823014591992,-0.004537390126224633,-0.18109871315546786,0.03077223355977236,0.0279285087002929,5.0
0.3844684498171742,-0.13394802730855068,0.006979105867595583,-0.180632012307073,0.03400058426785114,0.02126315471901022,5.0
0.3844684498171742,-0.11697292588986599,-0.01989272931752311,-0.1731648044249926,0.03480767256011212,0.015549992711914849,5.0
0.3876142208471553,-0.14243557801789297,-0.027570415712478945,-0.1638307931493328,0.03722893497592991,0.01459780001187243,5.0
0.37503113672723754,-0.15092312872723523,-0.016053919718658726,-0.16149729033041785,0.04207146226853067,0.030785089340913032,5.0
0.3781769077572166,-0.15092312872723523,-0.016053919718658726,-0.17363150385032813,0.04368563639208745,0.00698025115298201,5.0
0.3781769077572166,-0.15092312872723523,-0.004537390126224633,-0.1750316063955127,0.023508442620871237,0.022215347419052636,5.0
0.37503113672723754,-0.1084853751805237,-0.01989272931752311,-0.1624306913156779,0.008980863511654806,0.03935483126277343,5.0
0.37503113672723754,-0.13394802730855068,-0.008376233323702818,-0.16289739216407276,0.014630477866033957,0.020310960567257588,5.0
0.38132267878719517,-0.13394802730855068,-0.0006985805273602496,-0.16476419413459284,0.025122619205393215,0.043163604966363525,5.0
0.3844684498171742,-0.13394802730855068,-0.004537390126224633,-0.15963048818201533,0.033193495975590154,0.020310960567257588,5.0
0.3844684498171742,-0.14243557801789297,-0.004537390126224633,-0.16009718885252777,0.025122619205393215,0.04982896039935643,5.0
0.38132267878719517,-0.13394802730855068,0.006979105867595583,-0.1624306913156779,0.014630477866033957,0.02316754157080527,5.0
0.3844684498171742,-0.12546047659920836,-0.008376233323702818,-0.1470295739915926,0.018665916558753073,0.034593863498162576,5.0
0.3781769077572166,-0.15092312872723523,-0.027570415712478945,-0.14329597005055242,0.033193495975590154,0.04125921811456848,5.0
0.39075999187713434,-0.15092312872723523,-0.031409258909957126,-0.13676216244220243,0.04610690126887044,0.03840263747394834,5.0
0.39075999187713434,-0.15941067943657758,-0.03908691170629939,-0.13909566526111738,0.05014234026921019,0.02126315471901022,5.0
0.3781769077572166,-0.15941067943657758,-0.016053919718658726,-0.1274281511665426,0.0533706885163238,0.04602018524405611,5.0
0.371885365697259,-0.14243557801789297,-0.031409258909957126,-0.1180941398908828,0.04207146226853067,0.04125921811456848,5.0
0.3687395946672799,-0.15092312872723523,-0.008376233323702818,-0.12229444468031785,0.029965145267511376,0.03554605701479199,5.0
0.37503113672723754,-0.13394802730855068,-0.02373157251500099,-0.10876013146134167,0.028350969913471986,0.04792457209585116,5.0
0.37503113672723754,-0.15092312872723523,-0.008376233323702818,-0.12416124807389728,0.0017170734956156216,0.054589926802988936,5.0
0.3781769077572166,-0.1763857808552622,-0.06595878049003162,-0.12416124807389728,0.017858828881733377,0.046972379395808735,5.0
0.3844684498171742,-0.13394802730855068,-0.027570415712478945,-0.1227611455287127,0.03400058426785114,0.05554212095474157,5.0
0.371885365697259,-0.12546047659920836,-0.01989272931752311,-0.12322784637710757,0.03722893497592991,0.04602018524405611,5.0
0.3687395946672799,-0.13394802730855068,-0.012215076521180772,-0.12229444468031785,0.0025241617878766073,0.06982502452076979,5.0
0.37503113672723754,-0.12546047659920836,-0.0006985805273602496,-0.1274281511665426,-0.012810504690738873,0.07839476607970265,5.0
0.371885365697259,-0.16789823014591992,0.022334445058893985,-0.13069505425918795,-0.028952260692097914,0.070777215769102,5.0
0.37503113672723754,-0.12546047659920836,-0.008376233323702818,-0.1358287607454127,-0.003932540858763529,0.07649037777619737,5.0
0.37503113672723754,-0.09151026447614591,-0.01989272931752311,-0.1470295739915926,0.005752512495955385,0.06982502452076979,5.0
0.38132267878719517,-0.12546047659920836,-0.016053919718658726,-0.1423625683537627,0.01059503909640968,0.054589926802988936,5.0
0.39075999187713434,-0.12546047659920836,0.006979105867595583,-0.14096246723163747,0.023508442620871237,0.06506405666542707,5.0
0.3876142208471553,-0.11697292588986599,-0.004537390126224633,-0.14189586750536784,0.024315530913132224,0.04792457209585116,5.0
0.39075999187713434,-0.13394802730855068,-0.016053919718658726,-0.1535633812441778,0.025929706267171608,0.059350894658331675,5.0
0.39075999187713434,-0.12546047659920836,-0.008376233323702818,-0.14656287314319774,0.03400058426785114,0.03840263747394834,5.0
0.39075999187713434,-0.13394802730855068,-0.01989272931752311,-0.13536205989701786,0.06709117964089988,0.02888070248911798,5.0
0.3876142208471553,-0.13394802730855068,-0.01989272931752311,-0.1474962741284578,0.06386283139378628,0.024119734996702797,5.0
0.3781769077572166,-0.14243557801789297,-0.01989272931752311,-0.15823038661518407,0.03722893497592991,0.00698025115298201,5.0
0.37503113672723754,-0.11697292588986599,-0.012215076521180772,-0.15916378768938533,0.04045728568400868,0.004123671601144541,5.0
0.37503113672723754,-0.15092312872723523,-0.01989272931752311,-0.15636358446678156,0.013823390189014262,-0.007302652413046218,5.0
0.38132267878719517,-0.13394802730855068,0.006979105867595583,-0.15496348289995027,-0.0023183655047241433,0.015549992711914849,5.0
0.38132267878719517,-0.13394802730855068,0.006979105867595583,-0.1376955627159328,-0.029759348984358912,0.020310960567257588,5.0
0.3876142208471553,-0.0999978244711814,-0.008376233323702818,-0.1227611455287127,-0.03379478798469866,0.0279285087002929,5.0
0.39390576290711293,-0.15092312872723523,-0.008376233323702818,-0.14002906553484776,0.006559600172975078,0.06315966836192177,5.0
0.3844684498171742,-0.15941067943657758,-0.027570415712478945,-0.1502964777957676,0.024315530913132224,0.024119734996702797,5.0
0.371885365697259,-0.16789823014591992,-0.008376233323702818,-0.1610305898377878,0.0267367945594326,0.017454379563709897,5.0
0.38132267878719517,-0.15941067943657758,-0.008376233323702818,-0.1442293703242828,-0.020074294399157415,0.03268947646490375,5.0
0.39390576290711293,-0.16789823014591992,0.006979105867595583,-0.13536205989701786,0.027543881621211005,0.046972379395808735,5.0
0.4064888470270312,-0.15092312872723523,-0.027570415712478945,-0.1554301833925803,0.09291799022746042,-0.006350458261293567,5.0
0.39075999187713434,-0.15941067943657758,-0.03524806850882151,-0.2072339421658085,0.12197315398306492,-0.013968005668473761,5.0
0.3687395946672799,-0.14243557801789297,-0.0467645981012553,-0.223101759626759,0.17362676531232532,-0.05205574560779524,5.0
0.3687395946672799,-0.14243557801789297,-0.004537390126224633,-0.22030156022862718,0.135693645107641,-0.01682458522031124,5.0
0.37503113672723754,-0.11697292588986599,0.022334445058893985,-0.2072339421658085,0.11067391789141115,-0.014920199820226411,5.0
0.3781769077572166,-0.12546047659920836,0.006979105867595583,-0.1768984083660328,0.07031953280994384,0.00698025115298201,5.0
0.3844684498171742,-0.16789823014591992,-0.008376233323702818,-0.17363150385032813,0.03077223355977236,0.029832895915015506,5.0
0.36559382363730136,-0.16789823014591992,-0.008376233323702818,-0.16616429596824775,0.027543881621211005,0.013645605860119798,5.0
0.36559382363730136,-0.16789823014591992,-0.008376233323702818,-0.13396195877489261,0.019473004235772768,0.0526855399511939,5.0
0.36559382363730136,-0.16789823014591992,-0.008376233323702818,-0.12229444468031785,0.04772107539242723,0.017454379563709897,5.0
0.3687395946672799,-0.1763857808552622,0.0031402626701176285,-0.13862896441272252,0.02915805697525039,0.010789024856572113,5.0
0.35615651054736164,-0.13394802730855068,0.018495601861416106,-0.16009718885252777,0.031579320621550756,0.007932445304734644,5.0
0.371885365697259,-0.13394802730855068,0.010817949065073463,-0.17549830582084822,0.00817377583463511,-0.008254843661378386,5.0
0.37503113672723754,-0.09151026447614591,0.014656758663937921,-0.16196399082304788,0.0009099864338372191,0.022215347419052636,5.0
0.37503113672723754,-0.09151026447614591,0.014656758663937921,-0.15262998025891772,-0.014424681275260844,0.02888070248911798,5.0
0.39075999187713434,-0.11697292588986599,-0.004537390126224633,-0.14189586750536784,0.028350969913471986,0.07458599237611255,5.0
0.3844684498171742,-0.09151026447614591,-0.01989272931752311,-0.14002906553484776,0.04529981297660944,0.05078115309939884,5.0
0.371885365697259,-0.14243557801789297,-0.012215076521180772,-0.15823038661518407,0.04772107539242723,0.053637734102946526,5.0
0.37503113672723754,-0.12546047659920836,0.022334445058893985,-0.15916378768938533,0.03642184668366893,0.03268947646490375,5.0
0.3844684498171742,-0.1084853751805237,-0.0006985805273602496,-0.17269810357659776,0.03965019739174771,0.018406573715462535,5.0
0.3844684498171742,-0.1084853751805237,-0.0006985805273602496,-0.16009718885252777,0.03884311156045189,0.02126315471901022,5.0
0.37503113672723754,-0.12546047659920836,0.022334445058893985,-0.15449678222943783,0.03480767256011212,0.05554212095474157,5.0
0.3687395946672799,-0.12546047659920836,-0.008376233323702818,-0.16663099610511295,0.03965019739174771,0.04602018524405611,5.0
0.3687395946672799,-0.12546047659920836,-0.008376233323702818,-0.19930003343533328,0.04691398710016623,0.03935483126277343,5.0
0.35615651054736164,-0.12546047659920836,-0.008376233323702818,-0.2072339421658085,0.049335251976949206,0.051733347251151474,5.0
0.34671919745742547,-0.09151026447614591,0.018495601861416106,-0.20303363737637348,0.04449272468434846,0.06506405666542707,5.0
0.34671919745742547,-0.09151026447614591,0.018495601861416106,-0.19930003343533328,0.03480767256011212,0.06696844206551189,5.0
0.36244805260732227,-0.11697292588986599,0.010817949065073463,-0.2053671387722291,-0.012003418859443053,0.04887676624760379,5.0
0.3781769077572166,-0.0745351630574613,0.045367437046534724,-0.20350033822476832,0.004138337141915994,0.013645605860119798,5.0
0.39075999187713434,-0.0745351630574613,0.045367437046534724,-0.2189014576834426,-0.028952260692097914,0.022215347419052636,5.0
0.39075999187713434,-0.09151026447614591,0.030012097855236324,-0.19883333258693842,0.04207146226853067,-0.00349387580603567,5.0
0.4001973049670705,-0.13394802730855068,0.07223930583026691,-0.14796297497685265,0.07839041081062335,0.015549992711914849,5.0
0.39705153393709197,-0.15941067943657758,0.018495601861416106,-0.14516277202107253,0.11390227106045507,0.03554605701479199,5.0
0.39390576290711293,-0.14243557801789297,-0.03524806850882151,-0.1605638893451578,0.10341013310492292,0.04887676624760379,5.0
0.3530107395173831,-0.14243557801789297,-0.008376233323702818,-0.174098204698723,0.10583139798170586,0.02126315471901022,5.0
0.3309903423075299,-0.13394802730855068,0.018495601861416106,-0.17736510921442766,0.05014234026921019,0.034593863498162576,5.0
0.34042765539746783,-0.1084853751805237,0.045367437046534724,-0.1624306913156779,0.0033312494648963004,0.029832895915015506,5.0
0.36559382363730136,-0.15941067943657758,0.033850941052714204,-0.1264947494697529,-0.02249555927594037,0.05744650780653662,5.0
0.39075999187713434,-0.13394802730855068,0.033850941052714204,-0.1264947494697529,0.006559600172975078,0.03554605701479199,5.0
0.3844684498171742,-0.13394802730855068,0.018495601861416106,-0.11389383510144775,0.03480767256011212,0.056494315106494206,5.0
0.39705153393709197,-0.1084853751805237,-0.0006985805273602496,-0.09009210891002205,0.017858828881733377,0.04602018524405611,5.0
0.39705153393709197,-0.15941067943657758,0.010817949065073463,-0.07142408635870243,0.0751620576415794,0.026976315274395375,5.0
0.3876142208471553,-0.15092312872723523,-0.01989272931752311,-0.09522581255012812,0.11067391789141115,0.043163604966363525,5.0
0.35930228157734323,-0.15941067943657758,0.010817949065073463,-0.11389383510144775,0.11228809447593312,0.05078115309939884,5.0
0.35615651054736164,-0.12546047659920836,0.030012097855236324,-0.11296043340465804,0.018665916558753073,0.08220353978329274,5.0
0.35615651054736164,-0.12546047659920836,0.030012097855236324,-0.11296043340465804,0.018665916558753073,0.08220353978329274,5.0
0.35930228157734323,-0.11697292588986599,0.03768978425019246,-0.10455982382578795,0.013823390189014262,0.07744257192795,5.0
0.37503113672723754,-0.13394802730855068,0.05304512344149056,-0.13069505425918795,0.035614758391407944,0.11076934401192871,5.0
0.3844684498171742,-0.13394802730855068,0.045367437046534724,-0.1134271342530529,0.03238640768332916,0.0974386375010736,5.0
0.3876142208471553,-0.15092312872723523,0.030012097855236324,-0.10922683230973652,0.015437565543053651,0.10219960245299589,5.0
0.39390576290711293,-0.0745351630574613,0.022334445058893985,-0.11716073819409309,0.03480767256011212,0.05744650780653662,5.0
0.3876142208471553,-0.13394802730855068,0.022334445058893985,-0.11016023116040756,0.06547700797830826,0.029832895915015506,5.0
0.37503113672723754,-0.15941067943657758,-0.004537390126224633,-0.1274281511665426,0.097760515059096,0.043163604966363525,5.0
0.36244805260732227,-0.15941067943657758,0.006979105867595583,-0.12789485201493747,0.08565420051904188,0.02888070248911798,5.0
0.3498649684874045,-0.14243557801789297,0.014656758663937921,-0.15309668075154775,0.03722893497592991,0.025071928422600323,5.0
0.34042765539746783,-0.12546047659920836,0.033850941052714204,-0.1442293703242828,-0.01684594369107864,0.06982502452076979,5.0
0.35930228157734323,-0.12546047659920836,0.02617328825637194,-0.14516277202107253,-0.02572390998401914,0.07172940992085462,5.0
0.3687395946672799,-0.11697292588986599,0.03768978425019246,-0.13209515680437253,-0.04509401423249182,0.08696450763863546,5.0
0.3687395946672799,-0.11697292588986599,0.049206280244012676,-0.13256185765276737,0.013016302358184245,0.0660162508171797,5.0
0.3876142208471553,-0.13394802730855068,0.014656758663937921,-0.15122987878102767,-0.001511277212463155,0.03554605701479199,5.0
0.3781769077572166,-0.1763857808552622,0.006979105867595583,-0.16196399082304788,-0.0007041889202021691,0.04125921811456848,5.0
0.3844684498171742,-0.1763857808552622,-0.008376233323702818,-0.1540300817368078,0.024315530913132224,0.013645605860119798,5.0
0.37503113672723754,-0.13394802730855068,0.022334445058893985,-0.14889637596211272,0.07435496934931843,0.007932445304734644,5.0
0.36559382363730136,-0.14243557801789297,-0.008376233323702818,-0.1722314027282029,0.05579195339310676,0.02126315471901022,5.0
0.3498649684874045,-0.15941067943657758,0.014656758663937921,-0.15823038661518407,0.03077223355977236,0.00698025115298201,5.0
0.3435734264274469,-0.14243557801789297,0.02617328825637194,-0.15823038661518407,0.013016302358184245,0.01935876786721517,5.0
0.35930228157734323,-0.15092312872723523,0.05304512344149056,-0.1442293703242828,0.005752512495955385,0.03935483126277343,5.0
0.38132267878719517,-0.1763857808552622,0.033850941052714204,-0.13909566526111738,0.004138337141915994,0.043163604966363525,5.0
0.39390576290711293,-0.15092312872723523,0.030012097855236324,-0.13442865962328748,0.00817377583463511,0.025071928422600323,5.0
0.39705153393709197,-0.14243557801789297,0.02617328825637194,-0.1395623646864529,0.06224865480926431,0.04792457209585116,5.0
0.39075999187713434,-0.11697292588986599,0.030012097855236324,-0.13722886186753794,0.11228809447593312,0.04602018524405611,5.0
0.37503113672723754,-0.1084853751805237,0.060722776237833204,-0.1507631779326328,0.10502430968944489,0.02888070248911798,5.0
0.3844684498171742,-0.0999978244711814,0.07223930583026691,-0.14469607117267766,0.10986682959915015,0.02602412184849785,5.0
0.3844684498171742,-0.0999978244711814,0.07223930583026691,-0.12089434498125196,0.05902030656215068,0.03840263747394834,5.0
0.3844684498171742,-0.0999978244711814,0.07223930583026691,-0.12089434498125196,0.05902030656215068,0.03840263747394834,5.0
0.3844684498171742,-0.15941067943657758,0.08375580182408744,-0.059289875684910814,0.09695342676683504,0.03840263747394834,5.0
0.37503113672723754,-0.15941067943657758,0.03768978425019246,-0.09009210891002205,0.15425665614192235,-0.007302652413046218,5.0
0.34671919745742547,-0.13394802730855068,0.006979105867595583,-0.134895359048623,0.1687842355587594,-0.06729084042215565,5.0
0.34042765539746783,-0.15092312872723523,0.030012097855236324,-0.1610305898377878,0.12681567389277018,-0.0463425865041203,5.0
0.35615651054736164,-0.14243557801789297,0.06456161943531108,-0.1311617551075828,0.098567603351357,0.009836832156529697,5.0
0.35615651054736164,-0.13394802730855068,0.07223930583026691,-0.08869200636483747,0.08000458739514534,0.044115798392261055,5.0
0.371885365697259,-0.11697292588986599,0.07223930583026691,-0.069557282965123,0.0711266211022048,0.09458205504581567,5.0
0.36559382363730136,-0.0745351630574613,0.07223930583026691,-0.10829343061294681,0.07677623422610139,0.13171759792996407,5.0
0.35615651054736164,-0.13394802730855068,0.056883966638968816,-0.13536205989701786,0.08807546539582488,0.1098171498601761,5.0
0.34671919745742547,-0.15941067943657758,0.049206280244012676,-0.15683028500388219,0.08242584734999796,0.12505225048137736,5.0
0.3530107395173831,-0.16789823014591992,0.05304512344149056,-0.1908994238564632,0.07435496934931843,0.11172153816368136,5.0
0.37503113672723754,-0.15941067943657758,0.02617328825637194,-0.18669911906702813,0.0727407976867268,0.05839870050657904,5.0
0.3781769077572166,-0.16789823014591992,0.030012097855236324,-0.17129800103141318,0.10179595652040092,0.08601231348688283,5.0
0.3844684498171742,-0.18487333156460453,0.06456161943531108,-0.1264947494697529,0.09211090193519945,0.12124347387436682,5.0
0.3781769077572166,-0.16789823014591992,0.045367437046534724,-0.10315972128060337,0.09614633847457404,0.09553424919756832,5.0
0.3687395946672799,-0.1763857808552622,0.049206280244012676,-0.10362642212899822,0.08404002393451993,0.07363379822435989,5.0
0.3530107395173831,-0.15941067943657758,0.056883966638968816,-0.10876013146134167,0.04691398710016623,0.05839870050657904,5.0
0.35615651054736164,-0.12546047659920836,0.060722776237833204,-0.09382571000494355,0.005752512495955385,0.070777215769102,5.0
0.35930228157734323,-0.11697292588986599,0.08375580182408744,-0.10035952188247158,-0.05639324540221527,0.07649037777619737,5.0
0.35615651054736164,-0.09151026447614591,0.0760781154291313,-0.12322784637710757,-0.012810504690738873,0.10124740830124324,5.0
0.35615651054736164,-0.09151026447614591,0.0760781154291313,-0.1395623646864529,-0.005546716212802917,0.09839083165282622,5.0
0.35615651054736164,-0.09151026447614591,0.0760781154291313,-0.13722886186753794,0.004138337141915994,0.11838689141910892,5.0
0.3687395946672799,-0.13394802730855068,0.05304512344149056,-0.12136104298352814,0.0267367945594326,0.08982109009389337,5.0
0.37503113672723754,-0.15092312872723523,0.07991695862660948,-0.11016023116040756,0.021087180205053447,0.07839476607970265,5.0
0.37503113672723754,-0.16789823014591992,0.07223930583026691,-0.12369454722550242,0.021087180205053447,0.044115798392261055,5.0
0.371885365697259,-0.18487333156460453,0.07223930583026691,-0.1358287607454127,0.020280091912792463,-0.001589490405950841,5.0
0.3844684498171742,-0.19336088227394688,0.06456161943531108,-0.1456294721579377,0.0267367945594326,0.03268947646490375,5.0
0.3687395946672799,-0.1763857808552622,0.08375580182408744,-0.1470295739915926,0.005752512495955385,0.034593863498162576,5.0
0.3530107395173831,-0.12546047659920836,0.11062763700920614,-0.14329597005055242,-0.013617592982999858,0.08220353978329274,5.0
0.35615651054736164,-0.15941067943657758,0.11830532340416196,-0.14002906553484776,-0.007967979859103292,0.056494315106494206,5.0
0.35615651054736164,-0.15941067943657758,0.11830532340416196,-0.13629546159380757,0.035614758391407944,0.06411186251367441,5.0
0.3687395946672799,-0.13394802730855068,0.07991695862660948,-0.1423625683537627,-0.0007041889202021691,0.04506799254401369,5.0
0.3687395946672799,-0.13394802730855068,0.07991695862660948,-0.15963048818201533,0.017858828881733377,0.042211411540466,5.0
0.3844684498171742,-0.20184843298328922,0.07991695862660948,-0.1442293703242828,0.01624465352769399,0.02602412184849785,5.0
0.3844684498171742,-0.1763857808552622,0.06456161943531108,-0.13442865962328748,0.03642184668366893,0.062207474210169145,5.0
0.39390576290711293,-0.1763857808552622,0.05304512344149056,-0.14329597005055242,0.06224865480926431,0.04125921811456848,5.0
0.39390576290711293,-0.16789823014591992,0.05304512344149056,-0.1493630760989779,0.08484711222678092,0.06506405666542707,5.0
0.39390576290711293,-0.16789823014591992,0.05304512344149056,-0.16009718885252777,0.07435496934931843,0.02602412184849785,5.0
0.39390576290711293,-0.16789823014591992,0.05304512344149056,-0.13676216244220243,0.06386283139378628,0.056494315106494206,5.0
0.3435734264274469,-0.15092312872723523,0.07223930583026691,-0.1376955627159328,0.019473004235772768,0.04125921811456848,5.0
0.3530107395173831,-0.16789823014591992,0.09527229781790765,-0.15169657891789284,-0.012003418859443053,0.043163604966363525,5.0
0.36244805260732227,-0.1763857808552622,0.07991695862660948,-0.1624306913156779,-0.028952260692097914,0.017454379563709897,5.0
0.36244805260732227,-0.1763857808552622,0.07991695862660948,-0.17596500666924308,-0.028952260692097914,0.04030702468867095,5.0
0.36244805260732227,-0.11697292588986599,0.06456161943531108,-0.1768984083660328,-0.007967979859103292,0.03745044404805082,5.0
0.36244805260732227,-0.11697292588986599,0.06456161943531108,-0.16009718885252777,0.005752512495955385,0.015549992711914849,5.0
0.36244805260732227,-0.15941067943657758,0.07991695862660948,-0.16009718885252777,-0.049129455693796745,-0.006350458261293567,5.0
0.36244805260732227,-0.15941067943657758,0.07991695862660948,-0.1586970871967553,-0.09351928223656895,-0.015872391068558617,5.0
0.36244805260732227,-0.15941067943657758,0.07991695862660948,-0.1586970871967553,-0.15001542331939527,-0.031107491689759896,5.0
0.34042765539746783,-0.14243557801789297,0.11062763700920614,-0.18669911906702813,-0.18552727864729668,-0.014920199820226411,5.0
0.34671919745742547,-0.09151026447614591,0.10678882741034175,-0.22030156022862718,-0.24040924314560108,-0.00349387580603567,5.0
0.34671919745742547,-0.0999978244711814,0.09143348821904328,-0.20443373992155803,-0.2751140298689629,-0.014920199820226411,5.0
0.37503113672723754,-0.14243557801789297,0.08375580182408744,-0.16803109793876786,-0.27753528490188495,0.008884639456487278,5.0
0.4001973049670705,-0.15092312872723523,0.05304512344149056,-0.16616429596824775,-0.22830292860554696,0.051733347251151474,5.0
0.4190717108857067,-0.21033598369263148,0.010817949065073463,-0.1689644989240279,-0.12176735277798212,0.07172940992085462,5.0
0.42221748191568576,-0.20184843298328922,0.018495601861416106,-0.1470295739915926,-0.07253499648164398,0.08220353978329274,5.0
0.4127803890869888,-0.19336088227394688,0.02617328825637194,-0.12182774383192299,-0.03460187627695967,0.11362592646718661,5.0
0.39075999187713434,-0.19336088227394688,0.006979105867595583,-0.10689332806776224,0.018665916558753073,0.12124347387436682,5.0
0.3781769077572166,-0.2357986358206584,-0.012215076521180772,-0.11949424243606738,0.10421722139718392,0.0974386375010736,5.0
0.36244805260732227,-0.21033598369263148,-0.004537390126224633,-0.15122987878102767,0.12278023243146524,0.070777215769102,5.0
0.34671919745742547,-0.16789823014591992,0.02617328825637194,-0.14469607117267766,0.08404002393451993,0.042211411540466,5.0
0.35930228157734323,-0.12546047659920836,0.05304512344149056,-0.12089434498125196,0.04772107539242723,0.07458599237611255,5.0
0.37503113672723754,-0.13394802730855068,0.030012097855236324,-0.07002398381351783,0.006559600172975078,0.11267373231543398,5.0
0.3844684498171742,-0.11697292588986599,0.06840046263278904,-0.04062185313359119,0.027543881621211005,0.11838689141910892,5.0
0.3876142208471553,-0.1763857808552622,0.03768978425019246,-0.048089055323434216,0.03884311156045189,0.10410399075650115,5.0
0.37503113672723754,-0.20184843298328922,0.018495601861416106,-0.10829343061294681,0.05982738993248135,0.05554212095474157,5.0
0.36244805260732227,-0.15941067943657758,0.045367437046534724,-0.12136104298352814,0.05579195339310676,0.03840263747394834,5.0
0.3530107395173831,-0.16789823014591992,0.018495601861416106,-0.134895359048623,0.04207146226853067,0.016502186863667487,5.0
0.3530107395173831,-0.13394802730855068,0.041528627447670344,-0.13396195877489261,0.028350969913471986,0.020310960567257588,5.0
0.36559382363730136,-0.14243557801789297,0.030012097855236324,-0.1493630760989779,0.02189426726683185,0.017454379563709897,5.0
0.3687395946672799,-0.15092312872723523,0.06840046263278904,-0.14982977694737276,0.0267367945594326,0.04982896039935643,5.0
0.3781769077572166,-0.13394802730855068,0.02617328825637194,-0.1470295739915926,0.04207146226853067,0.02888070248911798,5.0
0.3687395946672799,-0.14243557801789297,0.02617328825637194,-0.1456294721579377,0.023508442620871237,0.04982896039935643,5.0
0.3781769077572166,-0.15941067943657758,0.049206280244012676,-0.14376266947588795,0.03642184668366893,0.04030702468867095,5.0
0.371885365697259,-0.13394802730855068,0.045367437046534724,-0.14982977694737276,0.029965145267511376,0.022215347419052636,5.0
0.3687395946672799,-0.1084853751805237,0.018495601861416106,-0.16616429596824775,0.013823390189014262,0.015549992711914849,5.0
0.3781769077572166,-0.13394802730855068,0.041528627447670344,-0.1558968838852103,0.00010289814157623556,0.05744650780653662,5.0
0.35930228157734323,-0.15941067943657758,0.006979105867595583,-0.16476419413459284,-0.004739627920541934,0.044115798392261055,5.0
0.36244805260732227,-0.15941067943657758,0.03768978425019246,-0.1703646007576828,-0.0023183655047241433,0.03554605701479199,5.0
0.35615651054736164,-0.1763857808552622,0.041528627447670344,-0.1768984083660328,0.006559600172975078,0.016502186863667487,5.0
0.38132267878719517,-0.1763857808552622,0.05304512344149056,-0.1656975951198529,0.0009099864338372191,0.010789024856572113,5.0
0.38132267878719517,-0.15941067943657758,0.045367437046534724,-0.1722314027282029,0.02189426726683185,0.007932445304734644,5.0
0.3687395946672799,-0.12546047659920836,0.056883966638968816,-0.1684977987871627,-0.01523176956752184,0.02602412184849785,5.0
0.37503113672723754,-0.13394802730855068,0.045367437046534724,-0.1610305898377878,-0.024916821691758163,0.025071928422600323,5.0
0.36559382363730136,-0.15941067943657758,0.03768978425019246,-0.15169657891789284,-0.027338086568541118,0.061255282961836945,5.0
0.36559382363730136,-0.19336088227394688,0.014656758663937921,-0.15963048818201533,-0.030566434815654735,0.0526855399511939,5.0
0.3687395946672799,-0.16789823014591992,0.014656758663937921,-0.1778318086397632,-0.008775066920881692,0.017454379563709897,5.0
0.3781769077572166,-0.1763857808552622,0.07223930583026691,-0.17549830582084822,-0.028952260692097914,0.04030702468867095,5.0
0.39705153393709197,-0.1763857808552622,0.03768978425019246,-0.15916378768938533,-0.044286925940230815,0.0526855399511939,5.0
0.3844684498171742,-0.1763857808552622,0.022334445058893985,-0.14049576638324263,-0.01765303198333961,0.03173728294827433,5.0
0.3844684498171742,-0.13394802730855068,0.014656758663937921,-0.14049576638324263,-0.008775066920881692,0.07268160407260726,5.0
0.3876142208471553,-0.15092312872723523,0.0031402626701176285,-0.1442293703242828,-0.041058577693117215,0.06792063621726452,5.0
0.37503113672723754,-0.15941067943657758,-0.0006985805273602496,-0.15963048818201533,0.018665916558753073,0.07363379822435989,5.0
0.3781769077572166,-0.19336088227394688,0.02617328825637194,-0.1507631779326328,0.023508442620871237,0.04506799254401369,5.0
0.3781769077572166,-0.19336088227394688,0.02617328825637194,-0.14329597005055242,0.014630477866033957,0.026976315274395375,5.0
0.37503113672723754,-0.11697292588986599,-0.0006985805273602496,-0.15309668075154775,-0.003932540858763529,0.03268947646490375,5.0
0.36559382363730136,-0.11697292588986599,0.006979105867595583,-0.1624306913156779,-0.005546716212802917,0.034593863498162576,5.0
0.36559382363730136,-0.11697292588986599,0.006979105867595583,-0.16663099610511295,-0.041058577693117215,0.04602018524405611,5.0
0.3498649684874045,-0.14243557801789297,0.045367437046534724,-0.15309668075154775,-0.047515279109274756,0.07458599237611255,5.0
0.35930228157734323,-0.15092312872723523,0.045367437046534724,-0.16196399082304788,-0.05639324540221527,0.07934696023145525,5.0
0.35930228157734323,-0.15092312872723523,0.045367437046534724,-0.1624306913156779,-0.08948384077526404,0.04982896039935643,5.0
0.3781769077572166,-0.1763857808552622,0.010817949065073463,-0.174098204698723,-0.06042868194158987,0.05078115309939884,5.0
0.3844684498171742,-0.19336088227394688,0.006979105867595583,-0.18669911906702813,-0.04832236740153574,0.03268947646490375,5.0
0.36559382363730136,-0.15092312872723523,0.030012097855236324,-0.1824988142775931,-0.06123577023385087,0.020310960567257588,5.0
0.35615651054736164,-0.16789823014591992,0.03768978425019246,-0.16196399082304788,-0.06123577023385087,0.04125921811456848,5.0
0.35930228157734323,-0.15941067943657758,0.049206280244012676,-0.164297493286198,-0.06365703511063381,0.054589926802988936,5.0
0.38132267878719517,-0.16789823014591992,-0.0006985805273602496,-0.167564397090373,-0.04509401423249182,0.053637734102946526,5.0
0.39075999187713434,-0.14243557801789297,-0.0006985805273602496,-0.2025669365279786,0.00817377583463511,0.01459780001187243,5.0
0.37503113672723754,-0.21882353440197383,0.014656758663937921,-0.1978999308901487,-0.009582153982660097,0.02602412184849785,5.0
0.37503113672723754,-0.15941067943657758,0.03768978425019246,-0.17269810357659776,-0.006353803274581319,0.03268947646490375,5.0
0.38132267878719517,-0.16789823014591992,0.05304512344149056,-0.15262998025891772,-0.03702313623181229,0.04602018524405611,5.0
0.3844684498171742,-0.15092312872723523,0.022334445058893985,-0.13676216244220243,-0.009582153982660097,0.04792457209585116,5.0
0.3781769077572166,-0.18487333156460453,0.041528627447670344,-0.1143605359498426,-0.018460120275600615,0.04125921811456848,5.0
0.36244805260732227,-0.15941067943657758,0.03768978425019246,-0.09242561315199634,-0.012810504690738873,0.062207474210169145,5.0
0.35615651054736164,-0.1763857808552622,0.022334445058893985,-0.10455982382578795,-0.02168847098367939,0.06411186251367441,5.0
0.36244805260732227,-0.19336088227394688,0.006979105867595583,-0.14282926920215758,-0.007160891566842306,0.04030702468867095,5.0
0.3687395946672799,-0.21882353440197383,-0.008376233323702818,-0.15916378768938533,-0.01765303198333961,0.03935483126277343,5.0
0.371885365697259,-0.19336088227394688,0.02617328825637194,-0.1442293703242828,-0.028952260692097914,0.06696844206551189,5.0
0.3781769077572166,-0.21033598369263148,0.02617328825637194,-0.12602804862135802,-0.05316489223317134,0.11267373231543398,5.0
0.3844684498171742,-0.18487333156460453,-0.004537390126224633,-0.12322784637710757,-0.044286925940230815,0.08125134563154009,5.0
0.39075999187713434,-0.14243557801789297,0.006979105867595583,-0.09149221145520663,-0.047515279109274756,0.09458205504581567,5.0
0.39705153393709197,-0.1763857808552622,0.006979105867595583,-0.06349017762822719,-0.06849955994226939,0.07744257192795,5.0
0.39075999187713434,-0.1763857808552622,-0.0006985805273602496,-0.0644235793250169,-0.04186566598537819,0.08886889594214073,5.0
0.371885365697259,-0.1763857808552622,0.006979105867595583,-0.06722378441538607,-0.044286925940230815,0.06696844206551189,5.0
0.36244805260732227,-0.16789823014591992,0.02617328825637194,-0.05508956235711974,-0.071727908189383,0.06792063621726452,5.0
0.371885365697259,-0.19336088227394688,0.018495601861416106,-0.05322277034801501,-0.07092082481905235,0.09839083165282622,5.0
0.3687395946672799,-0.22731108511131617,-0.012215076521180772,-0.0919589123036015,-0.03944440110859524,0.10029521414949062,5.0
0.371885365697259,-0.21882353440197383,-0.02373157251500099,-0.1134271342530529,-0.030566434815654735,0.08410792518337756,5.0
0.3844684498171742,-0.15092312872723523,-0.01989272931752311,-0.1134271342530529,-0.03863731281633427,0.04506799254401369,5.0
0.3844684498171742,-0.13394802730855068,0.0031402626701176285,-0.09242561315199634,-0.02168847098367939,0.04602018524405611,5.0
0.4033430759970501,-0.15092312872723523,0.010817949065073463,-0.09942612018568185,0.005752512495955385,0.03840263747394834,5.0
0.39390576290711293,-0.16789823014591992,0.018495601861416106,-0.12136104298352814,0.025122619205393215,0.05839870050657904,5.0
0.38132267878719517,-0.15941067943657758,0.022334445058893985,-0.13536205989701786,0.024315530913132224,0.029832895915015506,5.0
0.3530107395173831,-0.15092312872723523,0.045367437046534724,-0.14982977694737276,-0.012003418859443053,0.020310960567257588,5.0
0.35615651054736164,-0.15092312872723523,0.022334445058893985,-0.15169657891789284,-0.10239724360757912,0.04030702468867095,5.0
0.36559382363730136,-0.14243557801789297,0.022334445058893985,-0.15636358446678156,-0.12660988253154803,0.013645605860119798,5.0
0.3781769077572166,-0.11697292588986599,-0.01989272931752311,-0.16009718885252777,-0.09513345882109092,0.03554605701479199,5.0
0.3844684498171742,-0.15941067943657758,-0.027570415712478945,-0.18203211342919823,-0.04186566598537819,0.01935876786721517,5.0
0.37503113672723754,-0.18487333156460453,-0.050603441298733176,-0.223101759626759,0.05256360268502798,0.01269341316007738,5.0
0.39075999187713434,-0.18487333156460453,-0.02373157251500099,-0.23150236920562908,0.054177776808584786,0.03745044404805082,5.0
0.3781769077572166,-0.20184843298328922,0.014656758663937921,-0.18203211342919823,0.03400058426785114,0.06315966836192177,5.0
0.4064888470270312,-0.1763857808552622,0.018495601861416106,-0.07795789254399309,0.007366688157615418,0.11267373231543398,5.0
0.4316547950056224,-0.21033598369263148,0.02617328825637194,0.043850949195741964,-0.010389242274921082,0.1383829569922325,5.0
0.4505294211854978,-0.22731108511131617,-0.06595878049003162,0.007915000946050006,0.06628409627056923,0.14219173359924303,5.0
0.4127803890869888,-0.21882353440197383,-0.1197024508602692,-0.08775860466804776,0.19622521780791163,0.0660162508171797,5.0
0.36559382363730136,-0.21033598369263148,-0.08515292928019444,-0.16989789990928794,0.2228591216086635,0.010789024856572113,5.0
0.337281884367488,-0.1763857808552622,-0.027570415712478945,-0.15496348289995027,0.1316582036463361,0.05554212095474157,5.0
0.3215530292175922,-0.15941067943657758,-0.0006985805273602496,-0.1134271342530529,0.03238640768332916,0.07458599237611255,5.0
0.32469880024757153,-0.11697292588986599,-0.027570415712478945,-0.11109363285719728,-0.006353803274581319,0.11267373231543398,5.0
0.3530107395173831,-0.13394802730855068,-0.01989272931752311,-0.14842967511371785,-0.012003418859443053,0.08791670179038812,5.0
0.3687395946672799,-0.11697292588986599,-0.008376233323702818,-0.15309668075154775,0.0025241617878766073,0.11172153816368136,5.0
0.3876142208471553,-0.15941067943657758,0.033850941052714204,-0.12042764413285709,-0.09997597873079617,0.1431439277509957,5.0
0.4033430759970501,-0.18487333156460453,0.045367437046534724,-0.0667570835669912,-0.16696425776915472,0.18694482389057165,5.0
0.39705153393709197,-0.19336088227394688,-0.0006985805273602496,-0.06302347677983233,-0.15001542331939527,0.1536180518065929,5.0
0.39075999187713434,-0.24428618653000075,-0.0467645981012553,-0.16989789990928794,-0.03218061140017669,0.06696844206551189,5.0
0.3781769077572166,-0.19336088227394688,-0.0006985805273602496,-0.23383587344760337,0.07677623422610139,0.0003148978975544327,5.0
0.3876142208471553,-0.21882353440197383,0.02617328825637194,-0.24503668811684262,0.04529981297660944,-0.02729871508274934,5.0
0.39705153393709197,-0.1763857808552622,0.02617328825637194,-0.20583383962062393,0.018665916558753073,-0.024442132627491446,5.0
0.38132267878719517,-0.11697292588986599,-0.008376233323702818,-0.17549830582084822,0.03480767256011212,0.009836832156529697,5.0
0.36559382363730136,-0.15092312872723523,-0.01989272931752311,-0.19463302779750338,0.0751620576415794,0.01459780001187243,5.0
0.3498649684874045,-0.15941067943657758,0.022334445058893985,-0.2147011500478889,0.11793771252176,0.0364982506221533,5.0
0.3498649684874045,-0.15941067943657758,0.022334445058893985,-0.22450186217194357,0.05982738993248135,0.07744257192795,5.0
0.3498649684874045,-0.16789823014591992,0.041528627447670344,-0.22216835792996928,0.017051741204713686,0.06030308881008431,5.0
0.37503113672723754,-0.2867239400767123,-0.016053919718658726,-0.19509972864589822,-0.01684594369107864,0.08791670179038812,5.0
0.37503113672723754,-0.2867239400767123,-0.016053919718658726,-0.19463302779750338,-0.0023183655047241433,0.046972379395808735,5.0
0.39075999187713434,-0.19336088227394688,-0.07747527648385213,-0.226368665565523,0.05014234026921019,0.03935483126277343,5.0
0.3781769077572166,-0.21033598369263148,-0.01989272931752311,-0.2515704943021333,0.10583139798170586,0.06030308881008431,5.0
0.3781769077572166,-0.21033598369263148,-0.01989272931752311,-0.24036967963289405,0.09049672535067749,0.007932445304734644,5.0
0.3687395946672799,-0.1763857808552622,0.006979105867595583,-0.21516785089628374,0.04691398710016623,-0.02729871508274934,5.0
0.3687395946672799,-0.16789823014591992,0.06456161943531108,-0.2025669365279786,-0.03702313623181229,0.0003148978975544327,5.0
0.36244805260732227,-0.15092312872723523,0.02617328825637194,-0.1964998311910828,-0.023302647568201367,-0.035868456641682187,5.0
0.3844684498171742,-0.20184843298328922,0.006979105867595583,-0.19930003343533328,0.04207146226853067,-0.05491232806305314,5.0
0.39075999187713434,-0.20184843298328922,0.010817949065073463,-0.1978999308901487,0.056599041685367724,-0.07300400533267143,5.0
0.4001973049670705,-0.21882353440197383,0.006979105867595583,-0.1656975951198529,0.08807546539582488,-0.08728690599527923,5.0
0.4033430759970501,-0.2357986358206584,-0.01989272931752311,-0.15496348289995027,0.0896896370584165,-0.10347419496139228,5.0
0.3687395946672799,-0.32067414291408164,-0.0006985805273602496,-0.14469607117267766,0.051756514392766975,-0.08728690599527923,5.0
0.36244805260732227,-0.25277373723934304,-0.0006985805273602496,-0.15823038661518407,0.03803602326819091,-0.09014348845053713,5.0
0.3498649684874045,-0.2357986358206584,-0.0006985805273602496,-0.1610305898377878,0.025122619205393215,-0.08252593523651607,5.0
0.35930228157734323,-0.21882353440197383,0.006979105867595583,-0.1624306913156779,0.01059503909640968,-0.06443425796689775,5.0
0.3435734264274469,-0.21033598369263148,-0.008376233323702818,-0.1768984083660328,-0.04347984256990018,0.007932445304734644,5.0
0.3341361133375087,-0.13394802730855068,0.014656758663937921,-0.18529901652184355,-0.06769247165000843,0.020310960567257588,5.0
0.35615651054736164,-0.15941067943657758,0.014656758663937921,-0.17456490554711784,-0.03702313623181229,0.04982896039935643,5.0
0.39075999187713434,-0.19336088227394688,-0.03524806850882151,-0.17269810357659776,0.05821321826988972,0.04602018524405611,5.0
0.40963461805701024,-0.21882353440197383,-0.04292575490377735,-0.17363150385032813,0.13407946852311906,0.06411186251367441,5.0
0.39390576290711293,-0.20184843298328922,-0.0006985805273602496,-0.17829850948815804,0.09937469164361798,0.09267766674231043,5.0
0.34671919745742547,-0.15941067943657758,0.030012097855236324,-0.1610305898377878,-0.01603885785978282,0.10124740830124324,5.0
0.3530107395173831,-0.14243557801789297,0.05304512344149056,-0.14049576638324263,-0.07657043794294889,0.13552637453697458,5.0
0.3687395946672799,-0.12546047659920836,0.0031402626701176285,-0.13069505425918795,-0.090290929067525,0.1326697920817167,5.0
0.39390576290711293,-0.1763857808552622,-0.012215076521180772,-0.13069505425918795,-0.03218061140017669,0.09839083165282622,5.0
0.39705153393709197,-0.20184843298328922,-0.027570415712478945,-0.14049576638324263,0.033193495975590154,0.0660162508171797,5.0
0.39075999187713434,-0.18487333156460453,-0.016053919718658726,-0.15776368607808344,0.05094942610050601,0.03554605701479199,5.0
0.39075999187713434,-0.18487333156460453,-0.016053919718658726,-0.13722886186753794,0.04529981297660944,0.008884639456487278,5.0
0.39075999187713434,-0.19336088227394688,-0.01989272931752311,-0.12416124807389728,0.028350969913471986,-0.02158555597907441,5.0
0.3781769077572166,-0.15941067943657758,-0.016053919718658726,-0.1274281511665426,0.023508442620871237,-0.0025416845577034644,5.0
0.371885365697259,-0.15941067943657758,-0.01989272931752311,-0.1227611455287127,-0.007160891566842306,0.04125921811456848,5.0
0.3687395946672799,-0.15092312872723523,0.0031402626701176285,-0.12602804862135802,-0.032987699692437686,0.02126315471901022,5.0
0.35930228157734323,-0.14243557801789297,0.02617328825637194,-0.13396195877489261,-0.020074294399157415,0.022215347419052636,5.0
0.35615651054736164,-0.14243557801789297,0.041528627447670344,-0.14796297497685265,-0.044286925940230815,0.016502186863667487,5.0
0.36244805260732227,-0.15092312872723523,0.022334445058893985,-0.14376266947588795,-0.091098017359786,0.0279285087002929,5.0
0.37503113672723754,-0.19336088227394688,0.030012097855236324,-0.1456294721579377,-0.06849955994226939,0.02602412184849785,5.0
0.3876142208471553,-0.20184843298328922,0.010817949065073463,-0.14469607117267766,-0.028952260692097914,0.02888070248911798,5.0
0.4064888470270312,-0.19336088227394688,0.006979105867595583,-0.13442865962328748,0.03803602326819091,0.020310960567257588,5.0
0.39705153393709197,-0.21033598369263148,-0.027570415712478945,-0.11529393764663233,0.04126437397626968,0.03840263747394834,5.0
0.3876142208471553,-0.1763857808552622,-0.004537390126224633,-0.11856084073927765,0.029965145267511376,0.034593863498162576,5.0
0.3844684498171742,-0.1763857808552622,-0.03908691170629939,-0.11622733934342204,0.03803602326819091,0.044115798392261055,5.0
0.3687395946672799,-0.20184843298328922,-0.0006985805273602496,-0.10922683230973652,0.054177776808584786,0.03173728294827433,5.0
0.36244805260732227,-0.18487333156460453,0.018495601861416106,-0.10736002891615709,0.0017170734956156216,0.053637734102946526,5.0
0.36244805260732227,-0.1763857808552622,0.0031402626701176285,-0.1096935303120127,-0.02168847098367939,0.08982109009389337,5.0
0.36559382363730136,-0.15941067943657758,-0.01989272931752311,-0.12836155286333234,-0.009582153982660097,0.08791670179038812,5.0
0.37503113672723754,-0.1763857808552622,-0.027570415712478945,-0.1376955627159328,0.017051741204713686,0.07934696023145525,5.0
0.35930228157734323,-0.15941067943657758,-0.008376233323702818,-0.1507631779326328,0.0017170734956156216,0.07934696023145525,5.0
0.36244805260732227,-0.13394802730855068,-0.008376233323702818,-0.14889637596211272,-0.02249555927594037,0.09172547259055777,5.0
0.37503113672723754,-0.15941067943657758,-0.02373157251500099,-0.14516277202107253,-0.06042868194158987,0.07839476607970265,5.0
0.39075999187713434,-0.15941067943657758,-0.008376233323702818,-0.13629546159380757,-0.044286925940230815,0.06792063621726452,5.0
0.39075999187713434,-0.13394802730855068,0.006979105867595583,-0.1624306913156779,-0.01684594369107864,0.026976315274395375,5.0
0.39075999187713434,-0.16789823014591992,-0.0006985805273602496,-0.16009718885252777,0.01624465352769399,0.02602412184849785,5.0
0.3844684498171742,-0.15941067943657758,-0.008376233323702818,-0.16663099610511295,0.027543881621211005,0.020310960567257588,5.0
0.39075999187713434,-0.1763857808552622,-0.03524806850882151,-0.14049576638324263,0.03642184668366893,0.034593863498162576,5.0
0.39075999187713434,-0.16789823014591992,-0.02373157251500099,-0.14189586750536784,0.03884311156045189,0.042211411540466,5.0
0.38132267878719517,-0.1763857808552622,-0.008376233323702818,-0.141429166656973,0.054984865100845756,0.09172547259055777,5.0
0.371885365697259,-0.1763857808552622,0.022334445058893985,-0.14189586750536784,0.08726837710356387,0.11362592646718661,5.0
0.36559382363730136,-0.14243557801789297,-0.0006985805273602496,-0.15636358446678156,0.05740612997762873,0.12314786217787209,5.0
0.36559382363730136,-0.15941067943657758,0.0031402626701176285,-0.1624306913156779,-0.01603885785978282,0.08506011933513019,5.0
0.36559382363730136,-0.15941067943657758,0.0031402626701176285,-0.16196399082304788,-0.01684594369107864,0.06792063621726452,5.0
0.39390576290711293,-0.13394802730855068,-0.03524806850882151,-0.16289739216407276,-0.005546716212802917,0.06696844206551189,5.0
0.39075999187713434,-0.15092312872723523,-0.01989272931752311,-0.16616429596824775,-0.014424681275260844,0.03840263747394834,5.0
0.39075999187713434,-0.15092312872723523,-0.01989272931752311,-0.167564397090373,0.021087180205053447,-0.007302652413046218,5.0
0.39075999187713434,-0.21882353440197383,0.006979105867595583,-0.1824988142775931,0.04772107539242723,0.01269341316007738,5.0
0.37503113672723754,-0.21033598369263148,-0.004537390126224633,-0.174098204698723,0.017051741204713686,0.002219283297639262,5.0
0.371885365697259,-0.1763857808552622,-0.008376233323702818,-0.16009718885252777,-0.01603885785978282,-0.00349387580603567,5.0
0.35615651054736164,-0.21882353440197383,0.014656758663937921,-0.15122987878102767,-0.037830224524073267,0.002219283297639262,5.0
0.3687395946672799,-0.19336088227394688,0.010817949065073463,-0.14982977694737276,-0.0507436322783187,0.03268947646490375,5.0
0.36559382363730136,-0.1763857808552622,-0.031409258909957126,-0.13909566526111738,-0.020881382691418388,0.03840263747394834,5.0
0.39075999187713434,-0.1763857808552622,-0.027570415712478945,-0.14329597005055242,-0.02814517239983694,0.03554605701479199,5.0
0.39075999187713434,-0.19336088227394688,-0.016053919718658726,-0.14469607117267766,-0.005546716212802917,0.008884639456487278,5.0
0.39075999187713434,-0.21882353440197383,-0.004537390126224633,-0.13256185765276737,0.00010289814157623556,0.046972379395808735,5.0
0.39075999187713434,-0.20184843298328922,0.006979105867595583,-0.11949424243606738,0.019473004235772768,0.030785089340913032,5.0
0.39390576290711293,-0.19336088227394688,-0.012215076521180772,-0.11389383510144775,0.03480767256011212,0.051733347251151474,5.0
0.3844684498171742,-0.21882353440197383,-0.0006985805273602496,-0.1143605359498426,0.035614758391407944,0.05078115309939884,5.0
0.3781769077572166,-0.19336088227394688,-0.027570415712478945,-0.12556134777296318,0.019473004235772768,0.06982502452076979,5.0
0.36244805260732227,-0.21033598369263148,0.014656758663937921,-0.12136104298352814,-0.023302647568201367,0.053637734102946526,5.0
0.3687395946672799,-0.19336088227394688,0.006979105867595583,-0.1227611455287127,-0.01684594369107864,0.05554212095474157,5.0
0.37503113672723754,-0.13394802730855068,-0.01989272931752311,-0.13349525792649775,0.013823390189014262,0.029832895915015506,5.0
0.3876142208471553,-0.15941067943657758,-0.0006985805273602496,-0.13396195877489261,0.01624465352769399,0.04982896039935643,5.0
0.3844684498171742,-0.16789823014591992,-0.004537390126224633,-0.13069505425918795,0.03400058426785114,0.01935876786721517,5.0
0.39075999187713434,-0.15941067943657758,-0.01989272931752311,-0.12182774383192299,0.008980863511654806,0.02316754157080527,5.0
0.39390576290711293,-0.15941067943657758,-0.016053919718658726,-0.12602804862135802,0.015437565543053651,0.01269341316007738,5.0
0.3781769077572166,-0.15941067943657758,-0.01989272931752311,-0.15309668075154775,0.05256360268502798,-0.007302652413046218,5.0
0.371885365697259,-0.19336088227394688,-0.0006985805273602496,-0.15916378768938533,0.04287854809982648,-0.022537750130827035,5.0
0.37503113672723754,-0.15941067943657758,-0.0006985805273602496,-0.16336409230093796,0.02189426726683185,0.013645605860119798,5.0
0.3781769077572166,-0.20184843298328922,-0.02373157251500099,-0.14189586750536784,0.024315530913132224,0.044115798392261055,5.0
0.3781769077572166,-0.15941067943657758,-0.01989272931752311,-0.1376955627159328,0.0267367945594326,0.04030702468867095,5.0
0.371885365697259,-0.19336088227394688,-0.01989272931752311,-0.13069505425918795,0.025122619205393215,0.054589926802988936,5.0
0.3687395946672799,-0.21882353440197383,-0.016053919718658726,-0.14189586750536784,0.0033312494648963004,0.03173728294827433,5.0
0.37503113672723754,-0.15941067943657758,-0.027570415712478945,-0.15449678222943783,-0.01765303198333961,0.03554605701479199,5.0
0.36559382363730136,-0.1763857808552622,-0.027570415712478945,-0.14049576638324263,-0.001511277212463155,0.030785089340913032,5.0
0.37503113672723754,-0.1763857808552622,-0.016053919718658726,-0.1456294721579377,-0.018460120275600615,0.020310960567257588,5.0
0.3781769077572166,-0.14243557801789297,-0.03524806850882151,-0.1554301833925803,0.031579320621550756,0.029832895915015506,5.0
0.371885365697259,-0.15092312872723523,-0.012215076521180772,-0.16943119906089307,0.025122619205393215,0.018406573715462535,5.0
0.3687395946672799,-0.11697292588986599,0.05304512344149056,-0.16803109793876786,-0.013617592982999858,0.043163604966363525,5.0
0.37503113672723754,-0.13394802730855068,0.006979105867595583,-0.1731648044249926,-0.029759348984358912,0.007932445304734644,5.0
0.3781769077572166,-0.14243557801789297,-0.008376233323702818,-0.18016531145867815,-0.0023183655047241433,0.006028057001229376,5.0
0.37503113672723754,-0.14243557801789297,-0.02373157251500099,-0.18903262330900242,0.035614758391407944,0.013645605860119798,5.0
0.37503113672723754,-0.1763857808552622,-0.008376233323702818,-0.20070013598051786,0.033193495975590154,0.025071928422600323,5.0
0.36559382363730136,-0.18487333156460453,0.02617328825637194,-0.18856592246060758,-0.007967979859103292,0.010789024856572113,5.0
0.3687395946672799,-0.21882353440197383,0.006979105867595583,-0.18296551512598794,-0.01603885785978282,0.01459780001187243,5.0
0.3687395946672799,-0.21882353440197383,0.006979105867595583,-0.15683028500388219,-0.04347984256990018,0.01935876786721517,5.0
0.3781769077572166,-0.21882353440197383,-0.01989272931752311,-0.1442293703242828,-0.03218061140017669,0.04602018524405611,5.0
0.3781769077572166,-0.21882353440197383,0.010817949065073463,-0.12602804862135802,-0.04347984256990018,0.022215347419052636,5.0
0.3781769077572166,-0.21882353440197383,0.010817949065073463,-0.11389383510144775,-0.019267208567861592,0.03173728294827433,5.0
0.38132267878719517,-0.2357986358206584,-0.0006985805273602496,-0.10595992637097251,-0.02572390998401914,0.03935483126277343,5.0
0.39075999187713434,-0.21033598369263148,-0.008376233323702818,-0.09942612018568185,0.01624465352769399,0.04602018524405611,5.0
0.39075999187713434,-0.21033598369263148,-0.008376233323702818,-0.08122479848275709,0.025929706267171608,0.06887283036901717,5.0
