acc_x,acc_y,acc_z,gyro_x,gyro_y,gyro_z,activity
-0.8241507242208861,-0.18859046153946502,4.202891916286757,0.07533066174867807,-0.1804183325864156,0.15021742225975399,0.0
-0.8241507242208861,-0.18859046153946502,4.202891916286757,0.09436358627467768,-0.3343165878271417,0.2038132767581559,0.0
-0.7670512188385963,-0.2020567943826389,4.110189177270016,0.024266739510521558,-0.5270780675633248,0.22391171325780596,0.0
-0.7670512188385963,-0.2020567943826389,4.110189177270016,-0.005443180478228819,-0.4718923172200966,0.2205619704365307,0.0
-0.7670512188385963,-0.2087899608042259,4.295594114396883,-0.0017294408335070462,-0.3902795931801719,0.2205619704365307,0.0
-0.7603336161361361,-0.2020567943826389,4.256968514046521,0.01591082460215351,-0.39494319907984055,0.18203995863386743,0.0
-0.7133105148075362,-0.2020567943826389,4.272418970549311,0.037264829682535854,-0.008642989337725842,0.07903543327065814,0.0
-0.7133105148075362,-0.2020567943826389,4.272418970549311,0.04329965554359267,0.146809799622872,0.06647390790487664,0.0
-0.736822006677526,-0.2222562973305659,4.210617144538151,-0.048151190638993466,-0.27835358247411135,0.1803650872232298,0.0
-0.7233869188612264,-0.21552312722581285,4.164265775029781,-0.042116363362448575,-0.16409578777843062,0.13179384695674085,0.0
-0.7502572120824461,-0.2087899608042259,4.195166688035361,0.032158439440403495,-0.29078981431265755,0.2163748021239373,0.0
-0.7099517134563061,-0.22562288054135934,4.110189177270016,-0.01194222556423596,-0.30011698819156746,0.14937998655443518,0.0
-0.7166693161587663,-0.22562288054135934,4.187441459783966,0.0525840060708852,-0.29700793023193084,0.11755745018032172,0.0
-0.6696460972415461,-0.23235604696294634,4.1488153185269905,0.1254661511988863,-0.4338063666946558,0.017065233209818908,0.0
-0.730104403975066,-0.24245579659532676,3.986585795701002,0.029373132583630054,-0.007865729587870168,0.11420770735904646,0.0
-0.763692417487366,-0.2222562973305659,4.202891916286757,-0.059756627382621046,-0.2138406772121877,0.28336961769343955,0.0
-0.7401808080287561,-0.21552312722581285,4.256968514046521,0.05908304974140425,-0.18197286156623388,0.2674583495063828,0.0
-0.7401808080287561,-0.21552312722581285,4.256968514046521,0.13196520053135768,-0.032738174304748714,0.20465070224947396,0.0
-0.6528522080740164,-0.24245579659532676,4.187441459783966,0.1296441171459988,0.017006719869061847,0.18120252292854863,0.0
-0.6494934067227862,-0.26602187907088115,4.017486708706581,0.029373132583630054,-0.12911891417284024,0.28755678600603285,0.0
-0.7200281175099962,-0.24582237980612023,3.9943110239523967,0.05629774854658312,-0.3242121589384299,0.39977308880674806,0.0
-0.730104403975066,-0.1852238764870885,4.079288534717742,0.06140413878871546,-0.34986187762532456,0.475142241001437,0.0
-0.730104403975066,-0.16165779263034685,4.071563306466347,0.0883287490897162,0.0838514233407665,0.5463242657395354,0.0
-0.6629286121277065,-0.17512412685470805,3.909333783640358,0.022874086082134825,0.19655469853673607,0.5739595929450527,0.0
-0.6528522080740164,-0.2087899608042259,3.8320817715797144,0.09064984379897975,0.04965180592999167,0.5739595929450527,0.0
-0.6192641945617161,-0.2020567943826389,3.839806729377803,0.1909208113754915,0.01234313529963374,0.5731221674537346,0.0
-0.6797225012952361,-0.1852238764870885,3.870707642383383,0.42674332269545484,-0.8822877024491274,0.6535159543083378,0.0
-0.6595698107764763,-0.1852238764870885,4.094738720767225,0.6899546224922146,-1.3447597800617497,0.5505114340521285,0.0
-0.5520884027143564,-0.10105929069250236,4.094738720767225,0.9420247401574996,-0.7983431754593683,0.2280988815703993,0.0
-0.4546832811173063,-0.08759295416616238,3.839806729377803,1.0710772119206704,-0.7532618540048522,0.01874010398208149,0.0
-0.39758377573501624,-0.17849071006550155,3.4380959421184873,1.0901101590944793,-1.3362097853517865,-0.05662905906498315,0.0
-0.39758377573501624,-0.17849071006550155,3.4380959421184873,1.1281759628508599,-1.723287254843757,0.002828835156649715,0.0
-0.47147728787345644,-0.016894706739499273,3.731653804311579,1.016763779171159,-2.0069886324987745,0.5387873137496638,0.0
-0.4076601797887063,0.020137715945561144,3.7393790325629737,0.610109227208137,-1.9805617346429334,0.7975548139111677,0.0
-0.21285017177184656,-0.030361039582673197,3.67757747700512,0.33854199551715203,-1.819668089512918,0.6384421320406005,0.0
-0.05162794209004651,-0.030361039582673197,3.561699323687501,0.43649189103220953,-1.8585312192073056,0.5714473164710984,0.0
-0.05162794209004651,-0.11789220674646977,3.468996584670761,0.38264264778239865,-1.2615925460022206,0.439970002662051,0.0
-0.11544505017479641,-0.09095953737695586,3.5694245519388965,0.7702642978672304,-1.9331486102385829,-0.2944606512725157,0.0
-0.02139896510621705,-0.2054233775934324,2.3256652375440545,-0.3057918937080635,-1.0190861768322803,-0.8605667795080045,0.0
-0.08521595560234678,-0.043827372425847125,2.526520901627019,-1.0977469444271302,0.3317986344599636,-1.036428175484948,0.0
-0.3203315798339666,0.15143446853283904,4.125639633772805,-0.13310299315106058,-1.302010261557068,-1.0556891660652785,0.0
-0.47147728787345644,0.050436957476370364,3.723928576060184,0.2025262509500953,-0.59858632479411,-0.30534730522765946,0.0
-0.3270491825364267,-0.0842263709553689,3.546248867184711,0.013125520576356227,-0.0195246874564003,0.3034680541930896,0.0
-0.10536876370972682,-0.08759295416616238,3.5771497801902914,-0.11221320304916431,-0.35918905150423414,0.42154639671703587,0.0
-0.018040163754986863,-0.17512412685470805,3.58487473798838,-0.5796802087844075,-0.13611428510191553,-0.44603642200921445,0.0
-0.0952923596560368,-0.12462537500963974,3.538523638933316,-0.792756053102673,-0.06849232188035521,-0.7751483988494898,0.0
-0.25651447174921643,-6.178331919971591e-05,3.345393203101747,-0.8531043117132412,0.47792426376181235,-0.8572170775427321,0.0
-0.29681997037535635,0.03360404878873509,2.7196510670052816,-1.517863807202605,1.4767084412472482,-0.8061335097322853,0.0
-0.5252179919045163,-0.043827372425847125,3.9634101109468167,-1.7095856662573217,1.299492251309248,-0.13869770200922285,0.0
-0.7200281175099962,-0.1481914588663814,4.488724820681759,-0.02401188029426178,-1.016754373882446,1.6040048363631452,0.0
-0.5319355946069765,-0.0842263709553689,3.9711353391982116,-0.3341091744233079,-0.7237258602689466,1.4901136621517923,0.0
-0.5352943959582064,-0.1481914588663814,4.233792829292336,-0.5063338741567057,-0.7229485673387166,1.4934633641170647,0.0
-0.5117827864995961,-0.11789220674646977,4.365121168659439,0.2447700546253023,-0.6879716747729124,1.087307384099464,0.0
-0.5252179919045163,-0.1481914588663814,4.565976562289096,1.1226053264895037,-0.8022294884288071,0.7322348084682989,0.0
-0.39422497438378634,-0.11789220674646977,3.9556851531487274,1.4438438468070918,-1.0680538112562352,0.9106085217751997,0.0
-0.4009425770862462,-0.05392712205822755,3.654401792250935,1.0984660230452763,-1.3393189570727067,1.2841046216393746,0.0
-0.4076601797887063,-0.013528116162373656,3.654401792250935,1.1940948578227844,-1.061835695336962,1.46917773887682,0.0
-0.10536876370972682,-0.064026871690608,3.7084781195573937,1.4703042789322964,-0.38250696724129435,0.8151409535088622,0.0
-0.0952923596560368,-0.05729370526902104,3.893883327137567,1.9605179233594747,1.1222760613712477,0.030464195876856812,0.0
-0.31361397713150646,0.00330479252526162,3.237240278035523,1.5385443025851986,-0.07859675076906705,0.6501662114870623,0.0
-0.31361397713150646,0.00330479252526162,3.237240278035523,0.8798196329568917,-0.736162092107493,1.4708526715714618,0.0
-0.23300286229060646,0.03360404878873509,2.804628577770627,0.3431841622878697,-0.45479251740230964,1.0102633400661363,0.0
-0.3270491825364267,0.09083597073855654,3.0827359834609283,0.24848379710100033,-0.6009181277439442,0.8076040015189908,0.0
-0.4949888973320664,0.08746938016143072,3.4149202573643023,0.9759126572341003,-1.3486460171903327,0.8670619059546241,0.0
-0.5487296013631263,-0.03709420600426015,3.66212702050233,1.9140962556522976,-2.4679061242509364,1.6626253561634634,0.0
-0.37071348251379654,-0.11789220674646977,3.546248867184711,2.5017954928557873,-3.5312034155606478,1.9615896476122618,0.0
-0.20949137042061666,-0.10105929069250236,2.804628577770627,2.2232651242477717,-4.377643790944322,2.457351258312976,0.0
-0.27330847850536655,0.026870882367148165,2.4106427483094,2.109996001386795,-4.8541066862559505,2.562030711263827,0.0
-0.1994149663669269,0.04707038163190899,2.4724443038672534,2.330963429564919,-5.128481003793341,2.418829277152315,0.0
-0.2464380676955264,0.020137715945561144,2.42609320481219,2.6197066918962446,-6.627823171496412,3.122274697636078,0.0
-0.1859797609620064,0.11776862169223994,1.808076161740467,2.337926815607851,-6.780944039005839,3.2830623530572907,0.0
-0.10536876370972682,0.3264967954941,1.5685946268538342,2.0900345846223454,-6.971373753712616,3.2545896412164583,0.0
-0.13559785828217646,0.26589831243248163,1.9548550928370128,2.1903056767618097,-7.335133193706243,2.7512909151018605,0.0
-0.07849835289988667,0.15480105910996483,1.8621526242735789,3.0407521148535963,-6.511233327368117,2.7638525017516464,0.0
0.12638805917066334,0.24906538901218206,1.0973566501053096,3.1400944656287075,-6.061974547001705,3.279712487668006,0.0
0.408526902319505,0.17500054364206122,1.0201045028180131,3.519360115875887,-4.283594759224996,2.143313062884435,0.0
0.6369246886714216,0.010037958946848573,1.2364104881771134,3.4274451594609325,-2.939705413662896,2.7822759442726497,0.0
0.49249670092301207,0.06726988089666988,1.027829731069408,2.435876597883862,-4.084615353171676,3.304835660967578,0.0
0.25066347398893296,0.07736963789538245,0.896501121248999,1.6583122596244595,-5.504676523943804,3.096314139701191,0.0
0.1364644632243531,0.07063647147379547,0.7419968266744044,1.6160684785970614,-7.8077097002075755,2.2429678811753715,0.0
0.0928000456583628,-0.07749320453378192,0.5102405200391668,1.8890283920261939,-9.395660076640931,0.7900178619212963,0.0
0.47570269416686356,-0.3636527995502243,0.3171102194342504,2.00833234074823,-8.98759622891874,0.8419388143670584,0.0
0.7041007156960233,-0.3771191323933981,0.23213291150888546,2.067752220359397,-5.818691036583244,1.2975035929244754,0.0
0.46226748876194224,-0.292954544757229,-0.33180755915807036,2.4270564538421278,-4.449929227344054,1.6065171536931022,0.0
0.6033369103363628,-0.292954544757229,-0.6408160384356028,1.7878291020698045,-5.2683885740565595,2.219519640570442,0.0
0.7847117129483031,-0.24918896301691373,-0.5481134938071764,1.3133987159535816,-4.4017390375320415,2.6876459240656394,0.0
0.5462372873654526,-0.28622137833564204,-1.0270766565487666,0.6119660757981766,-5.721533439869845,3.1557720441368238,0.0
0.42867947524964306,-0.19195704475025846,-1.305184265079048,0.1574971630659241,-7.885436262959774,0.5622355134985904,0.0
0.42867947524964306,-0.2963211353343546,-1.5214901828248226,-0.09085920079975814,-7.334355976616869,-0.19648072482021808,0.0
0.47906149551809346,-0.41751813092291995,-1.9154760122860495,-0.15492121320992897,-6.202659334354294,0.01874010398208149,0.0
0.31783926583629285,-0.41751813092291995,-2.317187069998672,-0.21480527099689192,-5.703656233360543,0.4441571709746445,0.0
-0.07178075019742657,-0.39731863165815895,-2.5566686048853047,0.413281011883002,-1.1916387608706118,1.4683403542415046,0.0
-0.36735468116256637,-0.44445079660926773,-2.9583795273712736,0.999123491087689,-0.8302109721451082,1.487601344821835,0.0
-0.49834769868329637,-0.3569196331286373,-3.089708137191683,1.338930678488148,-1.4869990015930898,-0.11943669100089085,0.0
-0.2464380676955264,-0.24245579659532676,-3.2055862905093013,1.1198200083088254,-3.528871460929105,-2.7313968990821462,0.0
-0.13895665963340664,-0.1481914588663814,-3.0974333654430777,0.909529482171238,-4.600718443585357,-4.6616848413799135,0.0
-0.37071348251379654,-0.4511839777635191,-3.0356318098852237,0.3900701327337945,-5.1160443169096625,-4.907890959171646,0.0
-0.35391947575764643,-0.4781166434498668,-2.9661047556226685,-0.4390223200944422,-3.8607631800778455,-3.9197172763114803,0.0
-0.26659087580290675,-0.25592212943850073,-3.3755410415866853,-1.1334917100937705,-2.13523718801282,-3.355286039914629,0.0
0.36822128610474325,-0.1481914588663814,-3.2673881165204617,-0.6024268984339142,-0.2760217984844911,-4.206120144534505,0.0
0.4488322833570237,-0.064026871690608,-3.6922748589872687,1.2493367601629342,6.141846932928318,-3.2841040968885356,0.0
1.4866997842919318,-0.10105929069250236,-3.584121663467738,1.1982728350938014,2.804275317842218,0.7615450683684581,0.0
0.11967045646820297,-0.41078497923399737,-2.888852743562025,2.0505761217756278,6.901233533760456,2.1768104093851814,0.0
-0.2632320744516765,-0.34345330028546334,-3.7695268710479124,2.9799394855608523,10.384153845462237,2.119864822279505,0.0
0.11631165511697332,0.03360404878873509,-3.3214644438269203,1.1402456145729736,6.5623468608073425,2.1600617361348085,0.0
0.5126495090303926,0.07063647147379547,-2.8502266023050495,0.4448478002786252,5.442309081612232,1.8451861560709517,0.0
0.5227259130840819,-0.17175754364391455,-2.595294610915626,-0.061149280811007775,5.542576153409976,1.9682890515428064,0.0
0.31112166313383305,-0.2963211353343546,-2.08543062813678,-0.6989841122108235,5.052122743762762,1.9582399456469894,0.0
0.2002814537204831,-0.5420817170886107,-1.9154760122860495,-0.47198176758040433,6.085883662132293,1.8150385115354775,0.0
0.45219108470825303,-0.49831612798196345,-1.490589337432569,0.06976005369708349,6.0944336568422575,1.224646717203741,0.0
0.5328020819605335,-0.5353485653996881,-1.1120539644741323,0.21691700870537714,4.204127630836918,-0.27771193716613934,0.0
0.5495960887166825,-0.6531789704111278,-0.7103429405681733,0.18767130369511284,4.8065072787127585,0.1443553723225223,0.0
0.5361608833117628,-0.7541764520022681,-0.6176404043914127,0.0005916467983160941,3.2154480339219065,0.16277894762553546,0.0
0.6503598940763434,-0.6094133813044805,-0.5944647703472226,-0.016120183018419977,2.074424483223419,-0.3865785175735808,0.0
-0.5621646891794261,-0.430984463766094,-0.4708613739877933,-0.19066596755266463,2.160700737322157,-1.7976566494217083,0.0
-0.11208636641218693,-0.46128372002956736,-0.8648471675294407,-0.07368315317355982,3.4486271154516537,-4.782275746369833,0.0
0.3950916969145832,-0.39058546523657206,-0.24683022587770742,0.04840605144767733,4.082097267083003,-3.962426507496738,0.0
0.858605107498122,-0.4781166434498668,0.39436236672154756,-0.4046702135181408,0.7437485107483848,-1.7390362930454015,0.0
0.6033369103363628,-0.4074183886568716,0.1394303753321245,-0.5225814578542178,-0.9879955972359148,-1.4015498570119305,0.0
0.49921430362547403,-0.1582912091893555,-0.48631179879683656,-0.23848036229360933,-0.24493123784833937,-1.3881508857268297,0.0
0.49921430362547403,-0.1582912091893555,-0.48631179879683656,-0.03515310046697918,0.47326065786214355,-0.2475642722026635,0.0
0.2943278915549232,-0.19195704475025846,-0.3163571364619436,0.002448516620676979,0.795047948122174,-0.4267753905728809,0.0
0.47570269416686356,-0.17849071006550155,-0.30090671376581685,-0.007764268110051944,0.7872753221832965,-0.4719968982320954,0.0
0.47570269416686356,-0.17849071006550155,-0.30090671376581685,-0.06068506300154553,0.31314428670214445,0.015390363075931375,0.0
0.23386946723278282,0.07400304731825687,0.12397995263599822,-0.11778381110075889,0.8393519766464602,0.5354375709283885,0.0
0.35814488205105405,-0.2963211353343546,0.29393460229339224,-0.01426331248831505,-0.781243413562009,-0.12613617664344137,0.0
0.35814488205105405,-0.2963211353343546,0.29393460229339224,-0.2719040219270815,-0.34597556465588575,-0.6202229261475188,0.0
0.30440406043137264,-0.07749320453378192,-0.2700058599218975,-0.24080144567896825,0.383098052873539,-0.5038194346062089,0.0
0.2573810766913928,-0.22562288054135934,-0.23137980318158063,-0.23569506676074045,0.4888059476603263,-0.4108641428138256,0.0
0.2573810766913928,-0.22562288054135934,-0.23137980318158063,-0.1219617770478714,0.6108363872550987,-0.43180002523279537,0.0
0.4488322833570237,-0.39395205581369774,-0.2236545918335173,-0.08528859274816356,0.9676005321605056,-0.8312566013198511,0.0
0.5328020819605335,-0.26602187907088115,-0.38588404282034683,0.031230003821479033,1.2598518286846305,-1.0062805309494736,0.0
0.42196187254718326,-0.1481914588663814,-0.30090671376581685,0.0409785721582338,1.1370440961596284,-0.909138029988494,0.0
0.3480684779973621,-0.08085978774457542,0.00037653726032056933,-0.011013789945311476,0.32013967659143355,-0.6252475199514304,0.0
0.2607398780426235,-0.1414582919843987,0.309385058796182,-0.018441270296371087,0.23386336561205387,0.16612869044681072,0.0
0.018906651108543324,-0.2020567943826389,0.5797674390750684,0.006162256265398754,1.0391088273117186,1.224646717203741,0.0
-0.07513955154865648,-0.2525555462277072,0.1548807642215883,0.2401278878545846,-0.40427033503832255,1.9205553491216436,0.0
0.6973831129935639,-0.292954544757229,0.0853538789923494,0.15981824645128287,-0.5869273858857936,0.9365689979980806,0.0
0.5865429035802143,-0.21552312722581285,-0.6408160384356028,-0.3861015237874605,0.3520074922373875,0.4508566566171949,0.0
0.7175359211009429,-0.27275504549246815,-0.27773107126996094,-0.30811299974123174,0.43672925527673484,-0.17219509957997323,0.0
0.40516810096827505,-0.1414582919843987,-0.09232599891643987,-0.12846081505643814,1.014236363634626,0.25992141794451273,0.0
0.2573810766913928,-0.07749320453378192,-0.038249502576664644,0.030301568202554537,0.8984240399591269,0.28923165741667045,0.0
0.42867947524964306,-0.2020567943826389,0.23985813976028036,0.1412495453966979,0.3411257893786593,0.5094770947055074,0.0
0.401809299617043,-0.2020567943826389,0.21668245500609506,0.07765175645794162,-0.017970158476582038,0.5974077926939794,0.0
0.401809299617043,-0.2121565440150194,0.031277382652574105,-0.005907398287691054,0.2952672129143411,0.5890334560687925,0.0
0.36486248475351335,-0.3097874681775285,-0.06142515352418642,0.012197084957431737,0.756184742586931,0.00617857670117488,0.0
0.37158008745597265,-0.3030543017559416,-0.007348657184411113,0.11339649947677263,1.0740857198775227,-0.7215525954210916,0.0
0.529443280609304,-0.2087899608042259,-0.06142515352418642,-0.08111063246300337,1.4176364537754376,-0.07421519355567713,0.0
0.38165649150966185,-0.25592212943850073,0.28620937404199726,-0.057435541166286,1.2186568201995531,-0.3162339591828033,0.0
0.3850152928608939,-0.2525555462277072,0.4329884403651961,-0.061149280811007775,0.5276691531955694,-0.44101178734929997,0.0
0.37158008745597265,-0.21552312722581285,0.44843882925465933,-0.0017294408335070462,0.14603253513296285,-0.34135700991436624,0.0
0.42196187254718326,-0.19195704475025846,0.178056448975773,-0.19762922903264593,0.24707685246040229,0.11253284105540919,0.0
0.36822128610474325,-0.2592887126492942,0.04672780534870083,-0.18277427045375882,0.641149673921234,0.42238386306435655,0.0
0.31783926583629285,-0.195323627961052,0.23985813976028036,-0.0592924095731588,1.1269396672709164,0.7598702173858219,5.0
0.3447096766461328,-0.2054233775934324,0.5488665936828153,-0.08853811175244693,0.6955581692546599,0.9868150994612066,5.0
0.4253206738984126,-0.27275504549246815,0.6492943581109707,-0.16095603907098577,-0.5076464647957033,0.4877037867952199,5.0
0.36150368340228395,-0.27275504549246815,0.6029430562159273,-0.27654621134560853,-1.1667662971935193,-0.09180133315337147,5.0
0.42196187254718326,-0.2054233775934324,0.27075898515253405,-0.12381864828572037,-1.0828217702037601,-0.1696828026780175,5.0
0.42196187254718326,-0.2054233775934324,0.27075898515253405,-0.012870660475416405,-0.708180532550336,0.03297650139687564,5.0
0.43539707795210236,-0.28958796891276767,0.015826959956447374,0.15146233720486715,-0.0397335499738775,0.16780356185744835,5.0
0.49585550227424413,-0.30642087760040293,0.1626059924729832,0.14310641663454693,0.01234313529963374,0.13933076830461014,5.0
0.37158008745597265,-0.33672013386387645,0.12397995263599822,-0.10942790185434317,-0.193631819434764,0.06312416763710157,5.0
0.35814488205105405,-0.27948821191405504,0.1394303753321245,-0.07693267783979552,0.23464063958207,0.19711379111560537,5.0
0.3480684779973621,-0.25592212943850073,0.3248354476856458,0.19231347046583058,-0.13067344315265852,0.2163748021239373,5.0
0.35478608069982415,-0.181857293276295,0.3866371384701526,0.48430626312534486,-0.8830649953793575,0.2540593782212818,5.0
0.3346332725924435,-0.24582237980612023,0.23213291150888546,0.17745852321084812,-1.3680776578783822,0.15272972937571042,5.0
0.3077628617826028,-0.27612162870326157,0.1703312207243781,-0.015655965208957737,-1.4473586548093282,0.048887768307182285,5.0
0.24730467263770275,-0.292954544757229,0.1626059924729832,-0.10200042256489962,-1.3183327305241972,0.02543958499641292,5.0
0.1364644632243531,-0.3299869674422894,-0.3086319251138802,-0.0045147448593043284,-1.0758264371951125,0.06563647219955782,5.0
0.1566172713317329,-0.27948821191405504,-0.33180755915807036,0.051655570451960696,-0.10502372446576388,-0.30199756240638415,5.0
0.11967045646820297,-0.16165779263034685,-0.2159293804854539,-0.11871224671968336,0.42040671046874983,0.007016011129743601,5.0
0.28425148750123347,-0.27275504549246815,-0.09232599891643987,0.08043705199081043,0.7460803136982191,-2.1368180181498215,5.0
0.21371665912540277,-0.195323627961052,-0.7103429405681733,-0.01194222556423596,2.1249466276669784,-0.44352410467925724,5.0
0.5999781089851324,-0.27612162870326157,0.1626059924729832,0.051655570451960696,1.8124865492062852,-0.9778077373966353,5.0
0.6570774967788022,-0.22898946375215284,0.36346152132929394,-0.18370269474877868,0.6621358246288879,0.6041072783365298,5.0
0.6503598940763434,-0.17849071006550155,0.1935068378652369,-0.12799660290892823,0.6535859057597803,0.1024836176985838,5.0
0.2775338847987731,-0.17849071006550155,0.12397995263599822,-0.07739688998730544,0.9046421558784002,0.14519280802784112,5.0
0.5596724927703733,-0.17175754364391455,0.309385058796182,-0.12149755357645682,0.7864980292530666,-0.24672684671134545,5.0
0.23051066588155317,-0.1414582919843987,0.20123206611663177,-0.16652665278453269,0.9637142191910668,-0.028993701217463756,5.0
0.3379920739436735,-0.1414582919843987,0.21668245500609506,-0.19623656994230684,1.1782391046447056,-0.09598851167996555,5.0
0.7175359211009429,-0.17175754364391455,0.34028590418843563,-0.17534678550236296,1.0126818536150217,-0.46362252075090593,5.0
0.556313691419144,-0.181857293276295,0.4793396746469131,-0.10153620475543738,0.4678198348731006,-0.49795737445497645,5.0
0.4589086874107129,-0.16165779263034685,0.47161444639551814,-0.006371614681665213,0.20277280497590222,-0.33549494976313393,5.0
0.37829769015843195,-0.1380917078528137,0.4020875949729424,0.011732867147969499,0.3317986344599636,-0.2986478195851091,5.0
0.35814488205105405,-0.12125878995726325,0.47161444639551814,-0.004050528465330165,0.03488379099058501,-0.11859925529557207,5.0
0.3850152928608939,-0.1582912091893555,0.39436236672154756,-0.09457293761350374,0.02555662333299553,-0.03485574604769507,5.0
0.3850152928608939,-0.17175754364391455,0.4329884403651961,-0.1776678688877219,-0.08947844414768807,-0.2425396579707506,5.0
0.37158008745597265,-0.15155804230737277,0.34028590418843563,-0.16699086493204263,0.032551999002124306,-0.2618006689790826,5.0
0.35814488205105405,-0.10105929069250236,0.37118674958068937,-0.1577065200667024,0.20199554996610003,-0.2098796961053191,5.0
0.38165649150966185,-0.09769270748170888,0.3789119102187578,-0.10803524842595642,0.29215817391491844,-0.044067533699201675,5.0
0.38165649150966185,-0.09769270748170888,0.3789119102187578,-0.07832532560622991,0.5595369878017371,-0.018944477860638347,5.0
0.44547348200579323,-0.1481914588663814,0.3789119102187578,-0.02401188029426178,0.8852105910312064,0.03465137153076318,5.0
0.5126495090303926,-0.1582912091893555,0.3789119102187578,0.13707159077349,1.4487269575309472,-0.10436285851915296,5.0
0.5126495090303926,-0.1582912091893555,0.3789119102187578,0.3687161021746268,2.111733178739058,-0.02229422068191359,5.0
0.5395196846629927,-0.10779245711408934,0.7651725114285898,0.5813277569931918,2.2726268238690728,0.5865211387388357,5.0
0.5596724927703733,-0.1414582919843987,0.9660280402849007,0.45831011109107783,2.0930787551403824,1.1568144761429209,5.0
0.5596724927703733,-0.1414582919843987,0.9660280402849007,0.05815461978443209,0.8300248406879782,1.3075527805322986,5.0
0.5126495090303926,-0.1650243763015361,0.8424246587158862,0.34179150319753077,-1.0929261990924721,0.25154708131932607,5.0
-0.05162794209004651,-0.2693884622816746,0.850149886967282,-0.40977661508417795,-0.6685401099257186,0.3352905905672031,5.0
-0.05162794209004651,-0.2693884622816746,0.850149886967282,-0.17813209235913646,-0.8931694242680694,-0.3262831876466292,5.0
-0.014681362403756943,-0.2963211353343546,0.6647447470004341,0.001984298811214742,-0.09569656006696117,-0.17805715973120564,5.0
0.2909690902036933,-0.22562288054135934,0.6801952035032243,0.03587217625414913,0.15535970901187254,-0.127811048054079,5.0
0.40516810096827505,-0.1852238764870885,0.6724699752518295,0.042371219924668184,0.135928106244251,-0.013919866182225652,5.0
0.44211468065456383,-0.1852238764870885,0.6879204317546193,0.03076578601201678,0.14292348665343327,0.01287805723672502,5.0
0.3950916969145832,-0.19195704475025846,0.7188212771468727,0.003841170049063701,0.10483755034815284,-0.03485574604769507,5.0
0.3312744712412128,-0.17512412685470805,0.7342717336496627,0.002448516620676979,0.05509265380431553,-0.05662905906498315,5.0
0.31783926583629285,-0.17849071006550155,0.7265465053982679,0.002912734430139216,0.10716933907782678,-0.030668567521101,5.0
0.3480684779973621,-0.18859046153946502,0.7265465053982679,0.0010558646077783286,0.12038282592617518,-0.069190589537765,5.0
0.35814488205105405,-0.195323627961052,0.7728977396799849,0.03958591872984707,0.10328302136833456,-0.044067533699201675,5.0
0.3312744712412128,-0.19195704475025846,0.8192489739617018,0.06604631688333788,0.04265643085336958,0.013715492942043836,5.0
0.3312744712412128,-0.1650243763015361,0.7651725114285898,0.06883161807815903,0.04809727813518676,0.03381393646381941,5.0
0.35814488205105405,-0.16839095951232957,0.7806229679313796,0.07068848931600798,0.13670537073416014,-0.021456784976594787,5.0
0.35814488205105405,-0.16165779263034685,0.711096048895478,0.04515652678144163,0.18489574066820594,0.05307494428027617,5.0
0.3413508752949028,-0.1414582919843987,0.6801952035032243,0.030301568202554537,0.2105454498749936,0.11755745018032172,5.0
0.3480684779973621,-0.1414582919843987,0.7806229679313796,0.0005916467983160941,0.2253134657031603,-0.005545514236037881,5.0
0.3447096766461328,-0.2188897141197724,0.8424246587158862,0.04654918020982838,0.19033658261746295,-0.14958436617836743,5.0
0.31783926583629285,-0.2188897141197724,0.8269742022130967,0.08415079446650837,-0.0008703515487146517,0.084060047502571,5.0
0.3312744712412128,-0.16839095951232957,0.803798652685565,0.18302911427658566,-0.01486110525699896,0.5605606625159546,5.0
0.593260506282673,-0.22562288054135934,0.919676806003184,0.024730957319983787,0.25251769440965927,-0.27436219434486403,5.0
0.3413508752949028,-0.22562288054135934,0.9042263495003938,0.08507923008543283,0.13048725481488704,-0.12948591946471666,5.0
0.2943278915549232,-0.11789220674646977,0.9274020342545789,0.08740032479469638,-0.23327227997980926,0.2205619704365307,5.0
0.3850152928608939,-0.13135854143122672,0.7651725114285898,0.14357064010596135,-0.13533701113189944,0.06898621246733289,5.0
0.3984504982658125,-0.181857293276295,0.6647447470004341,0.10782588576322573,-0.04051081446378662,-0.08175211490354645,5.0
0.36150368340228395,-0.18859046153946502,0.7419968266744044,0.12917989367458424,-0.09103297312750634,0.015390363075931375,5.0
0.3379920739436735,-0.16165779263034685,0.803798652685565,0.140785333249188,-0.12367805326336931,-0.015594737592863278,5.0
0.3346332725924435,-0.1481914588663814,0.8115237457103064,0.140785333249188,-0.11901447580402141,-0.013919866182225652,5.0
0.30440406043137264,-0.12462537500963974,0.7497220549257995,0.05351244168980969,-0.1322279721324768,0.013715492942043836,5.0
0.3312744712412128,-0.11789220674646977,0.7419968266744044,0.06558209907387566,-0.19596360342438446,0.021252409182912796,5.0
0.2607398780426235,-0.06739345490140149,0.6724699752518295,0.010340213719582776,-0.3374256457867783,0.3805120982264176,5.0
0.37158008745597265,-0.15155804230737277,0.711096048895478,-0.06254193140841834,-0.14000059807135432,0.33277829366524736,5.0
0.3413508752949028,-0.15155804230737277,0.6570195863623656,-0.07182628193571083,-0.18974548750511133,0.22474915917712548,5.0
0.44547348200579323,-0.19869021117184546,0.7188212771468727,0.19509878864650873,-0.1749774906371586,-0.2952980767638338,5.0
0.3379920739436735,-0.1481914588663814,0.6956455923926878,0.0010558646077783286,-0.07004684138006653,0.17534047299131694,5.0
0.27081628209631325,-0.12799195822043327,0.5797674390750684,-0.03004670810161472,0.1452552706430537,0.3620885127094037,5.0
0.36822128610474325,-0.11452562353567627,0.6879204317546193,-0.1363525121553439,0.12271461939590259,0.22307428776648786,5.0
0.3413508752949028,-0.11452562353567627,0.7651725114285898,-0.048151190638993466,0.04421095864817449,0.002828835156649715,5.0
0.3950916969145832,-0.1852238764870885,0.6956455923926878,0.03958591872984707,0.034106527093182556,-0.1730325454992928,5.0
0.41524426984472396,-0.2087899608042259,0.5797674390750684,0.04562074459090388,0.17012772484003924,-0.3162339591828033,5.0
0.35814488205105405,-0.16165779263034685,0.618393512718717,0.005698038455936517,0.08229689436094825,-0.17721971381188611,5.0
0.3346332725924435,-0.14482487519519216,0.7419968266744044,0.10921854485356479,0.06053350286365277,-0.014757301887544452,5.0
0.3211980671875228,-0.16165779263034685,0.7419968266744044,0.142642204487037,0.024779358843086387,0.17199074038404238,5.0
0.3279156698899826,-0.19869021117184546,0.7265465053982679,0.04515652678144163,0.029442943412514487,0.1284441041354656,5.0
0.324556868538753,-0.2121565440150194,0.7033708206440825,0.0409785721582338,0.019338510968762525,0.017065233209818908,5.0
0.3077628617826028,-0.10779245711408934,0.8115237457103064,0.0813654876097349,-0.12756438519302196,0.10499592481454025,5.0
0.408526902319505,-0.12799195822043327,0.6724699752518295,0.0799728398433005,-0.021856480926127717,0.18120252292854863,5.0
0.4488322833570237,-0.12462537500963974,0.6647447470004341,-0.03747418809880231,0.004570495140595821,-0.2726873229342264,5.0
0.38165649150966185,-0.12462537500963974,0.6029430562159273,-0.015655965208957737,0.11261019050719075,-0.04741727141347655,5.0
0.3984504982658125,-0.16839095951232957,0.7033708206440825,-0.01194222556423596,0.12815547082526657,-0.013082433030407015,5.0
0.28761028885246315,-0.17849071006550155,0.7497220549257995,-0.014727530297777292,-0.08248307321861277,-0.10855003704574703,5.0
0.3312744712412128,-0.15155804230737277,0.7265465053982679,-0.006835832491127453,-0.3257667068784621,-0.049929578529432986,5.0
0.35814488205105405,-0.14482487519519216,0.6261187409701124,-0.06486302045572953,-0.002424878158506208,-0.0013583408164441757,5.0
0.3413508752949028,-0.13472512464202022,0.6338439016081808,-0.11592694552486223,-0.043619867683369715,0.10750823193049669,5.0
0.3950916969145832,-0.16839095951232957,0.6029430562159273,0.0948277984221876,0.18489574066820594,0.1585917690989414,5.0
0.35814488205105405,-0.2087899608042259,0.6570195863623656,0.10875432138215022,0.15069612207241767,0.09578413716303365,5.0
0.35814488205105405,-0.17175754364391455,0.610668284467322,0.07811596860545153,0.10172849238851628,0.04302572347695095,5.0
0.43539707795210236,-0.17849071006550155,0.5025152917877719,0.02519517512944603,0.4701515999025068,0.052237508574957355,5.0
0.42196187254718326,-0.27948821191405504,0.5256909765419565,0.16538886016482987,0.7351985918792773,0.29425627164858337,5.0
0.237228268584013,-0.2626552958600876,1.0587306440749882,0.3905343675291138,0.21209997885481188,0.08071030468129572,5.0
0.31783926583629285,-0.19195704475025846,0.803798652685565,0.3287934271803972,0.16390960892076611,0.021252409182912796,5.0
0.31783926583629285,-0.12125878995726325,0.711096048895478,0.19184925831832067,0.240081481531327,0.17366560158067929,5.0
0.3279156698899826,-0.07412662132298845,0.7883481961827745,0.1913850461708107,0.017783984358970984,0.048887768307182285,5.0
0.237228268584013,-0.006794949740786686,0.8656003434700716,-0.214341058849382,-0.2915670693224598,-0.23081557852428872,5.0
0.24730467263770275,-0.19195704475025846,0.8810506647462084,-0.11128477309219215,-0.6040272236240086,-0.2944606512725157,5.0
0.45554988605948293,-0.13472512464202022,0.46388928575744975,0.11571758286213155,0.07918783640131168,-0.07086546094840258,5.0
0.36486248475351335,-0.043827372425847125,0.4020875949729424,0.09297092718433864,0.14292348665343327,0.17366560158067929,5.0
0.3010454942573831,-0.06739345490140149,0.8887758929976038,-0.5272236699205542,-0.527855322573127,0.20297583083883633,5.0
0.37158008745597265,-0.22562288054135934,0.6570195863623656,-0.025404532837968456,0.053538126009510634,0.3503644128349403,5.0
0.42196187254718326,-0.21552312722581285,0.7033708206440825,0.1751374171776799,0.02633388782290467,0.02460214976987539,5.0
0.41524426984472396,-0.17849071006550155,0.5411413654314203,0.10921854485356479,-0.016415629496763756,-0.1680079312673799,5.0
0.3883740942121239,-0.17849071006550155,0.6029430562159273,0.022409871103648747,0.19577743404682693,-0.17219509957997323,5.0
0.3413508752949028,-0.013528116162373656,0.618393512718717,-0.044901667388245865,0.1289327353151757,-0.08091467919822763,5.0
0.3010454942573831,-0.06066028847981454,0.6724699752518295,-0.0592924095731588,0.035661054887987466,0.13681846118865373,5.0
0.2439458712864731,0.12113521226936572,0.8810506647462084,-0.33085964409512,-0.2760217984844911,-0.21909147864982534,5.0
0.2439458712864731,-0.16165779263034685,0.8346994304644915,-0.6562760963881065,-0.6110225566326563,0.38469926653901076,5.0
0.31783926583629285,-0.21552312722581285,0.711096048895478,-0.3833162282545917,-0.5115327777651418,0.1460302437331599,5.0
0.3312744712412128,-0.2054233775934324,0.6647447470004341,-0.13171034538462614,-0.3428665066962491,0.1778527801072734,5.0
0.556313691419144,-0.23235604696294634,0.46388928575744975,0.11339649947677263,-0.0754876928094305,0.06228673193178275,5.0
0.5630312941216032,-0.1481914588663814,0.5874926673264639,0.24198473644462426,0.3535620212172058,-0.5507157932480594,5.0
0.49921430362547403,-0.16839095951232957,0.6879204317546193,0.4169947543587,1.1098398295327017,-0.3421944354056843,5.0
0.10959405241451294,-0.15155804230737277,0.8192489739617018,0.1867428567522837,0.7453030966088449,-0.4108641428138256,5.0
0.2775338847987731,-0.10105929069250236,0.7497220549257995,-0.08389593931977683,-0.06771505739044609,0.5220386404992904,5.0
0.2909690902036933,-0.07076003811219499,0.6492943581109707,-0.253799544343911,-0.10968731140521873,0.10583336051985906,5.0
0.35814488205105405,-0.14482487519519216,0.6879204317546193,-0.14935061082028672,0.06208802947344431,0.18706457286578035,5.0
0.3480684779973621,-0.17849071006550155,0.6801952035032243,-0.07878954341569216,0.03177473510472185,0.1619415119202167,5.0
0.36486248475351335,-0.21552312722581285,0.7574472831771943,-0.002657875036943441,0.013120399789542889,0.09159696374343994,5.0
0.36486248475351335,-0.21552312722581285,0.7574472831771943,0.004769605667988191,0.07141519861230052,0.05726212025337003,5.0
0.35478608069982415,-0.1650243763015361,0.6492943581109707,0.012661302766893989,0.05509265380431553,0.04386315790551967,5.0
0.3514272793485915,-0.16165779263034685,0.6879204317546193,0.0368006118730736,0.016229455379152706,0.1158825787696841,5.0
0.3514272793485915,-0.16165779263034685,0.6879204317546193,0.07068848931600798,-0.0032021426484153386,0.14854255084911636,5.0
0.3413508752949028,-0.2020567943826389,0.7419968266744044,0.10968275700107467,0.015452190889243567,0.15189229367039161,5.0
0.35478608069982415,-0.1852238764870885,0.7188212771468727,0.11664601848105599,0.011565870809724606,0.0932718300470772,5.0
0.35478608069982415,-0.1852238764870885,0.7188212771468727,0.12407350343245188,0.010788608689842206,0.0890846566274835,5.0
0.3379920739436735,-0.11789220674646977,0.7188212771468727,0.12360927996103732,-0.010974782807453252,0.1024836176985838,5.0
0.3413508752949028,-0.09769270748170888,0.711096048895478,0.08972140818005526,-0.021079216436218587,0.14854255084911636,5.0
0.3413508752949028,-0.09769270748170888,0.711096048895478,0.04608496240036612,-0.053724306052188524,0.1435179366172035,5.0
0.3514272793485915,-0.10105929069250236,0.6801952035032243,-0.0045147448593043284,-0.07781948627915793,0.1728281658753605,5.0
0.3447096766461328,-0.11789220674646977,0.7033708206440825,-0.02401188029426178,-0.09103297312750634,0.18203995863386743,5.0
0.3447096766461328,-0.11789220674646977,0.7033708206440825,-0.013334877577134606,-0.05216977707237025,0.13681846118865373,5.0
0.3413508752949028,-0.13135854143122672,0.6724699752518295,-0.017512835385190644,-0.04128807895369576,0.13095641125142202,5.0
0.3312744712412128,-0.1414582919843987,0.6956455923926878,-0.034688882657516934,-0.0809285442387945,0.12676923272482796,5.0
0.3413508752949028,-0.1414582919843987,0.6647447470004341,-0.036545752479877826,-0.11435088886456661,0.07066108132447034,5.0
0.3480684779973621,-0.17849071006550155,0.6879204317546193,0.001984298811214742,-0.06693779290053693,0.07317338844042678,5.0
0.35814488205105405,-0.2020567943826389,0.7033708206440825,0.02333830389159707,-0.002424878158506208,0.03130163094380058,5.0
0.36822128610474325,-0.23235604696294634,0.6724699752518295,0.05769040197496985,0.04343369475077203,0.007853446835062413,5.0
0.36822128610474325,-0.23235604696294634,0.6879204317546193,0.09900575304539545,0.04654275034038185,-0.008895257057313144,5.0
0.35814488205105405,-0.23235604696294634,0.6724699752518295,0.14449907572488585,0.032551999002124306,0.013715492942043836,5.0
0.36150368340228395,-0.2087899608042259,0.6724699752518295,0.17931539444869712,0.05198359821470572,0.03381393646381941,5.0
0.37158008745597265,-0.2020567943826389,0.711096048895478,0.1834933490719049,0.06364255845326261,0.048887768307182285,5.0
0.36486248475351335,-0.21552312722581285,0.6801952035032243,0.20159782665507545,0.09784217467902406,0.05307494428027617,5.0
0.36486248475351335,-0.21552312722581285,0.6801952035032243,0.22666557704213192,0.11805103245644777,0.04218828777163213,5.0
0.3447096766461328,-0.2020567943826389,0.711096048895478,0.22573713009930277,0.08462868309062219,0.04135085334306342,5.0
0.3514272793485915,-0.19195704475025846,0.6879204317546193,0.22295183456643392,0.08229689436094825,0.03130163094380058,5.0
0.35478608069982415,-0.16839095951232957,0.7265465053982679,0.2099537359014912,0.07296972522209205,0.029626760809913045,5.0
0.3379920739436735,-0.1582912091893555,0.7728977396799849,0.18767130369511284,0.08462868309062219,0.016227798781250188,5.0
0.3346332725924435,-0.1582912091893555,0.7806229679313796,0.14589172349132026,0.06908340514257308,0.007016011129743601,5.0
0.3514272793485915,-0.1414582919843987,0.7419968266744044,0.07950862769579059,0.06441982294317174,-0.009732690209131747,5.0
0.3514272793485915,-0.1582912091893555,0.7574472831771943,0.060011485360328735,0.07841057191140255,0.0011539662995122691,5.0
0.35478608069982415,-0.17512412685470805,0.7806229679313796,0.060475703169791,0.07763330979152014,0.022927279635987854,5.0
0.3480684779973621,-0.2054233775934324,0.7651725114285898,0.06976005369708349,0.1095011325475542,0.007016011129743601,5.0
0.37829769015843195,-0.2188897141197724,0.7265465053982679,0.12082398442816852,0.24241326552094744,0.017065233209818908,5.0
0.38165649150966185,-0.23908921338453326,0.6879204317546193,0.17095946255447206,0.36833001808515836,0.017902668915137723,5.0
0.3447096766461328,-0.24582237980612023,0.7651725114285898,0.24848379710100033,0.42196125840878207,0.007853446835062413,5.0
0.324556868538753,-0.2054233775934324,0.8578751152186769,0.31393845727760544,0.3115897577223261,-0.03150600322641983,5.0
0.3514272793485915,-0.1414582919843987,0.9274020342545789,0.28097900979164336,0.20976817590497754,-0.04155522658324521,5.0
0.35478608069982415,-0.09769270748170888,0.8269742022130967,0.17792273535835804,0.13825989971397842,0.0497252040125011,5.0
0.3077628617826028,-0.12799195822043327,0.8346994304644915,0.1496054659670183,0.09162405875975094,0.11839488588564051,5.0
0.2943278915549232,-0.12799195822043327,0.8192489739617018,0.2067042282211124,0.1584687669715091,0.1284441041354656,5.0
0.31783926583629285,-0.1414582919843987,0.8578751152186769,0.23780678182141637,0.2913808999449024,0.05809955595868887,5.0
0.3346332725924435,-0.11452562353567627,0.8733254364948136,0.15471185620915057,0.17401403780947794,-0.0356931817530139,5.0
0.3480684779973621,-0.11789220674646977,0.7651725114285898,0.026123607917394355,0.04421095864817449,-0.15209666308032316,5.0
0.3447096766461328,-0.1414582919843987,0.7265465053982679,-0.016120183018419977,0.11338745025704641,-0.2098796961053191,5.0
0.3346332725924435,-0.14482487519519216,0.6956455923926878,-0.03329623064461829,0.146809799622872,-0.22662838978369393,5.0
0.3514272793485915,-0.10779245711408934,0.7188212771468727,-0.0031220928464056807,0.15380518003205426,-0.18056945663316137,5.0
0.3413508752949028,-0.12462537500963974,0.6879204317546193,0.009411780931634457,0.13048725481488704,-0.11608695839361635,5.0
0.3279156698899826,-0.13135854143122672,0.7265465053982679,0.04051435434877154,0.06364255845326261,0.00617857670117488,5.0
0.3279156698899826,-0.1414582919843987,0.7188212771468727,0.08275814670007393,0.11571924372677385,0.03967598193242578,5.0
0.324556868538753,-0.14482487519519216,0.7728977396799849,0.056761966356045364,0.0924013232496601,0.06479903649423902,5.0
0.3010454942573831,-0.1380917078528137,0.7651725114285898,0.017767695840002484,-0.09802834405658162,0.11337027165372765,5.0
0.3480684779973621,-0.1481914588663814,0.711096048895478,0.026587825726856598,-0.08947844414768807,0.16445381903617312,5.0
0.35814488205105405,-0.1481914588663814,0.7265465053982679,0.004769605667988191,-0.021856480926127717,0.1996260880175611,5.0
0.36486248475351335,-0.17849071006550155,0.711096048895478,-0.0045147448593043284,-0.09336476659723375,0.2155373562046178,5.0
0.38165649150966185,-0.1650243763015361,0.6415691298595757,-0.015655965208957737,-0.1602094748089919,0.17366560158067929,5.0
0.35478608069982415,-0.1650243763015361,0.610668284467322,-0.016120183018419977,-0.18275011657603601,0.21469993071329974,5.0
0.31783926583629285,-0.1650243763015361,0.6029430562159273,-0.04397323318480946,-0.18197286156623388,0.2130250593026621,5.0
0.3514272793485915,-0.1582912091893555,0.5565918219342103,-0.08853811175244693,-0.19207729045494568,0.23814811003422506,5.0
0.3480684779973621,-0.16165779263034685,0.5102405200391668,-0.10617837718810748,-0.22239057712108135,0.19543891970496774,5.0
0.3413508752949028,-0.1414582919843987,0.5797674390750684,-0.13960204248353195,-0.22316785109109746,0.13095641125142202,5.0
0.37493888880720255,-0.07076003811219499,0.5256909765419565,-0.214341058849382,-0.16331851380841453,0.0982964442789901,5.0
0.38165649150966185,-0.03709420600426015,0.5256909765419565,-0.3048634694130436,-0.1539913588897188,0.11002053393945274,5.0
0.3379920739436735,-0.0842263709553689,0.6261187409701124,-0.3378229168990059,-0.17886380360659732,0.15105485796507284,5.0
0.3010454942573831,-0.12462537500963974,0.7188212771468727,-0.28908007521523205,-0.16875937471788546,0.08573491380620826,5.0
0.324556868538753,-0.1414582919843987,0.6879204317546193,-0.2584417111146287,-0.14932777195026395,-0.0038706453789004395,5.0
0.38165649150966185,-0.050560538847434076,0.6570195863623656,-0.2774746356406284,-0.12989616918264243,-0.04741727141347655,5.0
0.36486248475351335,0.057170123897957316,0.5874926673264639,-0.42556000928198956,-0.20062719036383925,0.028789325583375516,5.0
0.28761028885246315,0.06053671447508293,0.6415691298595757,-0.6349221111245572,-0.32498941394823205,0.17031586897340478,5.0
0.28761028885246315,-0.030361039582673197,0.618393512718717,-0.735193112672783,-0.49287843000732257,0.198788662526243,5.0
0.3883740942121239,-0.11789220674646977,0.5411413654314203,-0.7180170593846322,-0.47033780720049223,0.16529125474149192,5.0
0.43203827660087246,-0.195323627961052,0.36346152132929394,-0.649777081027349,-0.31721678800935443,0.09159696374343994,5.0
0.401809299617043,-0.27275504549246815,0.39436236672154756,-0.5379006625523288,-0.14077787204137038,0.07819799756533931,5.0
0.36486248475351335,-0.28622137833564204,0.44843882925465933,-0.4408792139801004,-0.04906071911273367,0.05726212025337003,5.0
0.3514272793485915,-0.24245579659532676,0.5334161371800249,-0.37681719024602495,-0.07781948627915793,0.03130163094380058,5.0
0.36486248475351335,-0.24245579659532676,0.4947901311497035,-0.34710725044044144,-0.1182372113141123,-0.0021957739682628083,5.0
0.3312744712412128,-0.10105929069250236,0.5025152917877719,-0.37403187206534677,-0.1780865296365812,0.030464195876856812,5.0
0.3312744712412128,-0.10105929069250236,0.48706490289830795,-0.41720410003557384,-0.2635855666459449,0.07819799756533931,5.0
0.36822128610474325,-0.1481914588663814,0.41753798386240637,-0.36799704620428997,-0.292344324332262,0.16026664050957903,5.0
0.3883740942121239,-0.1481914588663814,0.36346152132929394,-0.33735868210368664,-0.22938596701037045,0.12676923272482796,5.0
0.3850152928608939,-0.1582912091893555,0.3866371384701526,-0.3401440002843648,-0.1765320006567629,0.03967598193242578,5.0
0.3883740942121239,-0.2020567943826389,0.34028590418843563,-0.30996987097908074,-0.12290079825356713,0.032139066329931874,5.0
0.40516810096827505,-0.22562288054135934,0.309385058796182,-0.21851901347258976,-0.045174396663187975,-0.02731882980682613,5.0
0.41524426984472396,-0.2188897141197724,0.34028590418843563,-0.17441834988343846,0.01234313529963374,-0.1202741267062097,5.0
0.3950916969145832,-0.18859046153946502,0.3325606759370408,-0.1967007934137214,0.05664718278413381,-0.23584017232820015,5.0
0.38165649150966185,-0.1852238764870885,0.309385058796182,-0.20180718365585387,0.0947331167193875,-0.3145590877721656,5.0
0.3850152928608939,-0.17849071006550155,0.36346152132929394,-0.16374134592775924,0.1351508417543419,-0.29697294817447145,5.0
0.3850152928608939,-0.17849071006550155,0.36346152132929394,-0.11035633747326766,0.11960556143626604,-0.19648072482021808,5.0
0.3883740942121239,-0.19195704475025846,0.40981275561101094,-0.0755400244114088,0.18023215372875107,-0.14707204884841027,5.0
0.3917328955633532,-0.22898946375215284,0.45616405750605493,-0.039331057921163204,0.24241326552094744,-0.14372231624113577,5.0
0.3917328955633532,-0.22898946375215284,0.45616405750605493,0.0052338234774504284,0.24629959745060012,-0.162983317035467,5.0
0.35478608069982415,-0.25592212943850073,0.4947901311497035,0.07022427150654574,0.19344564057709948,-0.12864848375939783,5.0
0.37493888880720255,-0.25592212943850073,0.45616405750605493,0.1848859855144347,0.13981442869379673,-0.08091467919822763,5.0
0.37493888880720255,-0.25592212943850073,0.45616405750605493,0.23130774381284963,0.10639207458791763,-0.018107042155319525,5.0
0.38165649150966185,-0.2525555462277072,0.39436236672154756,0.2303793195178298,0.10172849238851628,0.027951890436634867,5.0
0.35814488205105405,-0.2963211353343546,0.34028590418843563,0.2744799717830764,0.10794660356773593,-0.018107042155319525,5.0
0.35814488205105405,-0.2963211353343546,0.34028590418843563,0.3533969427721344,0.146809799622872,-0.01726960645000072,5.0
0.3514272793485915,-0.3198872104435768,0.41753798386240637,0.4448478002786252,0.14914159309259942,0.004503706567287342,5.0
0.43875587930333176,-0.29968771117881593,0.41753798386240637,0.5103024604552305,0.08462868309062219,0.055587251396232606,5.0
0.43875587930333176,-0.29968771117881593,0.41753798386240637,0.5028749755038346,0.11261019050719075,0.03632624166465071,5.0
0.4253206738984126,-0.26602187907088115,0.3789119102187578,0.5051960588891934,0.19033658261746295,0.037163677369969526,5.0
0.36486248475351335,-0.23572263017373982,0.4329884403651961,0.5051960588891934,0.21365450783463014,0.07401082414574559,5.0
0.3346332725924435,-0.2188897141197724,0.48706490289830795,0.5353701881944777,0.21909534978388717,0.09913387998430892,5.0
0.3447096766461328,-0.2020567943826389,0.47161444639551814,0.5576526430486652,0.19033658261746295,0.08154774038661455,5.0
0.36486248475351335,-0.2020567943826389,0.5102405200391668,0.5595095369343235,0.15380518003205426,0.084060047502571,5.0
0.35478608069982415,-0.1852238764870885,0.5411413654314203,0.5831846055832316,0.17712309576911453,0.06814877676201408,5.0
0.36150368340228395,-0.1650243763015361,0.5565918219342103,0.6175367121595329,0.22064987876370545,0.08322261179725218,5.0
0.38165649150966185,-0.14482487519519216,0.5797674390750684,0.6110376515031568,0.22764524969278074,0.05307494428027617,5.0
0.36822128610474325,-0.12799195822043327,0.5874926673264639,0.5762213554271549,0.19033658261746295,0.06982364817265171,5.0
0.3480684779973621,-0.08759295416616238,0.6338439016081808,0.5330491048091187,0.14914159309259942,0.04470059361083849,5.0
0.3312744712412128,-0.05392712205822755,0.6724699752518295,0.49962546782345585,0.16080055096112958,0.03130163094380058,5.0
0.2976866929061534,-0.03709420600426015,0.6647447470004341,0.45506055811508056,0.19422290506700865,0.03381393646381941,5.0
0.30440406043137264,-0.030361039582673197,0.6879204317546193,0.39471229950451237,0.25251769440965927,0.037163677369969526,5.0
0.31448046448506267,-0.05392712205822755,0.6724699752518295,0.32229436652402116,0.25018591042003885,0.0982964442789901,5.0
0.3010454942573831,-0.10105929069250236,0.6956455923926878,0.1927776826133405,0.10872386805764506,0.28336961769343955,5.0
0.3447096766461328,-0.17512412685470805,0.6492943581109707,0.12593037467030083,-0.08947844414768807,0.35790134439681026,5.0
0.40516810096827505,-0.22898946375215284,0.6029430562159273,0.08879297256113079,-0.2161724801620221,0.35455160157553495,5.0
0.40516810096827505,-0.24582237980612023,0.5874926673264639,0.09622045751252666,-0.2845716983933846,0.1577543333936226,5.0
0.40516810096827505,-0.27612162870326157,0.5179657482905617,0.19184925831832067,-0.14077787204137038,0.004503706567287342,5.0
0.41188570367073435,-0.25592212943850073,0.48706490289830795,0.2851569644148511,0.08307415885085737,-0.16382076295478654,5.0
0.40516810096827505,-0.16165779263034685,0.5179657482905617,0.32136594222900133,0.3302441054801453,-0.2425396579707506,5.0
0.30440406043137264,-0.013528116162373656,0.7574472831771943,0.2201665163857559,0.4180749454393432,-0.2475642722026635,5.0
0.280892686150003,0.01677112536843556,0.7883481961827745,0.1565687274469996,0.3520074922373875,-0.18308177396311853,5.0
0.27081628209631325,0.03360404878873509,0.8346994304644915,0.06836740026869677,0.14214622216352413,-0.051604449940070615,5.0
0.3010454942573831,0.01340454952397419,0.8810506647462084,-0.0017294408335070462,0.0006841750610768776,0.016227798781250188,5.0
0.35478608069982415,-0.05392712205822755,0.850149886967282,-0.029118272482690232,-0.12212352428355103,0.09662157286835248,5.0
0.36150368340228395,-0.11789220674646977,0.6724699752518295,-0.03840262230223872,-0.17964105861639948,0.13095641125142202,5.0
0.3480684779973621,-0.19195704475025846,0.610668284467322,-0.03283201283515605,-0.10036013752630907,0.03800111179853825,5.0
0.3413508752949028,-0.2020567943826389,0.5643170501856051,-0.024476097749852002,0.07841057191140255,-0.05914136107393921,5.0
0.35814488205105405,-0.18859046153946502,0.5256909765419565,-0.04072370993406184,0.15380518003205426,-0.0851018577248217,5.0
0.36150368340228395,-0.1481914588663814,0.5720422108236735,-0.03004670810161472,0.20277280497590222,-0.06584084671648972,5.0
0.3447096766461328,-0.12125878995726325,0.6492943581109707,-0.012870660475416405,0.2494086554102367,-0.013919866182225652,5.0
0.38165649150966185,-0.09769270748170888,0.6570195863623656,-0.016120183018419977,0.22375893672334204,-0.04909214282411418,5.0
0.37829769015843195,-0.07749320453378192,0.6801952035032243,-0.02586875029355868,0.15458244452196337,-0.11022490845638468,5.0
0.3413508752949028,-0.07412662132298845,0.6879204317546193,-0.056507105547361505,0.16701866688040268,-0.11692439409893517,5.0
0.3077628617826028,-0.0842263709553689,0.7497220549257995,-0.07507580660194656,0.10328302136833456,-0.10938747275106586,5.0
0.324556868538753,-0.07749320453378192,0.7419968266744044,-0.08343172151031458,0.05276086270461485,-0.036530617458332706,5.0
0.3447096766461328,-0.0842263709553689,0.711096048895478,-0.09782246227973944,0.009234079710023923,-0.008895257057313144,5.0
0.3346332725924435,-0.10779245711408934,0.7265465053982679,-0.0936445076565316,0.010788608689842206,0.02460214976987539,5.0
0.3346332725924435,-0.12462537500963974,0.711096048895478,-0.10524994156918299,0.07296972522209205,-0.0013583408164441757,5.0
0.36150368340228395,-0.13135854143122672,0.618393512718717,-0.1400662546310419,0.02322483104828148,-0.03485574604769507,5.0
0.35478608069982415,-0.10442587390329584,0.618393512718717,-0.16699086493204263,-0.0016476160386238046,-0.0725403221450395,5.0
0.3413508752949028,-0.0842263709553689,0.6647447470004341,-0.21062731637368415,-0.01408384076708982,-0.054954187654345524,5.0
0.3413508752949028,-0.0842263709553689,0.6879204317546193,-0.26540498391851464,-0.0032021426484153386,-0.020619349271275983,5.0
0.324556868538753,-0.0943261242709154,0.6647447470004341,-0.27654621134560853,-0.006311200608051906,-0.03485574604769507,5.0
0.3379920739436735,-0.13472512464202022,0.6879204317546193,-0.2667976430088537,-0.06071967698126382,-0.07170289665372141,5.0
0.3413508752949028,-0.16165779263034685,0.6261187409701124,-0.27236823407459126,-0.1011374020162182,-0.046579835708157734,5.0
0.3413508752949028,-0.16165779263034685,0.6492943581109707,-0.2667976430088537,-0.0770422217892488,-0.011407561619769383,5.0
0.3480684779973621,-0.18859046153946502,0.6415691298595757,-0.2533353321964011,-0.03196090981483959,0.04553802803940721,5.0
0.36150368340228395,-0.2121565440150194,0.5643170501856051,-0.23894457444111925,-0.09181023761741548,0.13849333259929136,5.0
0.401809299617043,-0.25592212943850073,0.5411413654314203,-0.17302570211700408,-0.15476861389952096,0.1937640482943301,5.0
0.36150368340228395,-0.23235604696294634,0.5643170501856051,-0.10246464037436184,-0.05994241249135468,0.20465070224947396,5.0
0.35814488205105405,-0.21552312722581285,0.618393512718717,-0.11221320304916431,-0.053724306052188524,0.09494670145771485,5.0
0.38165649150966185,-0.12125878995726325,0.6261187409701124,-0.13078190976570167,-0.06926957689015739,0.0547498156909138,5.0
0.3850152928608939,-0.0943261242709154,0.618393512718717,-0.1293892506753626,-0.020301951946309457,0.06228673193178275,5.0
0.35814488205105405,-0.06739345490140149,0.6570195863623656,-0.1655982171656082,0.04732001483029099,0.059774424815826316,5.0
0.324556868538753,-0.0943261242709154,0.711096048895478,-0.20737779736940073,-0.04983798360264283,0.01455292864736265,5.0
0.3312744712412128,-0.10105929069250236,0.7265465053982679,-0.20180718365585387,-0.11979174029393058,-0.046579835708157734,5.0
0.3346332725924435,-0.10442587390329584,0.6879204317546193,-0.18231004698234426,-0.1602094748089919,-0.02229422068191359,5.0
0.3279156698899826,-0.09769270748170888,0.6492943581109707,-0.135888300007834,-0.19984993535403717,-0.04155522658324521,5.0
0.324556868538753,-0.12462537500963974,0.6492943581109707,-0.11871224671968336,-0.1749774906371586,-0.044067533699201675,5.0
0.3480684779973621,-0.11452562353567627,0.5797674390750684,-0.10153620475543738,-0.23094049599018873,-0.018944477860638347,5.0
0.38165649150966185,-0.1111590403248828,0.47161444639551814,-0.07089784631678638,-0.12756438519302196,0.06312416763710157,5.0
0.408526902319505,-0.10105929069250236,0.39436236672154756,-0.07089784631678638,0.06908340514257308,0.11839488588564051,5.0
0.401809299617043,-0.11789220674646977,0.47161444639551814,-0.1400662546310419,0.19033658261746295,0.15942920480426023,5.0
0.36150368340228395,-0.12462537500963974,0.5797674390750684,-0.24590784724500517,0.08540594758053131,0.13263128266205965,5.0
0.3379920739436735,-0.1481914588663814,0.6029430562159273,-0.286294757034554,-0.10269193099603649,0.12425693582287223,5.0
0.3514272793485915,-0.1650243763015361,0.618393512718717,-0.3067203406508926,-0.20451350333327806,0.13263128266205965,5.0
0.35814488205105405,-0.19869021117184546,0.5720422108236735,-0.2700471506892325,-0.1804183325864156,0.08489747810088943,5.0
0.35814488205105405,-0.21552312722581285,0.5102405200391668,-0.1874164372244767,-0.09181023761741548,0.017065233209818908,5.0
0.3480684779973621,-0.2054233775934324,0.5102405200391668,-0.10849946623541869,-0.03351543879465785,-0.08007724349290885,5.0
0.3480684779973621,-0.2054233775934324,0.5102405200391668,-0.03190357792397561,-0.0288518565952565,-0.12111156241152851,5.0
0.35814488205105405,-0.1380917078528137,0.4793396746469131,0.008019127503247729,-0.008642989337725842,-0.09347620456400911,5.0
0.3883740942121239,-0.13472512464202022,0.5565918219342103,0.04283543773413041,0.016229455379152706,-0.032343438931738626,5.0
0.3883740942121239,-0.13472512464202022,0.5565918219342103,0.06418944564548891,0.03954737481937975,0.0547498156909138,5.0
0.3984504982658125,-0.1650243763015361,0.48706490289830795,0.07811596860545153,0.011565870809724606,0.07568569555638323,5.0
0.3984504982658125,-0.17175754364391455,0.4793396746469131,0.07765175645794162,0.05042907041990081,0.04553802803940721,5.0
0.3984504982658125,-0.17175754364391455,0.4793396746469131,0.07068848931600798,0.11571924372677385,-0.000520905111125367,5.0
0.35478608069982415,-0.17175754364391455,0.4947901311497035,0.034943740635224645,0.11183292601728163,-0.04909214282411418,5.0
0.3413508752949028,-0.11789220674646977,0.5411413654314203,-0.009621137932412831,0.041879166659713786,-0.036530617458332706,5.0
0.3413508752949028,-0.11789220674646977,0.5411413654314203,-0.019833922840077765,0.03177473510472185,-0.03401831034237626,5.0
0.37158008745597265,-0.10105929069250236,0.5025152917877719,-0.03376044774633649,0.05431539049941976,-0.018107042155319525,5.0
0.3480684779973621,-0.11452562353567627,0.47161444639551814,-0.061149280811007775,0.05664718278413381,0.0019914020048310823,5.0
0.3480684779973621,-0.11452562353567627,0.47161444639551814,-0.06904097790991355,0.051206334909809956,-0.009732690209131747,5.0
0.3480684779973621,-0.13135854143122672,0.5256909765419565,-0.058363973954234316,0.08307415885085737,0.03967598193242578,5.0
0.3413508752949028,-0.15155804230737277,0.5488665936828153,-0.03608153467041558,0.013120399789542889,0.06898621246733289,5.0
0.3379920739436735,-0.15155804230737277,0.5643170501856051,-0.011478007754773718,-0.06926957689015739,0.055587251396232606,5.0
0.35814488205105405,-0.1414582919843987,0.4947901311497035,0.022874086082134825,-0.0754876928094305,0.084060047502571,5.0
0.35814488205105405,-0.13135854143122672,0.5102405200391668,0.027516261345781074,-0.01486110525699896,0.0932718300470772,5.0
0.37158008745597265,-0.12462537500963974,0.44071360100326457,0.04794183363821509,0.035661054887987466,0.0773605618600205,5.0
0.37493888880720255,-0.13135854143122672,0.5025152917877719,0.05629774854658312,-0.006311200608051906,0.06898621246733289,5.0
0.36150368340228395,-0.1380917078528137,0.4947901311497035,0.07718753298652704,0.010788608689842206,0.06563647219955782,5.0
0.37158008745597265,-0.1414582919843987,0.5488665936828153,0.07672332083901713,0.05897897388383449,0.0547498156909138,5.0
0.37493888880720255,-0.12125878995726325,0.4947901311497035,0.04654918020982838,0.05897897388383449,0.052237508574957355,5.0
0.36486248475351335,-0.1111590403248828,0.5102405200391668,0.034479522825762395,0.06441982294317174,0.03465137153076318,5.0
0.36486248475351335,-0.10779245711408934,0.48706490289830795,0.009875995910120524,0.10250575687842542,0.035488806597706944,5.0
0.38165649150966185,-0.10779245711408934,0.5643170501856051,-0.009621137932412831,0.0037932330207134496,-0.03150600322641983,5.0
0.3950916969145832,-0.11452562353567627,0.5334161371800249,-0.0045147448593043284,-0.006311200608051906,-0.06165366818989565,5.0
0.3480684779973621,-0.09769270748170888,0.5025152917877719,-0.011478007754773718,0.051206334909809956,-0.029831136922782567,5.0
0.35478608069982415,-0.0943261242709154,0.4947901311497035,-0.02354766283867156,0.09551038120929664,-0.0507670142347518,5.0
0.3346332725924435,-0.07749320453378192,0.6338439016081808,-0.03097514301279516,0.14836432860269028,0.011203187102837487,5.0
0.30440406043137264,-0.0943261242709154,0.5797674390750684,-0.06486302045572953,0.07219246073218288,0.06228673193178275,5.0
0.31112166313383305,-0.12462537500963974,0.6724699752518295,-0.062077716429932255,0.020115775458671662,0.06228673193178275,5.0
0.3447096766461328,-0.12462537500963974,0.5874926673264639,-0.07089784631678638,-0.08792391516786978,0.07903543327065814,5.0
0.37158008745597265,-0.16839095951232957,0.5025152917877719,-0.06811254229098906,-0.16720484573806718,0.10918309823413395,5.0
0.36822128610474325,-0.16839095951232957,0.47161444639551814,-0.06811254229098906,-0.1804183325864156,0.10415848910922142,5.0
0.3950916969145832,-0.16839095951232957,0.3325606759370408,-0.06811254229098906,-0.08015127974888535,0.08322261179725218,5.0
0.40516810096827505,-0.1582912091893555,0.44843882925465933,-0.03886684011170095,0.017006719869061847,0.05140007542313872,5.0
0.38165649150966185,-0.17512412685470805,0.4947901311497035,-0.008692702313488346,0.03721558290498238,0.040513417637744596,5.0
0.3480684779973621,-0.16165779263034685,0.5256909765419565,-0.02169079279514066,0.006902288610323263,0.007853446835062413,5.0
0.3312744712412128,-0.16165779263034685,0.5334161371800249,-0.03004670810161472,-0.01486110525699896,0.03465137153076318,5.0
0.35814488205105405,-0.1414582919843987,0.5334161371800249,0.019160346437413045,0.006902288610323263,0.027951890436634867,5.0
0.37829769015843195,-0.13472512464202022,0.47161444639551814,0.014518171173766784,0.006902288610323263,0.04135085334306342,5.0
0.38165649150966185,-0.14482487519519216,0.4329884403651961,0.029373132583630054,0.009234079710023923,0.06228673193178275,5.0
0.37829769015843195,-0.16165779263034685,0.44843882925465933,0.003376952239601464,-0.011752047297362383,0.08740978521684589,5.0
0.35814488205105405,-0.16165779263034685,0.41753798386240637,-0.025404532837968456,0.02322483104828148,0.09913387998430892,5.0
0.36150368340228395,-0.16165779263034685,0.45616405750605493,-0.017512835385190644,0.07841057191140255,0.04721289945004484,5.0
0.37158008745597265,-0.1414582919843987,0.48706490289830795,-0.017512835385190644,0.14603253513296285,0.016227798781250188,5.0
0.37158008745597265,-0.1481914588663814,0.4947901311497035,-0.03376044774633649,0.11494197923686468,0.05056263971781991,5.0
0.35478608069982415,-0.1481914588663814,0.5102405200391668,-0.06161349862047002,0.008456815220114792,0.07317338844042678,5.0
0.3312744712412128,-0.1582912091893555,0.5643170501856051,-0.05418601650005029,-0.01408384076708982,0.07233595273510796,5.0
0.3346332725924435,-0.1650243763015361,0.5411413654314203,-0.027725620469791587,-0.007865729587870168,0.06312416763710157,5.0
0.37493888880720255,-0.16165779263034685,0.45616405750605493,-0.017048617929600423,0.06053350286365277,0.04302572347695095,5.0
0.3883740942121239,-0.1582912091893555,0.4793396746469131,-0.022619227794789108,0.04809727813518676,0.059774424815826316,5.0
0.37158008745597265,-0.1582912091893555,0.5179657482905617,-0.039331057921163204,0.028665678922605346,0.12509437152819103,5.0
0.35478608069982415,-0.1582912091893555,0.4947901311497035,-0.03376044774633649,-0.015638365006854598,0.14519280802784112,5.0
0.35814488205105405,-0.195323627961052,0.48706490289830795,-0.017977052840780865,-0.029629116345112175,0.07819799756533931,5.0
0.36150368340228395,-0.181857293276295,0.41753798386240637,0.010804431529045009,-0.0016476160386238046,0.08322261179725218,5.0
0.38165649150966185,-0.1380917078528137,0.4252632121138012,0.010804431529045009,-0.024965534145710802,0.09410926575239603,5.0
0.36486248475351335,-0.11789220674646977,0.46388928575744975,-0.019369705207551532,-0.01719289398667288,0.19125174117837368,5.0
0.3480684779973621,-0.16165779263034685,0.4793396746469131,-0.04397323318480946,-0.020301951946309457,0.21051276240070638,5.0
0.3413508752949028,-0.1852238764870885,0.4947901311497035,-0.04675853721060674,-0.07626495729933964,0.1552420364916669,5.0
0.3480684779973621,-0.16839095951232957,0.45616405750605493,-0.03004670810161472,-0.06538326392071868,0.10499592481454025,5.0
0.36486248475351335,-0.16165779263034685,0.41753798386240637,-0.037938405908264555,-0.04595166115309713,0.1435179366172035,5.0
0.38165649150966185,-0.16839095951232957,0.45616405750605493,-0.06300614921788057,-0.08326032822841496,0.17031586897340478,5.0
0.36150368340228395,-0.19195704475025846,0.41753798386240637,-0.06857676010045133,-0.09336476659723375,0.14519280802784112,5.0
0.36822128610474325,-0.2087899608042259,0.44843882925465933,-0.032367795025693806,-0.034292703284566996,0.0924343943417584,5.0
0.37829769015843195,-0.1852238764870885,0.46388928575744975,-0.006371614681665213,0.03954737481937975,0.03967598193242578,5.0
0.37829769015843195,-0.16165779263034685,0.47161444639551814,-0.013799095386596849,0.003015968530804292,0.06647390790487664,5.0
0.37493888880720255,-0.16839095951232957,0.41753798386240637,-0.015191748107239535,0.03488379099058501,0.11002053393945274,5.0
0.36822128610474325,-0.2222562973305659,0.4020875949729424,0.001520082417240579,0.09162405875975094,0.1292815398407844,5.0
0.38165649150966185,-0.2222562973305659,0.40981275561101094,0.014053953364304551,0.21365450783463014,0.059774424815826316,5.0
0.3514272793485915,-0.18859046153946502,0.5025152917877719,0.02333830389159707,0.29215817391491844,-0.08593929343014052,5.0
0.3514272793485915,-0.18859046153946502,0.4793396746469131,0.014518171173766784,0.240081481531327,-0.01057012591445058,5.0
0.35478608069982415,-0.1414582919843987,0.48706490289830795,0.009411780931634457,0.17168225381985752,0.0924343943417584,5.0
0.3850152928608939,-0.2222562973305659,0.4329884403651961,0.007554909693785476,0.10172849238851628,0.18706457286578035,5.0
0.401809299617043,-0.25592212943850073,0.4329884403651961,0.013125520576356227,0.1654641379005844,0.21135018789202448,5.0
0.408526902319505,-0.28285480249118067,0.5102405200391668,0.02519517512944603,0.28438552901582703,0.08740978521684589,5.0
0.36486248475351335,-0.23572263017373982,0.5334161371800249,0.055369312927658634,0.2665084552280238,-0.069190589537765,5.0
0.3211980671875228,-0.17512412685470805,0.5643170501856051,0.06140413878871546,0.20588186293553878,-0.1319982265806731,5.0
0.3010454942573831,-0.11789220674646977,0.5256909765419565,0.033551087206837915,0.20665913690555487,-0.09766338309060318,5.0
0.31783926583629285,-0.11452562353567627,0.5256909765419565,0.018696128627950805,0.21754082080406892,0.004503706567287342,5.0
0.3312744712412128,-0.13135854143122672,0.5411413654314203,0.051655570451960696,0.23697242357169043,-0.030668567521101,5.0
0.3346332725924435,-0.14482487519519216,0.6724699752518295,0.08600766570435732,0.2377496785814926,-0.12362386952748494,5.0
0.3850152928608939,-0.13135854143122672,0.7265465053982679,0.16260355330805637,0.0924013232496601,-0.19983046764149334,5.0
0.42196187254718326,-0.09095953737695586,0.6647447470004341,0.16863837916911315,0.06441982294317174,-0.17219509957997323,5.0
0.3950916969145832,-0.05392712205822755,0.5488665936828153,0.1570329395945095,0.13670537073416014,-0.10101312591187846,5.0
0.37158008745597265,-0.064026871690608,0.618393512718717,0.0785801920768661,0.2587358103289324,-0.051604449940070615,5.0
0.3447096766461328,-0.13135854143122672,0.6338439016081808,0.04701339801929061,0.27739015808675177,-0.15460898041028032,5.0
0.3279156698899826,-0.1414582919843987,0.6879204317546193,0.04283543773413041,0.17323677331956883,-0.19648072482021808,5.0
0.3346332725924435,-0.1481914588663814,0.618393512718717,0.06604631688333788,0.09861943442887973,-0.17638228832056801,5.0
0.3447096766461328,-0.1481914588663814,0.5565918219342103,0.04794183363821509,0.11338745025704641,-0.1311607908753543,5.0
0.36822128610474325,-0.1582912091893555,0.5411413654314203,0.033086869397375665,0.14603253513296285,-0.1462346233570922,5.0
0.37493888880720255,-0.1852238764870885,0.5334161371800249,0.013589738385818463,0.21520903681444845,-0.24588940079202595,5.0
0.37158008745597265,-0.1852238764870885,0.6029430562159273,-0.0017294408335070462,0.28360825504581094,-0.30869704804893483,5.0
0.3514272793485915,-0.10779245711408934,0.5874926673264639,-0.034688882657516934,0.2750583551369174,-0.2584509261578073,5.0
0.3514272793485915,-0.10442587390329584,0.610668284467322,-0.03422466484805469,0.1988864920064635,-0.16382076295478654,5.0
0.35814488205105405,-0.12462537500963974,0.6801952035032243,-0.009156920122950588,0.18178668270856935,-0.13534795918794762,5.0
0.3480684779973621,-0.12462537500963974,0.6415691298595757,-0.007300050300589701,0.20821366588537316,-0.12529874093812257,5.0
0.3480684779973621,-0.12462537500963974,0.6415691298595757,-0.007300050300589701,0.2105454498749936,-0.07672750067163357,5.0
0.36150368340228395,-0.12799195822043327,0.618393512718717,-0.03886684011170095,0.17401403780947794,-0.05914136107393921,5.0
0.37158008745597265,-0.12462537500963974,0.5952178955778589,-0.04675853721060674,0.19033658261746295,0.020414974115969025,5.0
0.37158008745597265,-0.12462537500963974,0.5952178955778589,-0.05140071247425301,0.2198726237539033,0.06982364817265171,5.0
0.3480684779973621,-0.12462537500963974,0.7033708206440825,-0.049079626257917966,0.15225065105223598,0.08573491380620826,5.0
0.3447096766461328,-0.1414582919843987,0.6724699752518295,-0.0792537612251544,0.06364255845326261,0.0924343943417584,5.0
0.36150368340228395,-0.1414582919843987,0.6647447470004341,-0.056507105547361505,0.0838514233407665,0.14854255084911636,5.0
0.35814488205105405,-0.1650243763015361,0.6492943581109707,-0.030510925203332918,0.14292348665343327,0.15272972937571042,5.0
0.3447096766461328,-0.1582912091893555,0.6724699752518295,-0.0402594921245996,0.146809799622872,0.10080874628794619,5.0
0.3379920739436735,-0.1414582919843987,0.79607342443417,-0.07878954341569216,0.07219246073218288,0.08322261179725218,5.0
0.3379920739436735,-0.1414582919843987,0.79607342443417,-0.08157485027246562,0.010788608689842206,0.11169540535009037,5.0
0.3379920739436735,-0.11452562353567627,0.711096048895478,-0.060220845192083275,0.017006719869061847,0.16612869044681072,5.0
0.3379920739436735,-0.11452562353567627,0.711096048895478,-0.022619227794789108,0.0037932330207134496,0.20130095942819873,5.0
0.3447096766461328,-0.13472512464202022,0.7342717336496627,-0.013799095386596849,-0.1011374020162182,0.17701534440195457,5.0
0.3514272793485915,-0.15155804230737277,0.7419968266744044,0.00012743040434193127,-0.10424645997585473,0.21469993071329974,5.0
0.3480684779973621,-0.16165779263034685,0.7497220549257995,-0.017512835385190644,-0.05061524809255197,0.14268050091188467,5.0
0.35814488205105405,-0.16165779263034685,0.711096048895478,0.026587825726856598,-0.02263374067598339,0.09159696374343994,5.0
0.35814488205105405,-0.1481914588663814,0.711096048895478,0.035407958444686874,-0.0304063808350213,0.11169540535009037,5.0
0.35814488205105405,-0.13135854143122672,0.6338439016081808,0.01591082460215351,-0.011752047297362383,0.13933076830461014,5.0
0.35478608069982415,-0.12462537500963974,0.618393512718717,0.001520082417240579,0.07141519861230052,0.10499592481454025,5.0
0.35814488205105405,-0.14482487519519216,0.6724699752518295,-0.032367795025693806,0.09861943442887973,0.07568569555638323,5.0
0.36486248475351335,-0.14482487519519216,0.7265465053982679,-0.05047227685532853,0.05509265380431553,0.06898621246733289,5.0
0.3480684779973621,-0.1380917078528137,0.6879204317546193,-0.03886684011170095,0.011565870809724606,0.07066108132447034,5.0
0.3413508752949028,-0.1380917078528137,0.6492943581109707,-0.02818983757150979,-0.02652006312552908,0.06479903649423902,5.0
0.35814488205105405,-0.1481914588663814,0.618393512718717,-0.029118272482690232,0.06597434955296326,0.06814877676201408,5.0
0.37158008745597265,-0.13135854143122672,0.5565918219342103,-0.04629431940114451,0.12349188388581174,0.05140007542313872,5.0
0.3447096766461328,-0.1481914588663814,0.6647447470004341,-0.03515310046697918,0.10250575687842542,0.030464195876856812,5.0
0.3413508752949028,-0.1481914588663814,0.6261187409701124,-0.049543844067380195,0.06131076498353517,0.06312416763710157,5.0
0.3447096766461328,-0.15155804230737277,0.6261187409701124,-0.039331057921163204,0.02555662333299553,0.09997131058262738,5.0
0.3447096766461328,-0.16165779263034685,0.6415691298595757,-0.006835832491127453,0.044988222545576946,0.11755745018032172,5.0
0.3480684779973621,-0.16165779263034685,0.6338439016081808,0.011268649338507263,0.09162405875975094,0.1024836176985838,5.0
0.31783926583629285,-0.16839095951232957,0.6801952035032243,0.026123607917394355,0.016229455379152706,0.12090719300159695,5.0
0.3346332725924435,-0.16165779263034685,0.6724699752518295,0.027516261345781074,-0.06771505739044609,0.05893699166400768,5.0
0.3480684779973621,-0.1481914588663814,0.6492943581109707,0.015446606792691274,-0.04439713217327885,0.07903543327065814,5.0
0.35814488205105405,-0.12125878995726325,0.5797674390750684,0.007090691884323239,-0.0016476160386238046,0.11923232159095935,5.0
0.3480684779973621,-0.1414582919843987,0.6879204317546193,-0.009156920122950588,-0.04906071911273367,0.15021742225975399,5.0
0.35814488205105405,-0.14482487519519216,0.7265465053982679,-0.009621137932412831,-0.17186843267752205,0.1158825787696841,5.0
0.3480684779973621,-0.1414582919843987,0.6724699752518295,-0.019369705207551532,-0.20295899331367367,0.1284441041354656,5.0
0.3514272793485915,-0.1380917078528137,0.6724699752518295,-0.031439360114513364,-0.13067344315265852,0.17450303728599814,5.0
0.35814488205105405,-0.1380917078528137,0.6492943581109707,-0.04350901537534721,-0.07937401525897621,0.11420770735904646,5.0
0.3447096766461328,-0.2054233775934324,0.618393512718717,-0.032367795025693806,-0.05761061902162728,0.03967598193242578,5.0
0.3379920739436735,-0.19869021117184546,0.6570195863623656,0.02055299986579977,-0.07859675076906705,0.03130163094380058,5.0
0.3447096766461328,-0.181857293276295,0.6724699752518295,0.03912170092038481,-0.1182372113141123,0.04553802803940721,5.0
0.36822128610474325,-0.17175754364391455,0.6415691298595757,0.03401530501630015,-0.1446641850108091,0.09494670145771485,5.0
0.3850152928608939,-0.16839095951232957,0.5411413654314203,0.021945653294186514,-0.11279635988474832,0.08071030468129572,5.0
0.35814488205105405,-0.17849071006550155,0.5488665936828153,0.034479522825762395,-0.09802834405658162,0.07987286897597692,5.0
0.3413508752949028,-0.17849071006550155,0.6338439016081808,0.07672332083901713,-0.07393316382961222,0.09913387998430892,5.0
0.3413508752949028,-0.2054233775934324,0.5797674390750684,0.0948277984221876,-0.09802834405658162,0.06312416763710157,5.0
0.36150368340228395,-0.2020567943826389,0.610668284467322,0.09900575304539545,-0.06926957689015739,-0.04574240000283894,5.0
0.37158008745597265,-0.17849071006550155,0.5797674390750684,0.09111405594648966,-0.05761061902162728,-0.046579835708157734,5.0
0.3447096766461328,-0.1582912091893555,0.5797674390750684,0.08786453694220632,-0.09491929557705203,-0.04071779087792641,5.0
0.3211980671875228,-0.1380917078528137,0.6029430562159273,0.07161692493493246,-0.1516595559398844,-0.0021957739682628083,5.0
0.36150368340228395,-0.13472512464202022,0.5565918219342103,0.062332574407639944,-0.12989616918264243,0.05893699166400768,5.0
0.3883740942121239,-0.13472512464202022,0.5565918219342103,0.04979870487606406,-0.04906071911273367,0.03465137153076318,5.0
0.38165649150966185,-0.17512412685470805,0.5488665936828153,0.04794183363821509,0.006902288610323263,-0.048254707118795384,5.0
0.37158008745597265,-0.17849071006550155,0.6570195863623656,0.012197084957431737,-0.04206533870355143,-0.09598851167996555,5.0
0.3514272793485915,-0.17849071006550155,0.6338439016081808,0.007554909693785476,-0.06693779290053693,-0.06584084671648972,5.0
0.3514272793485915,-0.17849071006550155,0.5952178955778589,-0.007300050300589701,-0.032738174304748714,-0.054954187654345524,5.0
0.3514272793485915,-0.16839095951232957,0.5411413654314203,-0.054650234309512546,0.013120399789542889,-0.054954187654345524,5.0
0.3447096766461328,-0.1582912091893555,0.5102405200391668,-0.056507105547361505,-0.009420253827634973,-0.06835315383244615,5.0
0.36486248475351335,-0.14482487519519216,0.5102405200391668,-0.014727530297777292,-0.0288518565952565,-0.06500341101117091,5.0
0.37493888880720255,-0.14482487519519216,0.48706490289830795,0.0010558646077783286,-0.024965534145710802,-0.043230097993882846,5.0
0.36822128610474325,-0.16165779263034685,0.4793396746469131,-0.02586875029355868,-0.009420253827634973,-0.025643958396188493,5.0
0.37158008745597265,-0.17849071006550155,0.5102405200391668,-0.037938405908264555,-0.034292703284566996,-0.04909214282411418,5.0
0.36822128610474325,-0.16839095951232957,0.5102405200391668,-0.020762357751258207,-0.034292703284566996,-0.044067533699201675,5.0
0.37158008745597265,-0.14482487519519216,0.5334161371800249,0.010340213719582776,-0.015638365006854598,0.017902668915137723,5.0
0.36486248475351335,-0.1414582919843987,0.5488665936828153,0.026587825726856598,-0.04595166115309713,-0.008895257057313144,5.0
0.36150368340228395,-0.16165779263034685,0.5102405200391668,0.02890891477416781,-0.06926957689015739,-0.03736805316365151,5.0
0.36150368340228395,-0.1582912091893555,0.5025152917877719,0.01591082460215351,-0.06849232188035521,-0.06249110389521445,5.0
0.36822128610474325,-0.1582912091893555,0.4947901311497035,-0.0008010052145825562,-0.07082410586997566,-0.07086546094840258,5.0
0.37158008745597265,-0.16165779263034685,0.4947901311497035,0.012197084957431737,-0.05527882555189986,-0.06835315383244615,5.0
0.35814488205105405,-0.16165779263034685,0.5256909765419565,0.0368006118730736,-0.06305147045099124,-0.054116751949026695,5.0
0.36150368340228395,-0.14482487519519216,0.5025152917877719,0.051655570451960696,-0.0583878835115364,-0.04574240000283894,5.0
0.37829769015843195,-0.12462537500963974,0.4329884403651961,0.02890891477416781,-0.0397335499738775,-0.03820548376196998,5.0
0.36486248475351335,-0.1414582919843987,0.44843882925465933,0.002912734430139216,-0.0583878835115364,-0.014757301887544452,5.0
0.36486248475351335,-0.15155804230737277,0.45616405750605493,-0.037938405908264555,-0.05994241249135468,-0.026481394101507297,5.0
0.36486248475351335,-0.1481914588663814,0.48706490289830795,-0.017977052840780865,-0.002424878158506208,-0.05579162335966432,5.0
0.35478608069982415,-0.1481914588663814,0.48706490289830795,-0.005443180478228819,0.019338510968762525,-0.030668567521101,5.0
0.3447096766461328,-0.13135854143122672,0.5411413654314203,-0.0045147448593043284,-0.011752047297362383,-0.0038706453789004395,5.0
0.3514272793485915,-0.09769270748170888,0.5488665936828153,-0.029118272482690232,-0.04128807895369576,0.010365752674268761,5.0
0.3413508752949028,-0.10105929069250236,0.46388928575744975,-0.034688882657516934,-0.09725107956667249,0.03381393646381941,5.0
0.35814488205105405,-0.13135854143122672,0.45616405750605493,-0.037938405908264555,-0.15010502696006614,0.03632624166465071,5.0
0.37158008745597265,-0.1414582919843987,0.5025152917877719,-0.03004670810161472,-0.14000059807135432,0.015390363075931375,5.0
0.3917328955633532,-0.14482487519519216,0.348011064826504,0.014518171173766784,-0.12445532723338541,0.019577539049025258,5.0
0.37158008745597265,-0.11452562353567627,0.41753798386240637,0.050262917023573994,0.002238704040895161,0.03297650139687564,5.0
0.3514272793485915,-0.10779245711408934,0.4329884403651961,0.018696128627950805,-0.05994241249135468,0.028789325583375516,5.0
0.35814488205105405,-0.12462537500963974,0.45616405750605493,0.021017217675262018,-0.12367805326336931,0.022089844249856563,5.0
0.36822128610474325,-0.11789220674646977,0.47161444639551814,0.04283543773413041,-0.10502372446576388,0.032139066329931874,5.0
0.36822128610474325,-0.11789220674646977,0.47161444639551814,0.0368006118730736,-0.07160137035988481,0.016227798781250188,5.0
0.38165649150966185,-0.13135854143122672,0.46388928575744975,0.035407958444686874,-0.007865729587870168,-0.020619349271275983,5.0
0.35478608069982415,-0.13135854143122672,0.4793396746469131,0.026587825726856598,-0.02807459210534737,-0.014757301887544452,5.0
0.35478608069982415,-0.13135854143122672,0.4793396746469131,0.016375042411615758,-0.06849232188035521,0.00617857670117488,5.0
0.36486248475351335,-0.13135854143122672,0.41753798386240637,0.02148143548472426,-0.06693779290053693,-0.021456784976594787,5.0
0.37158008745597265,-0.13135854143122672,0.4329884403651961,0.007090691884323239,-0.09103297312750634,-0.07170289665372141,5.0
0.37158008745597265,-0.13135854143122672,0.4329884403651961,0.008019127503247729,-0.1011374020162182,-0.1052002942244718,5.0
0.36150368340228395,-0.13135854143122672,0.3789119102187578,0.014053953364304551,-0.11435088886456661,-0.11524952268829754,5.0
0.36822128610474325,-0.10779245711408934,0.46388928575744975,0.003841170049063701,-0.13145069816246066,-0.09766338309060318,5.0
0.36822128610474325,-0.10779245711408934,0.46388928575744975,-0.012870660475416405,-0.14932777195026395,-0.0842644220195029,5.0
0.36486248475351335,-0.10779245711408934,0.41753798386240637,-0.027261402660329344,-0.15787767185915752,-0.06332853960053328,5.0
0.35814488205105405,-0.08759295416616238,0.355736293077899,-0.04350901537534721,-0.17964105861639948,-0.04490496940452047,5.0
0.35814488205105405,-0.08759295416616238,0.355736293077899,-0.022619227794789108,-0.11979174029393058,-0.05746649477030195,5.0
0.38165649150966185,-0.12462537500963974,0.34028590418843563,0.013589738385818463,-0.07471042831952135,-0.06249110389521445,5.0
0.3950916969145832,-0.11452562353567627,0.4020875949729424,0.019624564246875295,-0.14155512705117257,-0.08761416484077815,5.0
0.35814488205105405,-0.10779245711408934,0.4020875949729424,0.004305387858525954,-0.1765320006567629,-0.09096389744805267,5.0
0.35814488205105405,-0.10779245711408934,0.4020875949729424,0.008947563122172214,-0.2060680323130963,-0.07337775785035834,5.0
0.38165649150966185,-0.10105929069250236,0.28620937404199726,0.02333830389159707,-0.14155512705117257,-0.08677672913545935,5.0
0.3850152928608939,-0.1414582919843987,0.28620937404199726,-0.0049789626687665655,-0.02807459210534737,-0.10938747275106586,5.0
0.3850152928608939,-0.1414582919843987,0.28620937404199726,-0.017977052840780865,0.027888415617709578,-0.1462346233570922,5.0
0.35478608069982415,-0.13472512464202022,0.39436236672154756,0.0400501365393093,-0.19440907444456615,-0.06416597530585208,5.0
0.3346332725924435,-0.064026871690608,0.3866371384701526,0.0799728398433005,-0.22239057712108135,-0.01057012591445058,5.0
0.3850152928608939,-0.064026871690608,0.21668245500609506,0.003841170049063701,-0.034292703284566996,-0.04071779087792641,5.0
0.44211468065456383,-0.10105929069250236,0.1548807642215883,-0.08760967613352244,0.20121827599608394,-0.11608695839361635,5.0
0.3850152928608939,-0.0943261242709154,0.2553085286497436,-0.08528859274816356,0.16624140239049354,-0.11357465127765991,5.0
0.3413508752949028,-0.07749320453378192,0.36346152132929394,-0.04350901537534721,0.06752887853278154,-0.08677672913545935,5.0
0.3480684779973621,-0.064026871690608,0.3248354476856458,-0.009621137932412831,0.035661054887987466,-0.036530617458332706,5.0
0.37493888880720255,-0.08759295416616238,0.309385058796182,-0.030510925203332918,0.10095122789860714,-0.07002802524308378,5.0
0.37493888880720255,-0.10779245711408934,0.3248354476856458,-0.05093649466479077,0.14292348665343327,-0.15795870280355417,5.0
0.38165649150966185,-0.09769270748170888,0.3248354476856458,-0.05047227685532853,0.146809799622872,-0.15712127731223605,5.0
0.37493888880720255,-0.07076003811219499,0.355736293077899,-0.055578669928437026,0.08229689436094825,-0.12278643382216613,5.0
0.35814488205105405,-0.05392712205822755,0.3016598305447872,-0.05047227685532853,0.06908340514257308,-0.04239266228856404,5.0
0.37158008745597265,-0.08085978774457542,0.27848414579060243,-0.07786110779676768,0.09706491018911492,-0.06165366818989565,5.0
0.37493888880720255,-0.10105929069250236,0.2553085286497436,-0.07786110779676768,0.17945488923884195,-0.09180133315337147,5.0
0.38165649150966185,-0.10105929069250236,0.3016598305447872,-0.05789975897574823,0.19422290506700865,-0.07337775785035834,5.0
0.3480684779973621,-0.04719395563664062,0.4020875949729424,-0.019369705207551532,0.08307415885085737,0.022089844249856563,5.0
0.3413508752949028,-0.043827372425847125,0.44071360100326457,0.006626474074861007,0.035661054887987466,0.10667079622517789,5.0
0.36150368340228395,-0.05392712205822755,0.37118674958068937,-0.024476097749852002,0.051206334909809956,0.06061186052114511,5.0
0.37493888880720255,-0.09769270748170888,0.2553085286497436,-0.03561731827644142,0.06131076498353517,0.005341142272606155,5.0
0.37829769015843195,-0.08759295416616238,0.3016598305447872,-0.042116363362448575,0.0924013232496601,0.0019914020048310823,5.0
0.3917328955633532,-0.07749320453378192,0.309385058796182,-0.024476097749852002,0.1266009418454483,0.08071030468129572,5.0
0.38165649150966185,-0.043827372425847125,0.3171102194342504,-0.02308344529461333,0.12193735490599346,0.10332105340390262,5.0
0.37493888880720255,-0.06066028847981454,0.37118674958068937,-0.03515310046697918,0.0869604765603496,0.11755745018032172,5.0
0.35478608069982415,-0.0842263709553689,0.3248354476856458,-0.06161349862047002,0.08773774105025872,0.10583336051985906,5.0
0.35814488205105405,-0.08759295416616238,0.348011064826504,-0.07786110779676768,0.08307415885085737,0.08573491380620826,5.0
0.37158008745597265,-0.07749320453378192,0.3248354476856458,-0.0653272382651918,0.10406028585824371,0.1167200144750029,5.0
0.37158008745597265,-0.06739345490140149,0.34028590418843563,-0.04118792774352409,0.11805103245644777,0.12174462870691578,5.0
0.37158008745597265,-0.06739345490140149,0.36346152132929394,-0.017512835385190644,0.09861943442887973,0.10834566252881514,5.0
0.36150368340228395,-0.0943261242709154,0.39436236672154756,-0.02401188029426178,0.05664718278413381,0.10834566252881514,5.0
0.37158008745597265,-0.07749320453378192,0.40981275561101094,-0.02865405538097203,0.0488745426250959,0.1167200144750029,5.0
0.37158008745597265,-0.06066028847981454,0.37118674958068937,-0.054650234309512546,0.10172849238851628,0.1167200144750029,5.0
0.36150368340228395,-0.064026871690608,0.34028590418843563,-0.0592924095731588,0.11960556143626604,0.1376558968939725,5.0
0.35814488205105405,-0.0842263709553689,0.40981275561101094,-0.04861540844845572,0.08540594758053131,0.08740978521684589,5.0
0.35814488205105405,-0.10105929069250236,0.3789119102187578,-0.050008059045866284,0.06986066963248223,0.048887768307182285,5.0
0.36822128610474325,-0.10442587390329584,0.3325606759370408,-0.06161349862047002,0.11105566152737247,0.03632624166465071,5.0
0.37158008745597265,-0.0943261242709154,0.3789119102187578,-0.059756627382621046,0.17401403780947794,0.0003165305941934558,5.0
0.36150368340228395,-0.10779245711408934,0.36346152132929394,-0.045365885197708095,0.1654641379005844,-0.02229422068191359,5.0
0.36486248475351335,-0.10779245711408934,0.37118674958068937,-0.04629431940114451,0.1693504603501301,-0.02731882980682613,5.0
0.37158008745597265,-0.10779245711408934,0.4252632121138012,-0.04861540844845572,0.17245951830976664,-0.048254707118795384,5.0
0.37493888880720255,-0.10779245711408934,0.41753798386240637,-0.03700997028934007,0.1693504603501301,-0.01978191356595715,5.0
0.37829769015843195,-0.07749320453378192,0.3789119102187578,-0.05047227685532853,0.15458244452196337,0.019577539049025258,5.0
0.35814488205105405,-0.06739345490140149,0.3325606759370408,-0.07275471755463532,0.10872386805764506,0.01874010398208149,5.0
0.3480684779973621,-0.08085978774457542,0.36346152132929394,-0.09828668008920169,0.041101902762311335,0.08992209233280232,5.0
0.3413508752949028,-0.0842263709553689,0.3789119102187578,-0.09318028984706934,0.03488379099058501,0.04470059361083849,5.0
0.35478608069982415,-0.07749320453378192,0.3789119102187578,-0.07693267783979552,0.05509265380431553,0.05307494428027617,5.0
0.36486248475351335,-0.0842263709553689,0.39436236672154756,-0.043044797565884974,0.05042907041990081,0.10918309823413395,5.0
0.35478608069982415,-0.10105929069250236,0.44843882925465933,-0.05325758371210198,-0.0032021426484153386,0.12006975729627817,5.0
0.36486248475351335,-0.10105929069250236,0.41753798386240637,-0.05186493028371524,-0.04206533870355143,0.08740978521684589,5.0
0.38165649150966185,-0.07749320453378192,0.39436236672154756,-0.059756627382621046,0.006902288610323263,0.12425693582287223,5.0
0.36486248475351335,-0.09095953737695586,0.4020875949729424,-0.055578669928437026,0.002238704040895161,0.08573491380620826,5.0
0.36150368340228395,-0.1111590403248828,0.39436236672154756,-0.06439880264626731,0.029442943412514487,0.03632624166465071,5.0
0.36822128610474325,-0.13135854143122672,0.40981275561101094,-0.06857676010045133,0.06286529396335344,-0.016432170744681916,5.0
0.37158008745597265,-0.1111590403248828,0.41753798386240637,-0.0755400244114088,0.09006953451998616,-0.04490496940452047,5.0
0.36822128610474325,-0.08759295416616238,0.41753798386240637,-0.08111063246300337,0.035661054887987466,-0.0356931817530139,5.0
0.35478608069982415,-0.07749320453378192,0.48706490289830795,-0.08064641465354114,0.016229455379152706,-0.011407561619769383,5.0
0.37158008745597265,-0.09769270748170888,0.41753798386240637,-0.08111063246300337,0.02322483104828148,-0.03904291946728877,5.0
0.37158008745597265,-0.08759295416616238,0.44843882925465933,-0.06579145607465403,0.06286529396335344,-0.011407561619769383,5.0
0.36822128610474325,-0.0943261242709154,0.41753798386240637,-0.06254193140841834,0.03177473510472185,0.011203187102837487,5.0
0.36822128610474325,-0.10105929069250236,0.39436236672154756,-0.06811254229098906,0.03488379099058501,0.027951890436634867,5.0
0.35814488205105405,-0.0943261242709154,0.41753798386240637,-0.05047227685532853,0.02167030325347657,-0.0013583408164441757,5.0
0.36486248475351335,-0.10105929069250236,0.4252632121138012,-0.04861540844845572,0.018561247663866756,0.017902668915137723,5.0
0.37158008745597265,-0.11789220674646977,0.36346152132929394,-0.05232914809317749,-9.308705880552536e-05,0.029626760809913045,5.0
0.37158008745597265,-0.12125878995726325,0.40981275561101094,-0.03886684011170095,0.017783984358970984,-0.016432170744681916,5.0
0.37493888880720255,-0.12125878995726325,0.4329884403651961,-0.043044797565884974,0.04265643085336958,-0.0038706453789004395,5.0
0.36486248475351335,-0.10442587390329584,0.4252632121138012,-0.03329623064461829,0.018561247663866756,0.013715492942043836,5.0
0.37158008745597265,-0.10442587390329584,0.39436236672154756,-0.03283201283515605,0.029442943412514487,0.0011539662995122691,5.0
0.36150368340228395,-0.10779245711408934,0.4020875949729424,-0.03376044774633649,0.020115775458671662,-0.014757301887544452,5.0
0.36486248475351335,-0.10779245711408934,0.45616405750605493,-0.02865405538097203,0.04732001483029099,0.0019914020048310823,5.0
0.36486248475351335,-0.10105929069250236,0.44071360100326457,-0.013799095386596849,0.04965180592999167,-0.021456784976594787,5.0
0.36150368340228395,-0.0842263709553689,0.45616405750605493,-0.017512835385190644,0.05431539049941976,0.016227798781250188,5.0
0.35478608069982415,-0.0943261242709154,0.44843882925465933,-0.011013789945311476,0.03177473510472185,0.04637546374472602,5.0
0.35478608069982415,-0.09095953737695586,0.44843882925465933,-0.020298140295667986,0.0006841750610768776,0.03800111179853825,5.0
0.3480684779973621,-0.09769270748170888,0.4329884403651961,-0.012870660475416405,0.02167030325347657,0.04135085334306342,5.0
0.35814488205105405,-0.0842263709553689,0.41753798386240637,-0.00033678740512030586,0.019338510968762525,0.007016011129743601,5.0
0.35814488205105405,-0.0943261242709154,0.4329884403651961,-0.0045147448593043284,0.03177473510472185,0.03130163094380058,5.0
0.35814488205105405,-0.08085978774457542,0.4329884403651961,-0.0008010052145825562,0.034106527093182556,0.05642468454805124,5.0
0.36150368340228395,-0.07749320453378192,0.36346152132929394,0.0052338234774504284,0.02633388782290467,0.06396160078892019,5.0
0.36486248475351335,-0.0842263709553689,0.36346152132929394,-0.029582490292152475,-0.0304063808350213,0.08322261179725218,5.0
0.37158008745597265,-0.08759295416616238,0.348011064826504,-0.045365885197708095,-0.02729732761543822,0.07819799756533931,5.0
0.35814488205105405,-0.06739345490140149,0.3866371384701526,-0.017512835385190644,0.0014614395509860085,0.07903543327065814,5.0
0.36150368340228395,-0.06739345490140149,0.4329884403651961,-0.014727530297777292,0.010788608689842206,0.10667079622517789,5.0
0.36150368340228395,-0.08085978774457542,0.41753798386240637,-0.03515310046697918,-0.01486110525699896,0.1024836176985838,5.0
0.36822128610474325,-0.0842263709553689,0.41753798386240637,-0.04397323318480946,-0.0583878835115364,0.0982964442789901,5.0
0.36822128610474325,-0.0842263709553689,0.39436236672154756,-0.027261402660329344,-0.05605609004180898,0.08489747810088943,5.0
0.36822128610474325,-0.0842263709553689,0.41753798386240637,-0.017048617929600423,-0.0195246874564003,0.09075952803812114,5.0
0.36486248475351335,-0.10105929069250236,0.40981275561101094,-0.016120183018419977,0.010788608689842206,0.08992209233280232,5.0
0.37158008745597265,-0.10442587390329584,0.41753798386240637,-0.0017294408335070462,0.013897664279452028,0.03130163094380058,5.0
0.37829769015843195,-0.10105929069250236,0.39436236672154756,-0.020298140295667986,0.03721558290498238,0.02460214976987539,5.0
0.36822128610474325,-0.11452562353567627,0.3789119102187578,-0.01194222556423596,0.02633388782290467,0.0497252040125011,5.0
0.36486248475351335,-0.09769270748170888,0.45616405750605493,-0.0031220928464056807,0.04421095864817449,0.02460214976987539,5.0
0.36150368340228395,-0.09769270748170888,0.41753798386240637,0.003376952239601464,0.02555662333299553,0.04302572347695095,5.0
0.36822128610474325,-0.07749320453378192,0.355736293077899,-0.005443180478228819,0.05897897388383449,0.03967598193242578,5.0
0.35814488205105405,-0.08759295416616238,0.3866371384701526,-0.005907398287691054,0.05664718278413381,0.030464195876856812,5.0
0.36150368340228395,-0.09095953737695586,0.44843882925465933,-0.0012652230240447933,0.05586991829422467,0.05140007542313872,5.0
0.36486248475351335,-0.09769270748170888,0.45616405750605493,-0.01890548775196131,0.04654275034038185,0.04386315790551967,5.0
0.36486248475351335,-0.09769270748170888,0.37118674958068937,-0.007300050300589701,0.06908340514257308,0.05140007542313872,5.0
0.37158008745597265,-0.09769270748170888,0.41753798386240637,0.003841170049063701,0.08074236538112996,0.06312416763710157,5.0
0.36822128610474325,-0.09095953737695586,0.40981275561101094,-0.011478007754773718,0.08229689436094825,0.030464195876856812,5.0
0.36822128610474325,-0.09095953737695586,0.40981275561101094,-0.034688882657516934,0.06986066963248223,0.04470059361083849,5.0
0.37158008745597265,-0.0842263709553689,0.355736293077899,-0.03979527573062544,0.07063793412239136,0.04553802803940721,5.0
0.36150368340228395,-0.10779245711408934,0.3866371384701526,-0.02169079279514066,0.11027839703746332,0.052237508574957355,5.0
0.36150368340228395,-0.10779245711408934,0.3866371384701526,-0.032367795025693806,0.12038282592617518,0.04386315790551967,5.0
0.38165649150966185,-0.10105929069250236,0.36346152132929394,-0.03422466484805469,0.09706491018911492,0.03967598193242578,5.0
0.37493888880720255,-0.0943261242709154,0.44071360100326457,-0.039331057921163204,0.08462868309062219,0.04637546374472602,5.0
0.37493888880720255,-0.0943261242709154,0.44071360100326457,-0.03608153467041558,0.051206334909809956,0.05726212025337003,5.0
0.38165649150966185,-0.10105929069250236,0.4020875949729424,-0.034688882657516934,0.05664718278413381,0.06061186052114511,5.0
0.37158008745597265,-0.12462537500963974,0.3789119102187578,-0.031439360114513364,0.07452425420191033,0.05140007542313872,5.0
0.37158008745597265,-0.12462537500963974,0.3789119102187578,-0.041652145552986325,0.09317858773956922,0.04386315790551967,5.0
0.36486248475351335,-0.13135854143122672,0.37118674958068937,-0.04629431940114451,0.11027839703746332,0.021252409182912796,5.0
0.36150368340228395,-0.12462537500963974,0.36346152132929394,-0.04118792774352409,0.1266009418454483,0.0011539662995122691,5.0
0.36486248475351335,-0.10105929069250236,0.40981275561101094,-0.02818983757150979,0.1289327353151757,0.037163677369969526,5.0
0.37158008745597265,-0.10779245711408934,0.3789119102187578,-0.020762357751258207,0.15302791554214515,0.02543958499641292,5.0
0.37493888880720255,-0.10105929069250236,0.37118674958068937,-0.017977052840780865,0.19500016955691774,0.04302572347695095,5.0
0.36486248475351335,-0.1111590403248828,0.41753798386240637,-0.01194222556423596,0.17401403780947794,0.04218828777163213,5.0
0.3514272793485915,-0.11789220674646977,0.5411413654314203,-0.036545752479877826,0.0962876456992058,0.06898621246733289,5.0
0.3514272793485915,-0.07412662132298845,0.5102405200391668,-0.08064641465354114,0.01234313529963374,0.06647390790487664,5.0
0.3514272793485915,-0.12462537500963974,0.4329884403651961,-0.036545752479877826,0.05276086270461485,0.07819799756533931,5.0
0.38165649150966185,-0.1414582919843987,0.39436236672154756,0.006626474074861007,0.13437357726443272,0.04470059361083849,5.0
0.3917328955633532,-0.14482487519519216,0.39436236672154756,0.014982388983229037,0.1911138471073721,0.021252409182912796,5.0
0.37158008745597265,-0.1414582919843987,0.39436236672154756,0.002912734430139216,0.18878205363764466,0.011203187102837487,5.0
0.35478608069982415,-0.12462537500963974,0.45616405750605493,0.010340213719582776,0.14914159309259942,0.011203187102837487,5.0
0.35478608069982415,-0.1111590403248828,0.48706490289830795,0.007554909693785476,0.04732001483029099,0.03800111179853825,5.0
0.35478608069982415,-0.1111590403248828,0.47161444639551814,-0.017512835385190644,0.02244756774338571,0.04470059361083849,5.0
0.36150368340228395,-0.10105929069250236,0.4329884403651961,-0.043044797565884974,0.05509265380431553,0.052237508574957355,5.0
0.35814488205105405,-0.10105929069250236,0.4329884403651961,-0.03747418809880231,0.0815196298710391,0.021252409182912796,5.0
0.36486248475351335,-0.08085978774457542,0.5179657482905617,-0.0263329677491489,0.09551038120929664,0.037163677369969526,5.0
0.3514272793485915,-0.1111590403248828,0.47161444639551814,-0.029118272482690232,0.06986066963248223,0.008690882540381228,5.0
0.35814488205105405,-0.13472512464202022,0.44843882925465933,0.002448516620676979,0.05198359821470572,0.029626760809913045,5.0
0.36486248475351335,-0.1111590403248828,0.47161444639551814,0.006626474074861007,0.044988222545576946,0.011203187102837487,5.0
0.37158008745597265,-0.10105929069250236,0.47161444639551814,0.007554909693785476,0.06131076498353517,0.053912379985594984,5.0
0.36486248475351335,-0.11789220674646977,0.46388928575744975,-0.012406442665954162,0.02633388782290467,0.03967598193242578,5.0
0.35814488205105405,-0.12125878995726325,0.5179657482905617,-0.02586875029355868,0.03177473510472185,0.06479903649423902,5.0
0.36486248475351335,-0.13135854143122672,0.45616405750605493,-0.008692702313488346,0.05431539049941976,0.04386315790551967,5.0
0.37158008745597265,-0.1380917078528137,0.4793396746469131,0.001520082417240579,0.05820170939392535,0.04470059361083849,5.0
0.36150368340228395,-0.12462537500963974,0.48706490289830795,-0.0008010052145825562,0.003015968530804292,0.04470059361083849,5.0
0.3480684779973621,-0.09095953737695586,0.47161444639551814,-0.017048617929600423,0.01234313529963374,0.05140007542313872,5.0
0.3514272793485915,-0.09769270748170888,0.47161444639551814,-0.026797185204739123,0.06286529396335344,0.09159696374343994,5.0
0.35814488205105405,-0.10442587390329584,0.5179657482905617,-0.03422466484805469,0.05042907041990081,0.11002053393945274,5.0
0.35814488205105405,-0.1111590403248828,0.48706490289830795,-0.013799095386596849,0.01001134419993308,0.07819799756533931,5.0
0.35814488205105405,-0.11452562353567627,0.5334161371800249,-0.029582490292152475,-0.013306576277180671,0.08740978521684589,5.0
0.35814488205105405,-0.1111590403248828,0.47161444639551814,-0.03190357792397561,-0.025742798635619932,0.08740978521684589,5.0
0.35814488205105405,-0.11789220674646977,0.4793396746469131,-0.03561731827644142,0.003015968530804292,0.09745900857367129,5.0
0.35814488205105405,-0.11789220674646977,0.46388928575744975,-0.032367795025693806,0.00612502412041411,0.08238517609193337,5.0
0.35478608069982415,-0.13135854143122672,0.5025152917877719,-0.006835832491127453,0.011565870809724606,0.06982364817265171,5.0
0.35814488205105405,-0.12462537500963974,0.48706490289830795,-0.0049789626687665655,-0.04595166115309713,0.03130163094380058,5.0
0.35814488205105405,-0.10779245711408934,0.5025152917877719,-0.011013789945311476,-0.04672892564300625,0.010365752674268761,5.0
0.36486248475351335,-0.10442587390329584,0.45616405750605493,-0.012406442665954162,-0.0288518565952565,-0.0030332096735816074,5.0
0.3514272793485915,-0.10105929069250236,0.46388928575744975,-0.011478007754773718,0.016229455379152706,0.01287805723672502,5.0
0.36486248475351335,-0.10442587390329584,0.47161444639551814,-0.002193657227481191,0.04265643085336958,-0.009732690209131747,5.0
0.37829769015843195,-0.11452562353567627,0.4793396746469131,0.009411780931634457,0.017006719869061847,-0.013082433030407015,5.0
0.36486248475351335,-0.1111590403248828,0.5025152917877719,0.001520082417240579,-0.018747422966491168,-0.02229422068191359,5.0
0.35814488205105405,-0.10105929069250236,0.47161444639551814,-0.009621137932412831,-0.0016476160386238046,-0.008057821351994315,5.0
0.3480684779973621,-0.10442587390329584,0.46388928575744975,-0.029582490292152475,0.015452190889243567,0.008690882540381228,5.0
0.36486248475351335,-0.11789220674646977,0.4252632121138012,0.002448516620676979,0.03177473510472185,0.03967598193242578,5.0
0.37158008745597265,-0.13135854143122672,0.4793396746469131,-0.005443180478228819,0.03332926289952676,0.007853446835062413,5.0
0.37158008745597265,-0.1414582919843987,0.45616405750605493,-0.006371614681665213,0.030220207309916942,-0.018944477860638347,5.0
0.37158008745597265,-0.1380917078528137,0.4329884403651961,-0.004050528465330165,0.027888415617709578,-0.02229422068191359,5.0
0.35478608069982415,-0.10105929069250236,0.45616405750605493,0.001984298811214742,0.020893039948580803,0.01455292864736265,5.0
0.3480684779973621,-0.10105929069250236,0.44071360100326457,0.002448516620676979,-0.04128807895369576,0.05140007542313872,5.0
0.35814488205105405,-0.12462537500963974,0.44071360100326457,0.004305387858525954,-0.0863693861880515,0.04302572347695095,5.0
0.35478608069982415,-0.1414582919843987,0.47161444639551814,-0.006835832491127453,-0.08559212169814236,0.00952831696894995,5.0
0.35814488205105405,-0.12462537500963974,0.45616405750605493,-0.044901667388245865,-0.10502372446576388,0.021252409182912796,5.0
0.37829769015843195,-0.09769270748170888,0.3789119102187578,-0.049543844067380195,-0.04983798360264283,-0.0013583408164441757,5.0
0.36486248475351335,-0.12125878995726325,0.40981275561101094,-0.049079626257917966,0.00612502412041411,0.010365752674268761,5.0
0.37493888880720255,-0.13135854143122672,0.4329884403651961,-0.03376044774633649,0.002238704040895161,0.020414974115969025,5.0
0.37829769015843195,-0.1414582919843987,0.44071360100326457,-0.010549572843593275,-0.01486110525699896,0.012040622808156303,5.0
0.37158008745597265,-0.1481914588663814,0.40981275561101094,0.0005916467983160941,-0.013306576277180671,0.013715492942043836,5.0
0.37829769015843195,-0.1414582919843987,0.36346152132929394,0.027516261345781074,0.02322483104828148,0.005341142272606155,5.0
0.36486248475351335,-0.1481914588663814,0.4252632121138012,0.04051435434877154,0.029442943412514487,-0.000520905111125367,5.0
0.37158008745597265,-0.12799195822043327,0.4252632121138012,0.04701339801929061,0.04343369475077203,0.029626760809913045,5.0
0.36486248475351335,-0.12125878995726325,0.44843882925465933,0.048870269257139595,0.05431539049941976,0.019577539049025258,5.0
0.36486248475351335,-0.10442587390329584,0.3789119102187578,0.050727134833036217,0.020115775458671662,0.06563647219955782,5.0
0.36486248475351335,-0.10442587390329584,0.37118674958068937,0.03772904749199809,0.034106527093182556,0.053912379985594984,5.0
0.36486248475351335,-0.10442587390329584,0.37118674958068937,0.02148143548472426,0.032551999002124306,0.04386315790551967,5.0
0.36486248475351335,-0.10105929069250236,0.3789119102187578,0.018696128627950805,0.03488379099058501,0.03632624166465071,5.0
0.36822128610474325,-0.10779245711408934,0.40981275561101094,0.001520082417240579,0.028665678922605346,0.01455292864736265,5.0
0.36822128610474325,-0.1111590403248828,0.40981275561101094,-0.0017294408335070462,0.03332926289952676,0.00617857670117488,5.0
0.37829769015843195,-0.11789220674646977,0.39436236672154756,0.002448516620676979,0.027111151127800444,-0.007220385646675508,5.0
0.36150368340228395,-0.10779245711408934,0.37118674958068937,0.002448516620676979,0.017783984358970984,-0.008895257057313144,5.0
0.36822128610474325,-0.10779245711408934,0.4329884403651961,-0.014727530297777292,-0.010974782807453252,0.00617857670117488,5.0
0.35814488205105405,-0.10779245711408934,0.4252632121138012,-0.024940315382378234,-0.021079216436218587,0.022927279635987854,5.0
0.36486248475351335,-0.11789220674646977,0.45616405750605493,-0.031439360114513364,-0.011752047297362383,0.013715492942043836,5.0
0.36822128610474325,-0.10442587390329584,0.40981275561101094,-0.024476097749852002,0.0037932330207134496,0.03130163094380058,5.0
0.37493888880720255,-0.12462537500963974,0.3866371384701526,-0.013334877577134606,0.030997471207319396,0.04553802803940721,5.0
0.37158008745597265,-0.11789220674646977,0.36346152132929394,-0.012870660475416405,0.014674928769361169,0.03465137153076318,5.0
0.37158008745597265,-0.12799195822043327,0.41753798386240637,-0.015655965208957737,0.003015968530804292,0.023764714702931622,5.0
0.37493888880720255,-0.12125878995726325,0.3789119102187578,-0.011478007754773718,0.03877011084791396,0.017065233209818908,5.0
0.37158008745597265,-0.11789220674646977,0.3789119102187578,-0.014727530297777292,0.041879166659713786,0.03967598193242578,5.0
0.36150368340228395,-0.11789220674646977,0.45616405750605493,-0.012870660475416405,0.027888415617709578,0.038838547503857054,5.0
0.36486248475351335,-0.11789220674646977,0.44843882925465933,-0.006371614681665213,0.04732001483029099,0.03632624166465071,5.0
0.36486248475351335,-0.12125878995726325,0.39436236672154756,-0.008228485919514186,0.027888415617709578,0.015390363075931375,5.0
0.3480684779973621,-0.10779245711408934,0.39436236672154756,-0.0049789626687665655,0.008456815220114792,0.012040622808156303,5.0
0.36486248475351335,-0.10105929069250236,0.4252632121138012,0.003841170049063701,0.03877011084791396,0.029626760809913045,5.0
0.37158008745597265,-0.10779245711408934,0.39436236672154756,-0.017048617929600423,0.015452190889243567,0.029626760809913045,5.0
0.38165649150966185,-0.10779245711408934,0.3866371384701526,-0.02169079279514066,0.03643831893351659,0.03967598193242578,5.0
0.35478608069982415,-0.11789220674646977,0.3789119102187578,-0.02401188029426178,0.03488379099058501,0.03130163094380058,5.0
0.35478608069982415,-0.10779245711408934,0.4020875949729424,-0.025404532837968456,0.027888415617709578,0.022927279635987854,5.0
0.36150368340228395,-0.1111590403248828,0.41753798386240637,-0.020762357751258207,0.014674928769361169,0.012040622808156303,5.0
0.36822128610474325,-0.11452562353567627,0.4020875949729424,-0.02401188029426178,-0.002424878158506208,0.013715492942043836,5.0
0.37493888880720255,-0.12125878995726325,0.3866371384701526,-0.02586875029355868,0.04654275034038185,0.0003165305941934558,5.0
0.3883740942121239,-0.12462537500963974,0.37118674958068937,-0.03097514301279516,0.03954737481937975,0.004503706567287342,5.0
0.37829769015843195,-0.12125878995726325,0.36346152132929394,-0.019369705207551532,0.03721558290498238,0.010365752674268761,5.0
0.36822128610474325,-0.1111590403248828,0.4020875949729424,-0.015191748107239535,0.03488379099058501,0.017065233209818908,5.0
0.36822128610474325,-0.1111590403248828,0.4020875949729424,-0.01426331248831505,0.02322483104828148,-0.008057821351994315,5.0
0.37158008745597265,-0.13135854143122672,0.39436236672154756,-0.01194222556423596,0.04965180592999167,-0.004708081084219244,5.0
0.37158008745597265,-0.11452562353567627,0.40981275561101094,-0.013799095386596849,0.06675161404287241,-0.01057012591445058,5.0
0.36822128610474325,-0.10442587390329584,0.40981275561101094,-0.010085355741875072,0.029442943412514487,0.01287805723672502,5.0
0.38165649150966185,-0.10442587390329584,0.37118674958068937,-0.010085355741875072,0.02244756774338571,0.029626760809913045,5.0
0.37493888880720255,-0.11452562353567627,0.40981275561101094,-0.01426331248831505,0.03488379099058501,0.022927279635987854,5.0
0.35814488205105405,-0.11789220674646977,0.4020875949729424,-0.012870660475416405,0.05897897388383449,0.05893699166400768,5.0
0.36822128610474325,-0.10779245711408934,0.39436236672154756,-0.011013789945311476,0.03177473510472185,0.005341142272606155,5.0
0.35814488205105405,-0.11452562353567627,0.40981275561101094,-0.007300050300589701,0.02167030325347657,0.030464195876856812,5.0
0.36822128610474325,-0.1111590403248828,0.3789119102187578,-0.019369705207551532,0.024002095538190625,0.022927279635987854,5.0
0.37158008745597265,-0.1111590403248828,0.34028590418843563,-0.02169079279514066,0.03177473510472185,0.03381393646381941,5.0
0.37829769015843195,-0.12125878995726325,0.37118674958068937,-0.018441270296371087,0.03877011084791396,-0.007220385646675508,5.0
0.37493888880720255,-0.1111590403248828,0.36346152132929394,-0.020762357751258207,0.04032463886490887,-0.02229422068191359,5.0
0.37158008745597265,-0.12125878995726325,0.36346152132929394,-0.02169079279514066,0.045765486442979404,0.0011539662995122691,5.0
0.37158008745597265,-0.11789220674646977,0.348011064826504,-0.027261402660329344,0.03877011084791396,-0.016432170744681916,5.0
0.37158008745597265,-0.10779245711408934,0.355736293077899,-0.007764268110051944,0.07141519861230052,0.013715492942043836,5.0
0.35814488205105405,-0.10442587390329584,0.41753798386240637,-0.005443180478228819,0.06908340514257308,-0.012244997325088212,5.0
0.36486248475351335,-0.10105929069250236,0.47161444639551814,-0.006835832491127453,0.06675161404287241,0.007853446835062413,5.0
0.35814488205105405,-0.09095953737695586,0.44843882925465933,-0.0012652230240447933,0.06286529396335344,0.019577539049025258,5.0
0.35814488205105405,-0.0842263709553689,0.4020875949729424,-0.006371614681665213,0.027111151127800444,0.017065233209818908,5.0
0.37493888880720255,-0.10442587390329584,0.44843882925465933,-0.002193657227481191,0.02633388782290467,0.016227798781250188,5.0
0.37829769015843195,-0.10779245711408934,0.37118674958068937,0.011732867147969499,0.03643831893351659,0.026277020143153567,5.0
0.37829769015843195,-0.10779245711408934,0.355736293077899,0.013125520576356227,0.035661054887987466,0.023764714702931622,5.0
0.36486248475351335,-0.10105929069250236,0.3789119102187578,0.012661302766893989,0.02555662333299553,0.02543958499641292,5.0
0.37829769015843195,-0.10105929069250236,0.39436236672154756,-0.008692702313488346,0.016229455379152706,0.0019914020048310823,5.0
0.37158008745597265,-0.0943261242709154,0.355736293077899,-0.006835832491127453,0.07374698971200118,0.015390363075931375,5.0
0.37158008745597265,-0.08759295416616238,0.4252632121138012,-0.027725620469791587,0.07141519861230052,0.03800111179853825,5.0
0.36486248475351335,-0.0943261242709154,0.41753798386240637,-0.011478007754773718,0.028665678922605346,-0.0030332096735816074,5.0
0.36486248475351335,-0.0943261242709154,0.45616405750605493,-0.01426331248831505,0.04809727813518676,0.0036662708619685284,5.0
0.36486248475351335,-0.0943261242709154,0.45616405750605493,-0.01658440012013818,0.041879166659713786,-0.00638294994135668,5.0
0.37829769015843195,-0.10779245711408934,0.5025152917877719,-0.020762357751258207,0.06752887853278154,0.0019914020048310823,5.0
0.37158008745597265,-0.10105929069250236,0.40981275561101094,-0.010085355741875072,0.04421095864817449,0.030464195876856812,5.0
0.37158008745597265,-0.10105929069250236,0.40981275561101094,-0.011013789945311476,0.06286529396335344,0.01287805723672502,5.0
0.35814488205105405,-0.10442587390329584,0.45616405750605493,-0.01890548775196131,0.06208802947344431,0.026277020143153567,5.0
0.36150368340228395,-0.10779245711408934,0.39436236672154756,-0.012870660475416405,0.07918783640131168,0.01287805723672502,5.0
0.36150368340228395,-0.0943261242709154,0.44071360100326457,-0.004050528465330165,0.06752887853278154,0.005341142272606155,5.0
0.36150368340228395,-0.0943261242709154,0.44071360100326457,-0.002193657227481191,0.06519708506305413,0.010365752674268761,5.0
0.38165649150966185,-0.0842263709553689,0.40981275561101094,-0.011013789945311476,0.053538126009510634,0.017902668915137723,5.0
0.36486248475351335,-0.08759295416616238,0.44843882925465933,-0.022619227794789108,0.04343369475077203,0.03632624166465071,5.0
0.36486248475351335,-0.08759295416616238,0.44843882925465933,-0.02586875029355868,0.06830614065266395,0.030464195876856812,5.0
0.36822128610474325,-0.08759295416616238,0.4020875949729424,-0.029118272482690232,0.051206334909809956,0.013715492942043836,5.0
0.36486248475351335,-0.0842263709553689,0.41753798386240637,-0.016120183018419977,0.030997471207319396,0.04218828777163213,5.0
0.36486248475351335,-0.0842263709553689,0.41753798386240637,-0.01658440012013818,0.04032463886490887,0.01874010398208149,5.0
0.36486248475351335,-0.0842263709553689,0.4252632121138012,-0.019833922840077765,0.05820170939392535,0.03632624166465071,5.0
0.37158008745597265,-0.0842263709553689,0.39436236672154756,-0.02354766283867156,0.04654275034038185,0.028789325583375516,5.0
0.37158008745597265,-0.0842263709553689,0.39436236672154756,-0.022619227794789108,0.020115775458671662,0.032139066329931874,5.0
0.35478608069982415,-0.09769270748170888,0.41753798386240637,-0.027261402660329344,0.03488379099058501,0.00952831696894995,5.0
0.36822128610474325,-0.0943261242709154,0.4329884403651961,-0.02354766283867156,0.04421095864817449,0.005341142272606155,5.0
0.37158008745597265,-0.08759295416616238,0.45616405750605493,-0.021226575295316435,0.03877011084791396,0.03297650139687564,5.0
0.35814488205105405,-0.10105929069250236,0.41753798386240637,-0.015191748107239535,0.03721558290498238,0.028789325583375516,5.0
0.35478608069982415,-0.10105929069250236,0.44071360100326457,-0.024940315382378234,0.03332926289952676,0.02543958499641292,5.0
0.36486248475351335,-0.0943261242709154,0.45616405750605493,-0.03004670810161472,0.02167030325347657,0.023764714702931622,5.0
0.37158008745597265,-0.09095953737695586,0.45616405750605493,-0.02169079279514066,0.02322483104828148,0.015390363075931375,5.0
0.38165649150966185,-0.10105929069250236,0.4020875949729424,-0.015655965208957737,0.041101902762311335,0.00952831696894995,5.0
0.36486248475351335,-0.10105929069250236,0.46388928575744975,0.006162256265398754,0.041879166659713786,0.021252409182912796,5.0
0.35478608069982415,-0.10105929069250236,0.41753798386240637,-0.007300050300589701,0.029442943412514487,0.023764714702931622,5.0
0.35814488205105405,-0.10779245711408934,0.34028590418843563,-0.01890548775196131,0.028665678922605346,0.015390363075931375,5.0
0.37158008745597265,-0.10779245711408934,0.3789119102187578,-0.006835832491127453,0.05276086270461485,0.00952831696894995,5.0
0.36486248475351335,-0.10105929069250236,0.4252632121138012,-0.012406442665954162,0.05431539049941976,0.04637546374472602,5.0
0.35478608069982415,-0.0842263709553689,0.41753798386240637,-0.009156920122950588,0.02555662333299553,0.021252409182912796,5.0
0.35478608069982415,-0.07749320453378192,0.46388928575744975,-0.002193657227481191,0.017783984358970984,0.021252409182912796,5.0
0.36486248475351335,-0.09769270748170888,0.47161444639551814,-0.013334877577134606,0.020115775458671662,0.008690882540381228,5.0
0.37493888880720255,-0.08759295416616238,0.44843882925465933,-0.021226575295316435,0.04732001483029099,0.004503706567287342,5.0
0.37158008745597265,-0.0943261242709154,0.41753798386240637,-0.019833922840077765,0.017006719869061847,0.005341142272606155,5.0
0.36486248475351335,-0.0842263709553689,0.44843882925465933,-0.015655965208957737,0.03488379099058501,-0.0013583408164441757,5.0
0.36822128610474325,-0.10779245711408934,0.41753798386240637,0.0010558646077783286,0.02633388782290467,0.011203187102837487,5.0
0.36150368340228395,-0.11789220674646977,0.39436236672154756,-0.008692702313488346,0.04421095864817449,0.011203187102837487,5.0
0.37493888880720255,-0.11789220674646977,0.41753798386240637,0.001984298811214742,0.03643831893351659,-0.016432170744681916,5.0
0.37493888880720255,-0.0943261242709154,0.39436236672154756,0.003376952239601464,0.027888415617709578,0.020414974115969025,5.0
0.36486248475351335,-0.08085978774457542,0.41753798386240637,-0.006835832491127453,0.04032463886490887,0.04218828777163213,5.0
0.37158008745597265,-0.11789220674646977,0.39436236672154756,-0.002193657227481191,0.04732001483029099,0.04218828777163213,5.0
0.36822128610474325,-0.10779245711408934,0.4329884403651961,-0.002657875036943441,0.05509265380431553,0.030464195876856812,5.0
0.36486248475351335,-0.10442587390329584,0.4793396746469131,-0.011013789945311476,0.04265643085336958,0.029626760809913045,5.0
0.36486248475351335,-0.09095953737695586,0.4329884403651961,-0.015655965208957737,0.05509265380431553,0.017902668915137723,5.0
0.37158008745597265,-0.0842263709553689,0.45616405750605493,-0.009621137932412831,0.05431539049941976,0.048887768307182285,5.0
0.36486248475351335,-0.10105929069250236,0.36346152132929394,-0.015191748107239535,0.05198359821470572,0.028789325583375516,5.0
0.37158008745597265,-0.10442587390329584,0.3789119102187578,-0.014727530297777292,0.07607878081170187,0.032139066329931874,5.0
0.36486248475351335,-0.09769270748170888,0.3789119102187578,-0.01658440012013818,0.08307415885085737,0.03381393646381941,5.0
0.36822128610474325,-0.10105929069250236,0.3866371384701526,-0.024940315382378234,0.09861943442887973,0.0497252040125011,5.0
0.35814488205105405,-0.10779245711408934,0.36346152132929394,-0.024940315382378234,0.12193735490599346,0.04218828777163213,5.0
0.36486248475351335,-0.10105929069250236,0.4020875949729424,-0.01426331248831505,0.08540594758053131,0.017065233209818908,5.0
0.37493888880720255,-0.10105929069250236,0.44071360100326457,-0.009156920122950588,0.07996510089122082,0.030464195876856812,5.0
0.37158008745597265,-0.10442587390329584,0.47161444639551814,-0.019833922840077765,0.089292270030077,0.05140007542313872,5.0
0.36150368340228395,-0.10105929069250236,0.4329884403651961,-0.022619227794789108,0.09861943442887973,0.06061186052114511,5.0
0.37158008745597265,-0.09769270748170888,0.46388928575744975,-0.029118272482690232,0.10639207458791763,0.038838547503857054,5.0
0.37158008745597265,-0.09769270748170888,0.45616405750605493,-0.047686972829531236,0.12504641286563,0.03632624166465071,5.0
0.37158008745597265,-0.0842263709553689,0.46388928575744975,-0.037938405908264555,0.13437357726443272,0.026277020143153567,5.0
0.37158008745597265,-0.08085978774457542,0.41753798386240637,-0.029118272482690232,0.07530151869181946,0.0497252040125011,5.0
0.37493888880720255,-0.08759295416616238,0.45616405750605493,-0.049079626257917966,0.0908467990098953,0.05056263971781991,5.0
0.35814488205105405,-0.07749320453378192,0.45616405750605493,-0.05140071247425301,0.11571924372677385,0.05307494428027617,5.0
0.3480684779973621,-0.07412662132298845,0.5102405200391668,-0.06439880264626731,0.0962876456992058,0.06563647219955782,5.0
0.3514272793485915,-0.08085978774457542,0.5411413654314203,-0.04722275502006898,0.044988222545576946,0.03297650139687564,5.0
0.35814488205105405,-0.09095953737695586,0.4947901311497035,-0.0402594921245996,0.04809727813518676,0.04805033387861355,5.0
