acc_x,acc_y,acc_z,gyro_x,gyro_y,gyro_z,activity
-1.3285837314635183,1.2244044007912247,2.0717410343597975,-0.08513145240991449,0.005975471195816986,0.15380842351114812,0.0
-1.3021074750382788,1.2244044007912247,2.089100061525405,-0.08091758354825242,-0.01261716613884459,0.11549155293759755,0.0
-1.313454470452533,1.2244044007912247,2.1151386022738166,-0.06195517392172799,-0.05909875618530819,0.12855412088223642,0.0
-1.313454470452533,1.2244044007912247,2.1151386022738166,-0.06195517392172799,-0.05909875618530819,0.12855412088223642,0.0
-1.3248013996587666,1.193897416430633,2.0514888359999217,-0.05300070164961503,-0.02257750570609678,0.1207165790533124,0.0
-1.3248013996587666,1.193897416430633,2.0514888359999217,-0.07038291224734401,0.07436981345330332,0.1207165790533124,0.0
-1.3361483950730209,1.2320311635692547,2.063061520776994,-0.034038292424618505,0.07835394847031119,0.09023725030868592,0.0
-1.3248013996587666,1.2549113851518159,2.0948864039139403,-0.013495681360131202,0.0717137207423214,0.053662055549598964,0.0
-1.3021074750382788,1.2625381479298459,2.089100061525405,-0.06300864181472185,0.0478089025413441,0.03885780913514468,0.0
-1.321019134062036,1.2396579263472847,2.0919932327196724,-0.09829979213834185,0.021912016831862887,0.016216019564090415,0.0
-1.3323660632682695,1.2244044007912247,2.0717410343597975,-0.1093611985903309,0.06308142753056016,0.029278590164081107,0.0
-1.3172368022572845,1.2396579263472847,2.045702493611386,-0.09197898879565775,-0.0006647560259896901,0.047566189535138484,0.0
-1.3248013996587666,1.2396579263472847,2.0659546919712612,-0.025610555705114123,0.05378510709158844,0.03189110587729038,0.0
-1.3248013996587666,1.2396579263472847,2.0659546919712612,-0.004541210694129876,0.06507349301433157,0.04147032219300208,0.0
-1.3248013996587666,1.2396579263472847,2.0659546919712612,-0.0024342749081421463,0.05976131164183274,0.05540373136406254,0.0
-1.3021074750382788,1.2777916734859063,2.048595664805654,-0.11673546741684146,-0.02988175661183206,0.10939568559546117,0.0
-1.3021074750382788,1.2777916734859063,2.0919932327196724,-0.0814443172939854,-0.0677310493970694,0.05714540717852611,0.0
-1.3096721386477816,1.3082986578464977,2.1035659174967445,-0.04667990071609837,-0.011289119783353613,0.028407754248363237,0.0
-1.3399307268777723,1.2549113851518159,2.0919932327196724,-0.03561849426410932,0.04116867683808683,0.04147032219300208,0.0
-1.3172368022572845,1.2777916734859063,2.083313719136869,-0.09566612401196882,0.045152811855094684,0.08152887123636803,0.0
-1.3096721386477816,1.2549113851518159,2.0688478631655296,-0.12463647340207216,-0.01062509660560814,0.13900417842436974,0.0
-1.3172368022572845,1.2625381479298459,2.074634205554065,-0.14675927988160373,-0.0677310493970694,0.14074585556650926,0.0
-1.3096721386477816,1.2701649107078758,2.0804205479426012,-0.08776512043590555,-0.03917807300133878,0.09284976336654331,0.0
-1.3096721386477816,1.2701649107078758,2.0804205479426012,-0.05089376907585057,-0.0258976215948242,0.08501222286529518,0.0
-1.3096721386477816,1.2701649107078758,2.0804205479426012,-0.011388751998590001,-0.0026568245468598815,0.045824512392998985,0.0
-1.3172368022572845,1.2472846891253153,2.0601683495827254,-0.054580903489105825,-0.04382623524555717,0.06149959671468506,0.0
-1.3172368022572845,1.2472846891253153,2.0601683495827254,-0.07038291224734401,-0.019921415019847365,0.06759546281212528,0.0
-1.3021074750382788,1.2625381479298459,2.074634205554065,-0.08513145240991449,-0.0033208477246053658,0.07369132874360601,0.0
-1.3172368022572845,1.2244044007912247,2.074634205554065,-0.04931356723635977,-0.023241528883842254,0.08936641173761616,0.0
-1.321019134062036,1.2472846891253153,2.0659546919712612,-0.06300864181472185,-0.027889687078595616,0.11462071436652782,0.0
-1.3172368022572845,1.2549113851518159,2.083313719136869,-0.10830773069733704,0.020583971488738178,0.134649985569021,0.0
-1.3096721386477816,1.2549113851518159,2.0717410343597975,-0.12727013992233355,-0.027889687078595616,0.08239970847976186,0.0
-1.2642842231987856,1.2625381479298459,2.0659546919712612,-0.06827597806746791,0.005311448524254633,0.06846630080233682,0.0
-1.294542811428776,1.216777704764724,2.0977795751082087,-0.06722251017447405,0.051793041607817,0.08588306010868901,0.0
-1.3248013996587666,1.1862707204041327,2.045702493611386,-0.10514732862446707,0.004647425346509149,0.10068730519546737,0.0
-1.3096721386477816,1.209150941986694,2.074634205554065,-0.1478127477745976,0.015271789356964646,0.11374987579545806,0.0
-1.3096721386477816,1.209150941986694,2.074634205554065,-0.12094933577659363,0.03187235842384759,0.07717468103637112,0.0
-1.3437130586825239,1.2320311635692547,2.0804205479426012,-0.018236286878603583,0.060425334819578236,0.053662055549598964,0.0
-1.3474953904872748,1.2396579263472847,2.0659546919712612,0.050239087619318466,0.068393608903059,0.05279121697852921,0.0
-1.2907604796240246,1.2777916734859063,2.0659546919712612,-0.010862018052093069,0.03851258412710488,0.05104954116406563,0.0
-1.2907604796240246,1.2549113851518159,2.0659546919712612,-0.13727807848132875,0.06374545070830565,0.053662055549598964,0.0
-1.2907604796240246,1.2549113851518159,2.0659546919712612,-0.20101284424855514,0.037848562974091914,0.07282049083637422,0.0
-1.3248013996587666,1.209150941986694,2.086206890331137,-0.1204226018300967,0.033864425932351526,0.0876247372508285,0.0
-1.3248013996587666,1.209150941986694,2.086206890331137,-0.09777305819184492,0.045152811855094684,0.07804551827976496,0.0
-1.3172368022572845,1.2244044007912247,2.086206890331137,-0.09987999237172102,0.03851258412710488,0.07194965292914243,0.0
-1.3096721386477816,1.209150941986694,2.086206890331137,-0.08249778438392344,0.033864425932351526,0.05453289279299279,0.0
-1.3172368022572845,1.2015241792086633,2.083313719136869,0.0012528562928898527,0.005311448524254633,0.022311886906226812,0.0
-1.3285837314635183,1.216777704764724,2.074634205554065,0.07710249961732246,0.037848562974091914,0.019699373848369426,0.0
-1.3248013996587666,1.2244044007912247,2.0775273767483333,0.038124213274335544,-0.0019928013691143972,0.03885780913514468,0.0
-1.294542811428776,1.2015241792086633,2.045702493611386,-0.07459678060709621,0.005311448524254633,0.08414138429422544,0.0
-1.3172368022572845,1.2015241792086633,2.0601683495827254,-0.11094139882371007,0.04050465366034133,0.1207165790533124,0.0
-1.3248013996587666,1.2396579263472847,2.0514888359999217,-0.07933738291334534,-0.011953142961099112,0.14248752739794507,0.0
-1.3437130586825239,1.2777916734859063,2.0514888359999217,-0.03983236262386151,0.060425334819578236,0.12158741762438213,0.0
-1.2983251432335274,1.2930451322904373,2.083313719136869,-0.07565024769703425,0.07370579027555783,0.012732670590515091,0.0
-1.2983251432335274,1.2930451322904373,2.083313719136869,-0.1135750669500831,0.06241740435281469,0.04408283790621133,0.0
-1.3323660632682695,1.209150941986694,2.0688478631655296,-0.12305627156258137,0.08565819937604648,0.027536915677293466,0.0
-1.3323660632682695,1.209150941986694,2.0688478631655296,-0.1293770757083213,0.08632222255379196,0.14248752739794507,0.0
-1.3058898068430305,1.2015241792086633,2.0688478631655296,-0.04878683328986283,0.10225877072075351,0.17383769471364127,0.0
-1.3058898068430305,1.2015241792086633,2.0688478631655296,-0.08091758354825242,0.2828729454846439,0.026666077106223724,0.0
-1.3323660632682695,1.2244044007912247,2.0948864039139403,-0.06458884204810102,0.14210012898976226,0.05453289279299279,0.0
-1.355059987888757,1.2320311635692547,2.089100061525405,-0.030877891957860188,-0.031209802967323036,0.07717468103637112,0.0
-1.355059987888757,1.2320311635692547,2.089100061525405,-0.02350361991912638,-0.08765173663050387,0.11113736273760068,0.0
-1.3626246514982603,1.2244044007912247,2.0659546919712612,-0.04035909657035844,-0.07968345849755805,0.19647948694004738,0.0
-1.3437130586825239,1.2396579263472847,2.063061520776994,-0.022450152026132538,-0.018593370689088916,0.1572917724847234,0.0
-1.2983251432335274,1.2396579263472847,2.063061520776994,-0.03983236262386151,0.07901797164805667,0.1181040686508068,0.0
-1.3021074750382788,1.2015241792086633,2.1006727463024766,-0.04193929840984923,0.027224198204361724,0.12245825619545186,0.0
-1.3437130586825239,1.2396579263472847,2.089100061525405,-0.04826009934336589,-0.06640300304157844,0.15903344962686292,0.0
-1.3664069833030115,1.2320311635692547,2.0977795751082087,-0.008755082266105338,0.009295584806720325,0.18690026265828014,0.0
-1.3474953904872748,1.2244044007912247,2.0804205479426012,0.03285687380936622,-0.009297052274849693,0.20780037774254675,0.0
-1.3172368022572845,1.2472846891253153,2.0659546919712612,-0.004014476747632944,-0.023241528883842254,0.19560864836897765,0.0
-1.2642842231987856,1.2244044007912247,2.0543820071941896,-0.08302451802927444,0.0265601760389825,0.10329982090867662,0.0
-1.3058898068430305,1.2549113851518159,2.086206890331137,-0.0724898464272201,0.061089357997323714,0.0832705470508316,0.0
-1.3437130586825239,1.2930451322904373,2.0948864039139403,-0.08039085000328339,-0.08698771345275837,0.20954205488468625,0.0
-1.2907604796240246,1.2472846891253153,2.086206890331137,-0.05932150579535496,-0.150069874843929,0.18428775756647828,0.0
-1.2831958822225427,1.2396579263472847,2.1122454310795487,-0.07038291224734401,-0.17264664668941532,0.11984574048224263,0.0
-1.3285837314635183,1.2396579263472847,2.1006727463024766,-0.04878683328986283,-0.061754848896290106,0.16687099676649067,0.0
-1.4155771643487383,1.3082986578464977,2.0601683495827254,-0.04826009934336589,0.013943743887294155,0.2687590458532071,0.0
-1.4004479033377535,1.3082986578464977,2.0370231826032352,-0.06353537576121879,-0.0258976215948242,0.3689054071763766,0.0
-1.2378079667735464,1.2472846891253153,2.083313719136869,0.054979686713344335,0.05245706073609746,0.17819188756899004,0.0
-1.1735084585088138,1.2244044007912247,2.141176940447575,0.0718351601523531,-0.009961075452595175,-0.04822599220944152,0.0
-1.3248013996587666,1.2701649107078758,2.132497629439424,0.0244291306654153,0.023240062174987596,-0.0038132516384027483,0.0
-1.4155771643487383,1.3235521166510282,2.1093522598852807,-0.008228348319608406,0.05312108391384294,0.15467926208221783,0.0
-1.3777539787172657,1.3388056422070889,2.045702493611386,-0.010335284105596147,-0.11022850847599015,0.29227165540786815,0.0
-1.3777539787172657,1.3388056422070889,2.045702493611386,0.09606490884231891,-0.16268630712216314,0.15206674636900863,0.0
-1.2113317103483072,1.2549113851518159,2.048595664805654,0.08605697028332379,-0.1613582607666722,-0.0038132516384027483,0.0
-1.2983251432335274,1.2549113851518159,1.9820529299121445,-0.11620873347034451,-0.11487667072020856,-0.0769636438119285,0.0
-1.2680665550035368,1.2549113851518159,2.034130011408967,-0.21786831768756396,0.051129018430071525,-0.05954688301194086,0.0
-1.3058898068430305,1.3006718950684673,2.045702493611386,-0.2610604756025264,0.02855224455985269,0.04059948627728418,0.0
-1.2907604796240246,1.2930451322904373,2.0688478631655296,-0.13043054038909188,-0.05644266347432625,0.1276832823111667,0.0
-1.2642842231987856,1.2549113851518159,2.1006727463024766,-0.04615316676960143,-0.15936618313450562,0.19386697122683813,0.0
-1.279413550417791,1.2244044007912247,2.141176940447575,-0.009281816212602281,-0.2324086840929285,0.1903836169425591,0.0
-1.2567196257973037,1.216777704764724,2.135390800633692,-0.0972463250484038,-0.34927669858469307,0.16512931962435115,0.0
-1.158379197497829,1.1786439576261025,2.129604458245156,-0.209440574543613,-0.17530273940039726,0.004895128761591067,0.0
-1.199984714934053,1.1786439576261025,2.089100061525405,-0.26316741138851396,0.061089357997323714,-0.056063528727661883,0.0
-1.2831958822225427,1.2396579263472847,2.048595664805654,-0.179416765291074,0.1075709480437873,0.047566189535138484,0.0
-1.2831958822225427,1.2320311635692547,2.010984641854824,-0.08355125162443446,0.04116867683808683,0.08588306010868901,0.0
-1.3437130586825239,1.2625381479298459,2.039916353797503,-0.02877095938409572,-0.10690839258726276,0.13377915230865492,0.0
-1.294542811428776,1.2625381479298459,2.0717410343597975,-0.06985617830084707,-0.09429196030902864,0.17035434042936226,0.0
-1.279413550417791,1.2930451322904373,2.0312368402146994,-0.13569787664183794,-0.045818300729328576,0.141616694137579,0.0
-1.3096721386477816,1.2701649107078758,2.042809322417118,-0.053527435596111964,0.07835394847031119,0.08849557449422234,0.0
-1.3248013996587666,1.2396579263472847,2.086206890331137,0.057613350021382466,0.013279721152458908,0.09981646927974946,0.0
-1.2907604796240246,1.2549113851518159,2.063061520776994,0.030749938023378467,-0.02523359841707872,0.016216019564090415,0.0
-1.260501891394034,1.2549113851518159,2.0659546919712612,0.008100391172903435,-0.06109082571854464,-0.021230012438390348,0.0
-1.279413550417791,1.2930451322904373,2.0167709842433594,-0.03667196215710317,-0.07437128117452427,0.004895128761591067,0.0
-1.3248013996587666,1.2854183695124066,2.0717410343597975,-0.0034877428011359994,0.04913694889683507,0.13552082414009073,0.0
-1.2718488868082882,1.2549113851518159,2.0514888359999217,0.047605411462387275,0.04448879070208172,0.04408283790621133,0.0
-1.2831958822225427,1.2777916734859063,2.0312368402146994,0.059720285807370196,0.13014771988927362,0.05279121697852921,0.0
-1.279413550417791,1.3388056422070889,2.039916353797503,0.019161797624892514,0.08167406030957358,0.03276194444836012,0.0
-1.2756312186130396,1.3388056422070889,2.039916353797503,-0.042466032356346176,0.04382476752433624,0.05627456860745637,0.0
-1.2680665550035368,1.3082986578464977,2.0659546919712612,-0.04141256446335231,0.19322988937937435,0.04495367514960516,0.0
-1.2680665550035368,1.3082986578464977,2.0717410343597975,-0.03561849426410932,0.29548939396073826,-0.0003299026648274356,0.0
-1.2680665550035368,1.3006718950684673,2.0601683495827254,-0.044572964930110634,0.33798684494072895,-0.030809231409453894,0.0
-1.2907604796240246,1.2549113851518159,2.0601683495827254,-0.0008540794930978658,0.2835369767613195,-0.03951760649874402,0.0
-1.2831958822225427,1.3082986578464977,2.083313719136869,0.01442119853086665,0.24900778771641469,0.016216019564090415,0.0
-1.2831958822225427,1.2930451322904373,2.0688478631655296,0.019688531571389434,0.24967181899309002,-0.024713361411965663,0.0
-1.396665571533002,1.010855510267086,1.822928919376714,-0.4880826459315411,-1.6408009613077223,0.9889420874073725,0.0
-1.3399307268777723,1.125256684931421,1.8865784830759558,-0.5307480634755599,-0.9781062024685125,0.8992457464514104,0.0
-1.2567196257973037,1.148136973265511,1.9704802451350727,-0.4754410569134007,-0.482081236946629,0.7816826561924753,0.0
-1.2529372939925518,1.2244044007912247,1.996518785883484,-0.5623520745675897,-1.1447759633901184,1.1308886151706308,0.0
-1.245372630383049,0.9269613199633426,1.9849461011064122,-0.5618253727433254,-1.8898094990826073,1.7300251272103233,0.0
-1.0638210347950852,1.2777916734859063,1.9502280467751973,-0.5902689673074806,-1.3154297499931764,1.1953306481869777,0.0
-1.150814533888326,0.9498415415459037,1.8084630634053747,-0.7156315566314992,-2.288887194038671,1.5140574164988028,0.0
-1.245372630383049,0.6447716645642266,1.5799030454948406,-1.1544006449633502,-2.6926130269421638,2.2838781610112777,0.0
-1.090297357428345,0.835440366881569,1.6609116363596896,-1.6458430508515363,-2.575080835392981,2.5947672653479934,0.0
-0.7990584705426934,0.8049333825209776,1.8084630634053747,-1.7501363851068221,-3.0432168760431355,3.0441195856493177,0.0
-0.5872482867247389,0.8430670629080694,1.9704802451350727,-1.3777356840913328,-3.9343355432353513,3.5526892261827947,0.0
-0.4662139338047766,0.629518172383931,2.010984641854824,-1.3503455445712786,-4.79225274378095,3.6389020853975884,0.0
-0.6818063170114415,1.1862707204041327,2.019664155437628,-0.23788419480555428,-2.7058934581013516,3.0876615779312515,0.0
-0.144716392481114,1.3388056422070889,1.629086854510069,-0.622399731619347,1.3546056902535897,-0.2807397419853614,0.0
0.029270605705368016,-0.034008770834692566,1.7274544725405256,-0.09039878856227858,0.7390565527375188,-1.1193567229909391,0.0
-0.11824020226389549,-0.3085716467678958,1.5770098743005725,-0.8341466110755041,-3.0173199964078523,0.35235948494745867,0.0
-0.3035740634485902,0.1185261593122047,1.504680695731201,-1.7427620456113992,-3.9024623011206883,1.594174437580331,0.0
-0.32626792186105746,0.019378451796342053,1.4554968867159725,-2.4122404611710837,-4.3340772208745095,2.5390335967995297,0.0
-0.14093406067636272,-0.4916135529314431,1.5365055788681483,-2.3079471269157983,-5.5837677885306025,3.5013098248395313,0.0
-0.27709774081533056,-1.1780207344205103,1.6261936833158013,-1.0743371364913887,-7.664150970896582,5.1881228942969715,0.0
0.5285373446042246,-1.4373301348613001,1.5307192364796125,0.6638837305481137,-7.466272209709167,3.2931795231893415,0.0
1.1185797819850292,-1.6203720410248474,1.4352447896434237,0.7734442886283313,-6.338097729700828,1.1692055547833293,0.0
0.6268777066956753,-1.0331126421471142,1.1719667174016748,0.6080499450683319,-4.957594280170604,-0.7832132257433484,0.0
0.18812801184076164,-0.7966834632888846,1.1141033948036427,0.4273803234843679,-4.422392101041409,-0.7536047355697917,0.0
0.029270605705368016,-0.8348171436759766,1.134355593163518,0.13398972729231198,-5.500765288159991,-0.3599859988456715,0.0
0.04439966809229087,-0.8653241280365679,1.0938512977310937,0.4495031363883461,-5.9689010696443825,-0.044742637925162546,0.0
0.01792361029111353,-1.4907173408044523,1.0880649553425576,1.9701830955313502,-4.352005789981129,1.0960551572991002,0.0
-0.22414522796485212,0.881200810046691,0.7408851210416919,0.7260382976880725,-2.575080835392981,2.673142715501456,0.0
-0.10311087504489003,0.6066379508013702,0.6164790635501501,0.13662339060035017,-2.8838514429671,2.2272737069987807,0.0
-0.13336939706685982,-0.05688900910513594,0.6077995499673466,1.3586453755396504,-6.385243610189729,0.5613605933044954,0.0
0.01792361029111353,-0.003501786474101321,0.7437782922359597,1.8079490657080826,-5.836096758052489,0.37325958941031806,0.0
0.09735231335881049,0.31682157434393,0.6743423355045193,0.9240901587797747,-4.851350830897088,0.9950379255406387,0.0
0.10869930877306468,0.29394133607348655,0.6135858923558823,0.3183464929262009,-6.7365111828080355,-0.06215939872515015,0.0
0.0935699815540592,-0.20179720150582658,0.7379920004910872,0.46267150432410903,-9.014773644692953,-3.0465210256354824,0.0
0.22595132988827546,-0.6365217787078983,0.9405135282968731,0.08869063359136188,-7.860037784034708,-3.4410106327948955,0.0
0.49071402655670804,-0.49924031570947325,0.9636588472073533,-0.5349619350475352,-3.5033846061646226,-0.8023716955496979,0.0
0.5474487387958975,-0.5526275216526253,0.8508254238492202,-0.1488662156675915,1.7430588847828445,2.051364336885506,0.0
0.21082200266927,-0.438226346988291,0.4776071247654375,0.3636455480804719,3.7218466262398566,3.577943364179891,0.0
0.5739250614291572,-0.2475576780467134,0.2895513896264123,-0.33269625377942985,1.0909886263704436,3.5021806103035638,0.0
0.8235584308785827,-0.7051624434555817,0.3358420274473727,-0.8494218890994687,-2.551840145655841,0.8957623496815019,0.0
0.6722654235206115,-0.6288950159298682,0.3589873463578529,-1.6337281893554463,-4.7484272950390505,-2.9411498665568585,0.0
0.8689464125356012,-0.40009259984966955,0.21432910000212277,-2.2658085139871873,-3.40378124288782,-2.378588468288021,0.0
0.8689464125356012,-0.40009259984966955,0.21432910000212277,-2.688775571075238,-2.5418798870778887,-1.1359026664626717,0.0
0.9256811247747878,0.14140640175461872,0.03495286895021447,-2.5318089706591884,-2.391146488047854,0.05714540717852611,0.0
0.5852720568434111,0.011751705706194262,-0.06920106614694638,-0.7235325465556137,-1.8911374644487977,1.6220412718545631,0.0
0.5096256855804663,-0.04926226301498811,0.09860249595403497,1.6941746874514605,1.1328219974801783,1.144822032307747,0.0
0.48314936294720606,0.034631943976637714,-0.07498740853548236,2.7834596407801753,0.950879792558657,-0.13269726987476296,0.0
0.8878580715593589,-0.3085716467678958,-0.18782083189361518,2.1840367822845654,-1.6766580995209575,-2.5832354581395602,0.0
1.7010575557563319,-1.0559927969781453,0.05520501666642672,2.0460326810357645,1.3233965604049014,0.8722497826124703,0.0
1.614064189079131,-0.6746554590949903,-0.11838487516217465,0.7212976728962606,1.526587571805719,1.8423632497712843,0.0
1.1185797819850292,-1.1398870540334183,-0.2080730049316592,0.32782769111425264,-0.4787611291568316,2.307390728080309,0.0
0.40750299168426035,-0.4687333313488824,-0.2080730049316592,0.42948728496814187,-1.6022876331963443,0.9131791635885264,0.0
0.3205093601749782,-0.21705069368612231,-0.18492768602117887,0.3241405470643275,-1.569750537981466,-0.30338150234754513,0.0
0.22973366169302648,-0.5907612687912468,-0.16756868417740298,0.03707074538134168,-1.7145074449492401,0.3898055116392359,0.0
0.24108065710728124,-0.8119369220934153,0.011807550039734285,0.6143707781240811,0.7065194575226404,1.6089786401814798,0.0
0.20325733905976742,-0.8348171436759766,0.10728199054546504,0.9641218616201832,1.1221976266362506,1.7587629168911065,0.0
-0.000988048732643239,-0.9034578751751896,0.1130683202730851,0.2835820653062964,0.24236757213681984,0.1572917724847234,0.0
-0.04637603038966027,0.3320750665242256,-0.1357438770059506,-1.3118939472036628,-1.3273822157861754,-1.9083359373097628,0.0
-0.21658056435534923,0.14140640175461872,0.0291665392225944,-0.9774181417315253,-0.44091181612426916,-3.933905115320672,0.0
0.10869930877306468,-0.4916135529314431,-0.471351026529745,-2.498624699907651,-3.7079037125145113,-4.205606494580655,0.0
0.717653405177627,-0.14840996218690958,-0.3006542805735798,-2.1230636851554316,-1.0504847207438404,1.0220338893795788,0.0
1.4022541376772188,-2.1694977595154894,-0.25436364275261963,0.1856096155023322,-0.7483543287493164,3.663285437930652,0.0
0.9029873987783635,-0.110276248424053,-0.3643038949164846,-0.21734159016551352,-0.378493686009774,2.7036220761103045,0.0
0.8084291036595788,-0.6517752375124295,-0.31801325709552414,-0.019816488718094393,-0.51129822437171,1.6751624140684105,0.0
0.5587957342101508,-0.972098539922872,-0.2861884752459035,0.2677800597602816,-0.045818300729328576,1.5967869639149477,0.0
0.4528907085091951,-0.8195636848714459,-0.3585176031716119,0.04497174815434914,-0.695896586795654,1.0812508697266923,0.0
0.6873947507396161,-1.284795279809874,-0.3816629220820923,-0.22576932046057138,-1.771613454433212,-0.3930778433035073,0.0
0.725218068787129,-1.4373301348613001,-0.17624817243837526,-0.45437169905352354,-0.5557877529838672,-0.4104946147249024,0.0
0.5247550127994709,-0.7661764121767637,-0.33247911306686395,-0.6819206354512676,-0.0013287792037351724,-1.1123900144223808,0.0
0.21460433447402158,0.1642866421110474,-0.2080730049316592,-0.9178972892951768,1.0219302806763537,-3.262489076232041,0.0
0.22595132988827546,-1.6203720410248474,-0.3209064282897922,-0.32637544642146676,-0.5830126627767818,-1.0270478557003602,0.0
0.694959414349118,-1.0331126421471142,-0.4134877039317128,-0.001907547386091731,-0.6294943014168259,-0.18320588575399363,0.0
0.388591332660503,-0.7051624434555817,-0.3353722842611318,-0.2447317296855679,-0.8346773256583692,-0.238068662624351,0.0
0.22973366169302648,-0.5068670784875039,-0.39612872740976846,-0.25263273245857537,-0.150069874843929,0.2809507646053688,0.0
0.37346200544149755,-0.45347980579282166,-0.46556468414120905,-0.27106841416152155,-0.21912823673587895,0.4664392421649294,0.0
0.24486298891203254,-0.567881047208686,-0.45977834175267324,-0.17467616619704812,-0.3539248365321213,1.4261027314421655,0.0
0.0897876497493076,-0.3695856154890782,-0.41059453273744495,-0.017709552932106663,0.20783838309191482,2.577350536412228,0.0
0.42263205407118354,-0.4916135529314431,-0.5841844498878781,-0.4717539128634758,1.0232583108339846,-0.6020789729033588,0.0
0.7970821082453255,-1.3991964544742084,-0.5002826878287611,-0.06142843997523104,1.4787778382166035,-0.7771173876100822,0.0
0.2713393115452925,-0.9187114007312496,-0.3440517472002723,0.027589534344396895,0.25764008092817586,-2.126045388891867,0.0
0.2713393115452925,-1.1322602912553883,-0.11549172928973833,-0.2700149462685277,0.6945670565210819,-3.517644512020291,0.0
0.6609186929384375,-0.7966834632888846,-0.25436364275261963,0.3615386379922702,0.08897831526477391,-2.9942708388281862,0.0
0.5096256855804663,-0.5450008256261247,-0.3151200859012563,0.09185103727034356,0.08565819937604648,-2.6607399528864724,0.0
0.437761381290189,0.1566598939349143,-0.4510988788135325,-0.15466028907905774,0.03320040275460604,-1.7341683080670718,0.0
0.42263205407118354,0.034631943976637714,-0.44531253642499685,-0.31636749501357847,0.32072225851720654,-1.361449697048626,0.0
0.2675569797405409,-0.05688900910513594,-0.3729834084992884,-0.44857764491539676,0.3718520027089584,-1.4581126616018867,0.0
0.33942101919873496,-0.3009449173656305,-0.3093337941563836,-0.4896628541954784,0.6872627934669516,-1.8020936528820677,0.0
0.4793670311424553,-0.186543709325531,-0.3353722842611318,-0.15782068633359278,1.0617716389453626,-1.093231544616032,0.0
0.3848090008557517,0.07276568277131787,-0.31222696535065153,-0.08355125162443446,1.2297694300245994,0.17035434042936226,0.0
-0.35274424449431707,0.5837576958430443,-0.16467551298313507,0.4337011565401174,0.8021387303265496,4.914679604223884,0.0
0.2789039751547951,-0.07976924737557935,-0.33826540481173656,0.15453233193235283,0.23373526272719852,5.083622180797341,0.0
1.1374914410087846,-0.560254284430656,-0.27172261927456376,-0.05089376907585057,0.068393608903059,3.1512326555410457,0.0
1.1450561046182859,-0.7966834632888846,-0.3411585760060044,0.0560331546063382,0.6520695731453708,1.212747462094002,0.0
0.725218068787129,-0.560254284430656,-0.21096617612592708,-0.03930562867736457,0.3094338725944634,1.170947210682654,0.0
0.8538170853165967,-0.7585497161502632,-0.2630431563354232,0.043391539890411814,0.5000083707277461,-0.011650793467326814,0.0
0.5739250614291572,-0.6517752375124295,-0.41927404632024884,0.4210595418241909,1.8997682575436179,-0.10395961827227598,0.0
0.5550134024054001,-0.483986790153413,-0.18492768602117887,0.45793087953229705,2.3679042981937717,-0.09089705032763712,0.0
0.4528907085091951,-0.5450008256261247,-0.11838487516217465,-0.01928975477159745,2.747725458677027,0.17122517900043202,0.0
0.3923736644652549,-0.6517752375124295,0.15646579797807886,0.35205743980421844,0.4355981953768048,0.012732670590515091,0.0
0.48314936294720606,-0.4458531097663211,-0.12995753461741483,-0.015075883199621987,0.11819531078878498,0.08239970847976186,0.0
0.47558469933770403,-0.4153461254057297,-0.12995753461741483,-0.3363833721315689,0.12417151938849434,0.23915054505824293,0.0
0.505843353775715,-0.5450008256261247,-0.02869677071452187,-0.05247397091534135,0.14674829123398067,0.07978719409422853,0.0
0.41506739046168034,-0.4687333313488824,-0.06920106614694638,0.003886526025374516,0.31673810325287344,0.203446184887198,0.0
0.6117483794766713,-0.6517752375124295,0.003128049117846314,0.24460376611441637,-0.07437128117452427,0.0040242901905212965,0.0
0.29403303754171856,-0.6746554590949903,-0.12995753461741483,0.08553022991238028,0.051793041607817,-0.09873459746726486,0.0
0.5096256855804663,-0.5297473000700645,-0.12995753461741483,-0.34007051618149403,-0.6201979607305287,-0.8511386555296038,0.0
0.33942101919873496,-0.4077193626276996,-0.19360717428215116,-0.30688629682552665,-0.4522002020470124,-1.0462063255067096,0.0
0.33942101919873496,-0.4077193626276996,-0.19360717428215116,-0.3427041794895321,0.22443895443662185,-0.7649256263722909,0.0
0.4339790494854374,-0.4153461254057297,-0.13285070581168268,-0.30635956930347646,0.09362646941006222,-1.5983176184370795,0.0
0.3242916919797292,-0.262811170227009,0.03495286895021447,-0.04141256446335231,-0.6779679528975958,-1.0941024150513234,0.0
0.3242916919797292,-0.262811170227009,0.03495286895021447,-0.04035909657035844,-0.9681458790991205,-0.939093255614982,0.0
0.4037206598795088,-0.45347980579282166,-0.10970538690120259,-0.18731776806408146,-0.48938550000075937,-0.7422838447672924,0.0
0.7895174446358205,-0.3085716467678958,-0.2080730049316592,0.005993461811362246,-0.197215479969208,-1.097585726849973,0.0
1.0542801413042555,-0.16366345436720517,-0.2370046409088435,0.029696470130384626,0.20319022894662653,-0.724867115831527,0.0
0.6571363611336868,-0.034008770834692566,-0.37009023730502055,-0.30109221698961397,1.0059937244104622,-0.1788516822772375,0.0
0.47180236753295274,-0.3772123782671083,0.006021220312114217,-0.179416765291074,0.36189164694384607,-0.6848085203195036,0.0
0.3205093601749782,-0.3467053939065173,0.017593879767354322,-0.2515792645655815,0.09960267800977159,-0.6168832179901371,0.0
0.5020610219709613,-0.09502275624375738,-0.10102589864023036,-0.2120742507005442,0.21315056851387867,-0.435748880178888,0.0
0.5550134024054001,-0.08739599346572714,-0.12417121755071045,-0.02139669055758519,0.07104969756457591,-0.2572271111878856,0.0
0.5171903491899683,-0.003501786474101321,-0.05184208962500202,-0.10409386233758484,0.005311448524254633,-0.08044699809620749,0.0
0.5701427296244065,-0.026382024744544735,-0.25436364275261963,-0.6266136031913225,-0.09296391395353766,0.0014117744773120453,0.0
0.44154371309494,-0.13315647000661396,-0.1125985580954705,-0.39801121174947734,-0.7729231782269693,0.4995310866227652,0.0
-0.042593698584908676,-0.09502275624375738,0.03495286895021447,-0.39221713191356466,-1.1726649206575686,1.3851733504661095,0.0
-0.2657507454010764,0.034631943976637714,-0.025803599520253937,-0.28950408301557445,-0.7749152558591356,2.806380878796832,0.0
0.9105520623878661,-0.034008770834692566,-0.12127804635644254,0.7270917527321733,-0.37318150058781024,0.4699225964492085,0.0
1.1185797819850292,-0.3467053939065173,-0.0923463850574267,0.6522955708762882,-0.23971294714705885,0.16687099676649067,0.0
0.6193130430861733,-0.3467053939065173,-0.34983808958880813,0.10133223545839527,0.7536650788457797,0.1694835124796999,0.0
0.7214357369823783,-0.06451575519528377,-0.5031758590230289,-0.16993556067857574,1.5750611584950482,0.12419993333759138,0.0
0.6798300871301135,-0.07976924737557935,-0.12995753461741483,-0.026137289651611054,1.422999923681703,-0.002071574496263238,0.0
0.5247550127994709,-0.23993091526868315,-0.0923463850574267,-0.044572964930110634,1.0956367643178717,0.12681244374009693,0.0
0.3999383280747575,-0.2551844074489788,-0.054735260819269896,-0.0856581860552655,0.5531301925516645,0.06149959671468506,0.0
0.5020610219709613,-0.2704378996292744,-0.06920106614694638,-0.050367035129353636,0.6102361372441956,-0.06738443015156864,0.0
0.5474487387958975,-0.17891694654750076,-0.09523955625169454,-0.056687839275093556,0.698551211785415,-0.010779954896257044,0.0
0.49827869016621,-0.1941704387277964,-0.03158992924787392,-0.11568199952384757,0.38845257405366557,0.017957696706229924,0.0
0.5020610219709613,-0.23993091526868315,-0.017124111259281736,-0.1899514377965661,0.32072225851720654,-0.03951760649874402,0.0
0.5247550127994709,-0.2475576780467134,-0.0200172697926339,-0.40643895489342824,0.05976131164183274,-0.16230576004831965,0.0
0.4037206598795088,-0.1712902171452354,-0.12417121755071045,-0.6550571977554778,-0.11155655483148116,-0.05780520586980138,0.0
0.48693169475195736,-0.1941704387277964,0.0204870383007064,-0.40117160257956597,-0.10358827669853532,-0.042130122211953294,0.0
0.5171903491899683,-0.20179720150582658,0.0262733680283265,-0.2478921333645495,-0.0159372800028395,-0.05954688301194086,0.0
0.4301967176806861,-0.20179720150582658,0.06099134639404676,-0.026137289651611054,0.04648085821058565,0.22521713854253436,0.0
0.41128532348901137,-0.2475576780467134,0.11017515540927506,0.34152276087427974,-0.19323135710059525,0.3619386986078187,0.0
0.5701427296244065,-0.2246774230883876,0.006021220312114217,0.46477841441231066,-0.3771656558521434,0.2826924417475083,0.0
0.48693169475195736,-0.011128532564249151,-0.12417121755071045,-0.022450152026132538,-0.3924381646434991,0.17819188756899004,0.0
0.5814897250386598,-0.2551844074489788,-0.15888919591643091,-0.11831566925633223,-0.045818300729328576,0.20257534631612825,0.0
0.6457893657194329,-0.3543321233087825,-0.08077372560218654,-0.10778099675084012,-0.037186007517567364,-0.18320588575399363,0.0
0.5020610219709613,-0.316198409545926,-0.0634147490802422,-0.004014476747632944,0.05776924615806134,-0.26593549689858303,0.0
0.49827869016621,-0.2246774230883876,-0.15888919591643091,-0.06458884204810102,0.3499392459422875,-0.17101414575901716,0.0
0.46802003572819845,-0.17891694654750076,-0.08945323918499039,-0.03456502637111545,0.30412168717249966,-0.1562099006722388,0.0
0.5436664069911462,-0.21705069368612231,-0.002658280609773754,-0.024557087812120258,0.5013364332810972,-0.11702219683832221,0.0
0.5474487387958975,-0.14840996218690958,-0.03448310044214203,0.0628806894863518,0.8127631011704773,-0.12137637907226358,0.0
0.49071402655670804,-0.13315647000661396,0.008914378845466352,0.050765815141368874,0.42298174690071044,-0.2084601724507942,0.0
0.4604553721186971,-0.034008770834692566,-0.04316260136402997,0.10080550793634487,0.25631203457268487,-0.0891553731854976,0.0
0.5020610219709613,-0.08739599346572714,-0.037376258975494014,0.07446882346039126,-0.05445059799055483,0.00924931630623611,0.0
0.49449635836145933,-0.08739599346572714,0.00023489058449417796,0.02126873341088022,-0.23971294714705885,-0.002942413067333008,0.0
0.4566730403139458,-0.14840996218690958,-0.02869677071452187,-0.009281816212602281,-0.23041662265862212,0.06846630080233682,0.0
0.49071402655670804,-0.21705069368612231,-0.04316260136402997,-0.1393850110550932,-0.05644266347432625,0.14510004311115432,0.0
0.5361020082137266,-0.17891694654750076,-0.06920106614694638,-0.22313565715253325,0.1905737966683924,0.1755793718557808,0.0
0.4604553721186971,-0.110276248424053,-0.10970538690120259,-0.33427643634558113,0.5033285109132636,0.4664392421649294,0.0
0.5020610219709613,-0.07976924737557935,-0.04316260136402997,-0.46437965046141166,0.3346667371509317,0.7842950975558328,0.0
0.5020610219709613,-0.07976924737557935,-0.04316260136402997,-0.2241891250455271,-0.41966310683213404,0.5491688745523338,0.0
0.5209726809947189,-0.2704378996292744,0.10438882568165504,-0.01928975477159745,-0.484737329657611,0.3567136671814001,0.0
0.5209726809947189,-0.2704378996292744,0.10438882568165504,0.04865887935538114,-0.38779002669607116,0.3305885312921224,0.0
0.4793670311424553,-0.110276248424053,0.0262733680283265,0.23248890461832658,-1.1308314199649527,0.1041706594797464,0.0
0.6533540293289362,-0.14840996218690958,0.023380209494974363,-0.2652743471745017,-1.8406718001273017,0.4150598195788512,0.0
0.6041837158671687,-0.16366345436720517,-0.08945323918499039,-0.14043847894808706,-1.325390138154009,0.08152887123636803,0.0
0.48314936294720606,-0.33145190172622163,-0.3006542805735798,0.2598790441383811,2.64015378487156,0.06149959671468506,0.0
0.47180236753295274,-0.186543709325531,-0.17624817243837526,-0.6029105820234071,1.4037433892088953,0.1694835124796999,0.0
0.36967967363674625,-0.17891694654750076,-0.07788057972975022,-0.1488662156675915,0.5352015910493264,0.07630384246530138,0.0
0.4037206598795088,-0.2246774230883876,0.11017515540927506,-0.14939294961408842,-0.251001333069802,0.05627456860745637,0.0
0.49827869016621,-0.262811170227009,-0.04316260136402997,-0.14359888262706869,0.08233808348731907,0.05017870259299589,0.0
0.5701427296244065,-0.28569139180957,-0.0836668967964544,-0.18468410475604333,0.3373228298619135,-0.00729660592268176,0.0
0.5625780660149021,-0.29331815458760024,-0.04026943016976189,-0.21049404243660688,0.35724350899641805,-0.021230012438390348,0.0
0.5474487387958975,-0.3009449173656305,-0.04026943016976189,-0.13622461058833488,0.2915052386964053,0.00837847773516635,0.0
0.47558469933770403,-0.3085716467678958,0.014700708573086392,0.07394209593834088,-0.14542170450078054,0.09284976336654331,0.0
0.4491083767044438,-0.316198409545926,0.014700708573086392,0.09185103727034356,-0.35126877621685965,0.07020797678275988,0.0
0.47180236753295274,-0.36195888608681315,-0.0229104409869018,0.1397837814304386,-0.3300200345290042,0.04408283790621133,0.0
0.5020610219709613,-0.39246583707163946,-0.03448310044214203,0.19140369533824494,-0.32072372623842754,-0.014263309180536055,0.0
0.5171903491899683,-0.33145190172622163,-0.017124111259281736,0.1961442944322709,-0.34330049808391383,0.014474347732654602,0.0
0.5020610219709613,-0.186543709325531,-0.002658280609773754,0.22248097890822446,-0.24236903985804084,0.26440484237645095,0.0
0.4604553721186971,0.08801917495161352,-0.0923463850574267,0.046025216047343005,-0.13811745764451028,0.18690026265828014,0.0
0.5096256855804663,0.004124959616046508,-0.08656006799072231,-0.12779687386883049,0.25764008092817586,0.2879174731739268,0.0
0.5739250614291572,-0.09502275624375738,-0.08656006799072231,-0.021923418079635593,-0.3154115408164636,-0.37479024393244986,0.0
0.6571363611336868,-0.4229728214322303,-0.008444610337393793,-0.22313565715253325,0.009295584806720325,-0.05258018506479028,0.0
0.47180236753295274,-0.05688900910513594,-0.11549172928973833,-0.07196311248072318,-0.03851405387305832,0.11374987579545806,0.0
0.42263205407118354,-0.018755278654396905,-0.014230940065013832,-0.2120742507005442,-0.6514070257877765,0.1886419398004196,0.0
0.47558469933770403,-0.041635516924840354,-0.0200172697926339,-0.22734952872450875,-0.7277696345359966,0.29923836397642617,0.0
0.505843353775715,-0.20179720150582658,-0.02869677071452187,-0.20575344334258103,-0.8831509771391393,0.17993356471112953,0.0
0.5285373446042246,-0.2704378996292744,-0.1039190698344982,-0.19785244056957355,-0.6773039054230601,0.16512931962435115,0.0
0.5436664069911462,-0.28569139180957,-0.09523955625169454,-0.15360682118606386,-0.38513393398508916,0.14771255882436354,0.0
0.5625780660149021,-0.29331815458760024,-0.10970538690120259,-0.07828391582340728,-0.03187382614506853,0.1259416104797309,0.0
0.46423770392344776,-0.3238251389481915,-0.03448310044214203,0.20193834857039747,-1.085013893590885,0.1207165790533124,0.0
0.4453260448996916,-0.3772123782671083,-0.0836668967964544,-0.02139669055758519,-0.6334783918897182,0.23131300854002262,0.0
0.5020610219709613,-0.23230418586641782,-0.19360717428215116,-0.04773336860909224,-0.1739746930449063,0.2574381550507077,0.0
0.5323196764089759,-0.2704378996292744,-0.19650034547641906,-0.09829979213834185,-0.0053129152331093,0.20954205488468625,0.0
0.49071402655670804,-0.28569139180957,-0.15020970765545863,-0.15992762211958053,-0.19190331074510428,0.1660001581954209,0.0
0.3923736644652549,-0.21705069368612231,-0.07209423734121424,-0.29319122706549955,-0.8492857869751895,0.20170451836646588,0.0
0.4566730403139458,-0.209423930908092,-0.1125985580954705,-0.198379180940517,-0.8997515160881259,0.26962987380286946,0.0
0.5550134024054001,-0.3238251389481915,-0.2138593219983634,0.0244291306654153,-0.44555998646741757,0.20605870060040726,0.0
0.6571363611336868,-0.40009259984966955,-0.3295859418725959,0.051819283034362736,1.0232583108339846,0.1102665241665309,0.0
0.5890543886481624,-0.45347980579282166,-0.4077014121868402,-0.2542129407225127,1.9681626205546126,0.1294249594533062,0.0
0.49449635836145933,-0.4229728214322303,-0.1791413436326431,-0.44857764491539676,1.5445161409123365,0.05192037840745946,0.0
0.5209726809947189,-0.4687333313488824,-0.16467551298313507,-0.3332229813014803,1.2330894730229562,0.017957696706229924,0.0
0.437761381290189,-0.3695856154890782,0.06967084731593474,-0.23893766269854816,0.34462706052032377,0.1555501006532876,0.0
0.48314936294720606,-0.28569139180957,-0.07788057972975022,-0.35481904098562195,-0.03386589162883994,0.19386697122683813,0.0
0.48314936294720606,-0.29331815458760024,-0.10102589864023036,-0.39485079522160266,0.03652051661860094,0.2774674103210898,0.0
0.5096256855804663,-0.2704378996292744,0.14489313694022432,-0.026137289651611054,-0.6633594267893351,0.1555501006532876,0.0
0.46423770392344776,-0.3772123782671083,0.11596148513689512,0.1397837814304386,-0.8658863907156167,-0.018617496725181117,0.0
0.5323196764089759,-0.36195888608681315,-0.25436364275261963,-0.11041466487721315,-0.026561644772569677,-0.018617496725181117,0.0
0.4566730403139458,-0.110276248424053,-0.23989781210311156,-0.4412033568155466,0.02523213069585779,0.18167524185326903,0.0
0.5171903491899683,-0.16366345436720517,-0.21675249319263123,-0.28318328850650437,0.49536023278031777,0.1207165790533124,0.0
0.6647007599111066,-0.3238251389481915,-0.07498740853548236,-0.15571375697205161,0.7297602768426625,-0.16404743719045914,0.0
0.5096256855804663,-0.6212682531518381,0.08413667163498487,0.2503978459503292,0.5172729895469887,-0.12573056130620497,0.0
0.3053800329559727,-0.16366345436720517,-0.17046185537167083,-0.8041228082474116,-0.378493686009774,0.24437557648466146,0.0
0.60796604767192,-0.2704378996292744,-0.12417121755071045,-0.1657216955310468,0.1321397894225101,0.1694835124796999,0.0
0.5739250614291572,-0.45347980579282166,-0.1039190698344982,-0.2531594728295188,0.36189164694384607,0.05104954116406563,0.0
0.5512310706006482,-0.45347980579282166,-0.0836668967964544,0.1745482090503431,0.4973523104124844,0.004895128761591067,0.0
0.5512310706006482,-0.45347980579282166,-0.0836668967964544,0.1745482090503431,0.4973523104124844,0.004895128761591067,0.0
0.3772443372462491,-0.316198409545926,-0.07209423734121424,-0.018236286878603583,-0.07968345849755805,0.11113736273760068,0.0
0.48693169475195736,-0.3772123782671083,-0.05762840669170624,0.11608078596030934,-0.17198261541273976,0.06933713887552809,0.0
0.5512310706006482,-0.4077193626276996,-0.09813272744596245,0.20457203757622183,0.31408201054189167,0.00837847773516635,0.0
0.4793670311424553,-0.644148474734399,0.21722226486593277,0.9114484926682761,-1.2224666022959694,0.19125445551362888,0.0
0.46423770392344776,-0.4687333313488824,-0.2051798337373911,0.07710249961732246,-2.475477472116181,-0.04648431506730202,0.0
0.6760477553253622,-0.1941704387277964,-0.38455609327636014,0.16454028334024093,-0.7948359673893605,0.21389624774003502,0.0
0.6798300871301135,-0.2551844074489788,-0.25147047155835156,0.2614592524023182,0.1387800211999649,0.17122517900043202,0.0
0.6533540293289362,-0.5450008256261247,-0.16756868417740298,0.14083726217232553,0.8499483991242244,-0.10134710255906669,0.0
0.6268777066956753,-0.6288950159298682,-0.08945323918499039,0.22774830552430061,1.2603144476073114,-0.38175695250100805,0.0
0.5020610219709613,-0.4229728214322303,-0.07498740853548236,0.054979686713344335,0.8472922740175222,-0.45229482365062074,0.0
0.3167270283702266,-0.09502275624375738,-0.005551439143125861,-0.09987999237172102,0.068393608903059,-0.025584199983035412,0.0
0.5625780660149021,0.019378451796342053,-0.07498740853548236,-0.15308008723956695,-0.29947498455057203,0.19125445551362888,0.0
0.6722654235206115,0.05751219059102229,-0.10102589864023036,0.18034228888625597,0.11686726443329401,0.19909200265325663,0.0
0.5361020082137266,-0.07214250128543157,0.0262733680283265,0.362592093036371,0.055113153447079385,0.2548256287160911,0.0
0.5247550127994709,-0.110276248424053,-0.0200172697926339,0.2962236800222227,-0.016601301155852444,0.21302540916896526,0.0
0.5096256855804663,-0.28569139180957,-0.054735260819269896,0.11713425385330323,0.3220502886748374,-0.009038277754117571,0.0
0.40750299168426035,-0.21705069368612231,0.00023489058449417796,-0.24051785811359247,0.11553922617673312,0.06324127286106761,0.0
0.4453260448996916,-0.21705069368612231,0.014700708573086392,-0.17730982950508625,-0.12483701028746075,0.027536915677293466,0.0
0.5171903491899683,-0.23230418586641782,-0.06630792027451006,-0.15571375697205161,-0.07437128117452427,0.05540373136406254,0.0
0.5436664069911462,-0.186543709325531,-0.10970538690120259,-0.14623255235955335,0.009295584806720325,0.06062875880745327,0.0
0.5285373446042246,-0.20179720150582658,-0.08945323918499039,-0.17256923041106037,0.015271789356964646,0.07369132874360601,0.0
0.5285373446042246,-0.20179720150582658,-0.04894891843073415,-0.1657216955310468,0.0039834031811299235,0.0580162450857579,0.0
0.5020610219709613,-0.20179720150582658,-0.0836668967964544,-0.18573756622459062,-0.06706702621932394,0.1276832823111667,0.0
0.5020610219709613,-0.20179720150582658,-0.0836668967964544,-0.20153957177060555,-0.06905909575256039,0.17035434042936226,0.0
0.49071402655670804,-0.23993091526868315,-0.10681221570693451,-0.24525847005651139,-0.07038714210805136,0.18341691899540855,0.0
0.48314936294720606,-0.2246774230883876,-0.08945323918499039,-0.28950408301557445,-0.11421264754246309,0.1555501006532876,0.0
0.48314936294720606,-0.2246774230883876,-0.08945323918499039,-0.21681484979457005,-0.18393503261215843,0.210412893455756,0.0
-0.1144578704591442,-0.3695856154890782,-0.5407869832611856,1.9733435120592249,4.729169260449298,1.3607899129617858,0.0
1.0769741321327615,0.05751219059102229,-0.58129127869361,-0.92211110947158,1.9243371718127114,0.011861832019445361,0.0
0.3469856828082379,-0.4916135529314431,0.13621364234879424,-0.876812028619523,-3.970856664131682,-0.05519269015659211,0.0
0.11626397238256755,-0.2551844074489788,0.2837650598987923,-0.007701614373111484,-3.5598265033826184,0.21476708631110475,0.0
0.7516943914203899,-0.4305995842102609,-0.35562443197734406,0.13030258324238686,0.12018738032202143,0.1433583659690148,0.0
0.6798300871301135,-0.4305995842102609,-0.3643038949164846,0.0017795902393867972,0.8180752865924413,0.08414138429422544,0.0
0.4264143858759345,-0.3772123782671083,-0.0836668967964544,-0.018236286878603583,-0.0896438061637403,0.07543300455806959,0.0
0.437761381290189,-0.3695856154890782,-0.017124111259281736,0.10343917124438305,-0.35126877621685965,0.06846630080233682,0.0
0.5096256855804663,-0.3543321233087825,-0.1039190698344982,0.18718982376626958,-0.19323135710059525,0.10068730519546737,0.0
0.5096256855804663,-0.36195888608681315,-0.13285070581168268,0.20035816600424627,-0.09097184442030122,0.12332909476652165,0.0
0.49449635836145933,-0.40009259984966955,-0.12127804635644254,0.15400560441030242,-0.16733446126745144,0.15293758494007834,0.0
0.5020610219709613,-0.3848391410451389,-0.08656006799072231,0.16348680259835413,-0.27424211999410375,0.14597088168222405,0.0
0.48314936294720606,-0.40009259984966955,-0.08945323918499039,0.19561754121243433,-0.3678693151658463,0.18341691899540855,0.0
0.47558469933770403,-0.36195888608681315,-0.11549172928973833,0.15505905945440326,-0.40704665835603976,0.20257534631612825,0.0
0.48693169475195736,-0.40009259984966955,-0.1415301940726548,0.12556198414836106,-0.3618931146650671,0.18167524185326903,0.0
0.49827869016621,-0.4458531097663211,-0.12417121755071045,0.14031053465027513,-0.35923702195408513,0.15293758494007834,0.0
0.49827869016621,-0.5221205372920344,-0.11549172928973833,0.20193834857039747,-0.3857979490639046,0.13813333985329998,0.0
0.4793670311424553,-0.560254284430656,-0.09523955625169454,0.2661998514963442,-0.3751735782199768,0.09284976336654331,0.0
0.47558469933770403,-0.5450008256261247,-0.08945323918499039,0.2988573433302609,-0.41700701412115204,0.053662055549598964,0.0
0.49071402655670804,-0.5144937745140045,-0.09523955625169454,0.35785151964013123,-0.45352826460036355,0.07020797678275988,0.0
0.5285373446042246,-0.5068670784875039,-0.09523955625169454,0.4205327886043544,-0.4900495150795748,0.029278590164081107,0.0
0.5361020082137266,-0.483986790153413,-0.12417121755071045,0.4716259492923242,-0.5086421640564485,-0.006425767351612,0.0
0.5020610219709613,-0.4763600941269125,-0.19071400308788325,0.5185052384083186,-0.4787611291568316,-0.02035917386732062,0.0
0.47180236753295274,-0.4687333313488824,-0.1993935166706869,0.5327270613881823,-0.40107045785526035,-0.03255090855159341,0.0
0.4604553721186971,-0.40009259984966955,-0.2051798337373911,0.4837408107884141,-0.24834524035882002,0.047566189535138484,0.0
0.505843353775715,-0.36195888608681315,-0.15020970765545863,0.39366940230413655,-0.13413331857803742,0.07804551827976496,0.0
0.505843353775715,-0.36195888608681315,-0.15020970765545863,0.2972771350663235,-0.24104099350254984,0.05104954116406563,0.0
0.5096256855804663,-0.2704378996292744,-0.054735260819269896,0.1745482090503431,-0.6567192112097403,0.03798697056407492,0.0
0.5096256855804663,-0.3009449173656305,-0.06630792027451006,0.10923323823140271,-0.8778387917171753,0.05714540717852611,0.0
0.5096256855804663,-0.40009259984966955,-0.1357438770059506,0.02126873341088022,-0.8831509771391393,0.0789163568508347,0.0
0.505843353775715,-0.5068670784875039,-0.19360717428215116,-0.07301657957066122,-0.6846081684771905,0.03885780913514468,0.0
0.505843353775715,-0.5068670784875039,-0.19360717428215116,-0.19205837358255382,-0.4369276932556564,-0.013392470609466293,0.0
0.4566730403139458,-0.5450008256261247,-0.17335502656593896,-0.24525847005651139,-0.3452925433203599,-0.05258018506479028,0.0
0.46423770392344776,-0.4916135529314431,-0.22832515264787137,-0.27422881784050307,-0.13745344256569486,-0.0221008510094601,0.0
0.5020610219709613,-0.45347980579282166,-0.27172261927456376,-0.34059724370354444,0.24834377263759924,0.03624529607728727,0.0
0.5285373446042246,-0.4763600941269125,-0.2572568139468875,-0.3774686071094365,0.3871245115003144,0.021441050990508907,0.0
0.5096256855804663,-0.4916135529314431,-0.2370046409088435,-0.4185538163895182,0.3652117547336435,0.03537445750621754,0.0
0.48314936294720606,-0.4763600941269125,-0.23989781210311156,-0.42329441548354396,0.3466191381524903,0.017957696706229924,0.0
0.49827869016621,-0.4305995842102609,-0.24568415449164732,-0.43330236689143226,0.39110866676464756,-0.08131783666727725,0.0
0.49071402655670804,-0.40009259984966955,-0.28040213285736754,-0.49282324502556685,0.4316140401124716,-0.15359739558043695,0.0
0.4566730403139458,-0.3772123782671083,-0.24857730036408363,-0.5449698864554235,0.4648151828018857,-0.12573056130620497,0.0
0.4566730403139458,-0.3772123782671083,-0.24857730036408363,-0.5570847479515134,0.4502066890893451,-0.1387931504936586,0.0
0.437761381290189,-0.36195888608681315,-0.24279098329737941,-0.5270609451234209,0.3107619027520942,-0.07783448238299824,0.0
0.48693169475195736,-0.27806466240730465,-0.26014998514115534,-0.4612192339335371,0.3545874162854361,-0.0221008510094601,0.0
0.49071402655670804,-0.23993091526868315,-0.35562443197734406,-0.39169040439151426,0.40571716047718787,-0.008167444493751501,0.0
0.505843353775715,-0.3009449173656305,-0.3932355562155006,-0.4712271853414254,0.4774315988822597,0.027536915677293466,0.0
0.505843353775715,-0.3543321233087825,-0.33247911306686395,-0.5623520745675897,0.5172729895469887,0.020570212419439165,0.0
0.48314936294720606,-0.3238251389481915,-0.19650034547641906,-0.5570847479515134,0.3326746595187651,0.06498294884149068,0.0
0.44154371309494,-0.3238251389481915,-0.1039190698344982,-0.4728073679075764,-0.08300357438628547,0.1276832823111667,0.0
0.437761381290189,-0.3085716467678958,-0.1039190698344982,-0.35429231346357154,-0.251001333069802,0.10504149539546424,0.0
0.44154371309494,-0.3467053939065173,-0.17624817243837526,-0.2510525370435311,-0.2602976413603786,0.09720395356654021,0.0
0.4339790494854374,-0.36195888608681315,-0.2051798337373911,-0.12463647340207216,-0.17198261541273976,0.08501222286529518,0.0
0.4037206598795088,-0.40009259984966955,-0.21964566438689914,-0.047206634662595295,-0.11753275533226044,0.028407754248363237,0.0
0.388591332660503,-0.36195888608681315,-0.23989781210311156,0.013367730637872761,-0.09429196030902864,-0.02297168426982616,0.0
0.4264143858759345,-0.36195888608681315,-0.23989781210311156,0.09448470057838171,-0.09163586759804669,-0.06390107586728962,0.0
0.49071402655670804,-0.3848391410451389,-0.26593627688602794,0.1750749365723935,-0.0013287792037351724,-0.06912609667230075,0.0
0.5436664069911462,-0.3543321233087825,-0.2630431563354232,0.22564136973831309,0.06905763208080448,-0.05780520586980138,0.0
0.5663603978196527,-0.3238251389481915,-0.2630431563354232,0.2398631670203906,0.07636188298653977,-0.09873459746726486,0.0
0.513408017385217,-0.29331815458760024,-0.24568415449164732,0.24355031107031555,0.0717137207423214,-0.07783448238299824,0.0
0.47180236753295274,-0.28569139180957,-0.24568415449164732,0.2677800597602816,0.04183269799109977,-0.06738443015156864,0.0
0.46802003572819845,-0.28569139180957,-0.22543198145360355,0.27410086711824466,0.060425334819578236,-0.024713361411965663,0.0
0.46423770392344776,-0.2246774230883876,-0.21964566438689914,0.2472374551202407,0.05312108391384294,-0.027325877125174914,0.0
0.4566730403139458,-0.186543709325531,-0.19650034547641906,0.21721362659436197,-0.026561644772569677,0.018828535277299666,0.0
0.437761381290189,-0.110276248424053,-0.19071400308788325,0.20562549262032265,-0.13546136493352837,0.0876247372508285,0.0
0.4264143858759345,-0.05688900910513594,-0.18492768602117887,0.18402940723839484,-0.24900925543763547,0.12681244374009693,0.0
0.4566730403139458,-0.07214250128543157,-0.1791413436326431,0.2182671073362489,-0.27689821270508574,0.19386697122683813,0.0
0.5096256855804663,-0.17891694654750076,-0.23411149503640719,0.2798949212563713,-0.20319169666784745,0.26440484237645095,0.0
0.5209726809947189,-0.3085716467678958,-0.24568415449164732,0.32835441863630305,-0.09163586759804669,0.22086294568718562,0.0
0.5096256855804663,-0.3467053939065173,-0.23989781210311156,0.36943962791638457,-0.07171518846354231,0.1259416104797309,0.0
0.505843353775715,-0.3467053939065173,-0.2138593219983634,0.4558239694440954,-0.1049163230540263,0.03885780913514468,0.0
0.49071402655670804,-0.36195888608681315,-0.25436364275261963,0.5622241109964383,-0.15604607534470832,0.04669535096406873,0.0
0.49071402655670804,-0.3238251389481915,-0.27461579046883183,0.6554559874041627,-0.07769139706325169,0.07804551827976496,0.0
0.5096256855804663,-0.3238251389481915,-0.3006542805735798,0.6981214049481816,-0.014609233647348526,0.03276194444836012,0.0
0.505843353775715,-0.2704378996292744,-0.27461579046883183,0.767123506968154,-0.03585796116207639,0.029278590164081107,0.0
0.5020610219709613,-0.262811170227009,-0.27461579046883183,0.8182166162605516,-0.11487667072020856,0.07282049083637422,0.0
0.47558469933770403,-0.21705069368612231,-0.2630431563354232,0.8751039081800065,-0.1600302144111812,0.05627456860745637,0.0
0.46423770392344776,-0.2551844074489788,-0.25436364275261963,0.9730763065883984,-0.2948268142074235,0.07194965292914243,0.0
0.48693169475195736,-0.33145190172622163,-0.2861884752459035,1.06525467655645,-0.36587726992940023,0.04059948627728418,0.0
0.48693169475195736,-0.33145190172622163,-0.2861884752459035,1.137417246499869,-0.3379883126619499,0.00837847773516635,0.0
0.4264143858759345,-0.4458531097663211,-0.27461579046883183,1.2011519705081932,-0.2961548767607746,-0.043000960783023026,0.0
0.3848090008557517,-0.4687333313488824,-0.24568415449164732,1.3159799579956313,-0.3911101344858683,-0.06912609667230075,0.0
0.3848090008557517,-0.4687333313488824,-0.24568415449164732,1.4150058628436963,-0.5544597228262363,-0.04648431506730202,0.0
0.36967967363674625,-0.5450008256261247,-0.16756868417740298,1.5382614906839414,-0.6666795345791323,-0.06215939872515015,0.0
0.36967967363674625,-0.5450008256261247,-0.16756868417740298,1.6941746874514605,-0.8625662829258192,-0.0769636438119285,0.0
0.3772443372462491,-0.567881047208686,-0.15888919591643091,1.7400004187322093,-1.019939638369688,-0.1596932549565178,0.0
0.4037206598795088,-0.6136414903738081,-0.17624817243837526,1.7273587526207115,-1.018611608212057,-0.24503537119290886,0.0
0.4301967176806861,-0.5907612687912468,-0.23989781210311156,1.6578300001720465,-0.9183441974607197,-0.27203135627466396,0.0
0.4491083767044438,-0.5144937745140045,-0.23989781210311156,1.6177982973316383,-0.8552620198716889,-0.3469234096582179,0.0
0.5020610219709613,-0.4305995842102609,-0.25436364275261963,1.5293070457157258,-0.8340132781838334,-0.33821504519033524,0.0
0.5474487387958975,-0.4305995842102609,-0.30644062296211577,1.4545108638598405,-0.7596427470677799,-0.3338608629563938,0.0
0.5625780660149021,-0.4687333313488824,-0.29197476699077596,1.2917501322123073,-0.5106342092928946,-0.31121908135139525,0.0
0.5625780660149021,-0.5068670784875039,-0.2948679381850441,1.1305697116198556,-0.2848664908380315,-0.31296073725071993,0.0
0.5550134024054001,-0.5450008256261247,-0.26882944808029585,1.0015199525481258,-0.20916789716862683,-0.31121908135139525,0.0
0.5361020082137266,-0.560254284430656,-0.21675249319263123,0.8724701934763961,-0.2051837581021538,-0.30512320073249943,0.0
0.5171903491899683,-0.560254284430656,-0.21964566438689914,0.6849530884079911,-0.0896438061637403,-0.2415520169086301,0.0
0.505843353775715,-0.5144937745140045,-0.22253883558116722,0.5116577035283051,0.047144879363598624,-0.2154268810193522,0.0
0.5247550127994709,-0.45347980579282166,-0.24568415449164732,0.32203361127833974,0.1507324222015235,-0.1945267765564931,0.0
0.5625780660149021,-0.40009259984966955,-0.24279098329737941,0.14663134200823846,0.26560835906112157,-0.17275582290115665,0.0
0.5550134024054001,-0.3772123782671083,-0.26014998514115534,-0.09987999237172102,0.45684690466893996,-0.14488900986973943,0.0
0.5285373446042246,-0.4077193626276996,-0.24568415449164732,-0.27791594904153516,0.5816831972936503,-0.09176788889870685,0.0
0.48314936294720606,-0.45347980579282166,-0.2051798337373911,-0.4506845550035984,0.5949636284528397,-0.08741369604335811,0.0
0.44154371309494,-0.4458531097663211,-0.19360717428215116,-0.6281938114552599,0.5544582551050157,-0.04387179935409277,0.0
0.437761381290189,-0.45347980579282166,-0.19071400308788325,-0.7888475302234471,0.5664106885022945,-0.029067554267314413,0.0
0.42263205407118354,-0.4153461254057297,-0.21675249319263123,-0.908416039711553,0.6846067331516899,0.039728647706214426,0.0
0.3999383280747575,-0.4077193626276996,-0.21964566438689914,-1.0374657473877102,0.6965591341532485,0.12855412088223642,0.0
0.36967967363674625,-0.3543321233087825,-0.2051798337373911,-1.198119568947042,0.5026644634387277,0.203446184887198,0.0
0.36211501002724306,-0.3772123782671083,-0.21964566438689914,-1.309260335291197,0.36056361678621524,0.24002138362931272,0.0
0.35076801461298884,-0.4077193626276996,-0.22832515264787137,-1.4056525254356516,0.328690504254432,0.21302540916896526,0.0
0.3053800329559727,-0.4687333313488824,-0.26593627688602794,-1.5605122157634983,0.31673810325287344,0.25917981095003245,0.0
0.3318563555892324,-0.4611065685708517,-0.2370046409088435,-1.5952766947789752,0.2317432012928921,0.3201384896821002,5.0
0.4491083767044438,-0.40009259984966955,-0.26593627688602794,-1.581054820403539,0.0843301530205555,0.41331814243671167,5.0
0.5625780660149021,-0.3238251389481915,-0.3353722842611318,-1.5225874230112915,0.11819531078878498,0.4960477748241157,5.0
0.5852720568434111,-0.4305995842102609,-0.39034238502123275,-1.504678533074861,0.3831403886317016,0.46208505993098825,5.0
0.513408017385217,-0.5221205372920344,-0.37587657969355626,-1.5178467982194794,0.4010689901340395,0.38719300654743405,5.0
0.4188497222664319,-0.5526275216526253,-0.30644062296211577,-1.5131062762188119,0.18459757996975296,0.40286807958387477,5.0
0.3923736644652549,-0.5221205372920344,-0.27172261927456376,-1.3861634272352839,-0.05644266347432625,0.4760184770681042,5.0
0.4264143858759345,-0.4916135529314431,-0.3237995994840601,-1.3392841895148617,-0.03452991480658541,0.47950183135238306,5.0
0.4339790494854374,-0.45347980579282166,-0.3440517472002723,-1.266594917747178,0.16268483940094217,0.41244731448704935,5.0
0.4264143858759345,-0.40009259984966955,-0.3093337941563836,-1.2534265498114152,0.12815565035603718,0.3462636255713779,5.0
0.4566730403139458,-0.3848391410451389,-0.31222696535065153,-1.1975927643316333,0.03452844911009702,0.2818216137978459,5.0
0.5285373446042246,-0.3848391410451389,-0.3209064282897922,-1.1096283173311297,0.027888221382107208,0.25917981095003245,5.0
0.513408017385217,-0.4077193626276996,-0.3353722842611318,-1.0332519272113072,0.09694658529878963,0.2966258588846243,5.0
0.4566730403139458,-0.3848391410451389,-0.3411585760060044,-0.9452874288152312,0.17397322532368537,0.28704664522426443,5.0
0.4528907085091951,-0.40009259984966955,-0.2948679381850441,-0.8836595634995366,0.15272449983369002,0.2243462999714646,5.0
0.46423770392344776,-0.3695856154890782,-0.2775089616630997,-0.8030693532033109,0.14010806755545588,0.17906272614005977,5.0
0.49071402655670804,-0.36195888608681315,-0.25147047155835156,-0.687187962067344,0.154052546189181,0.17383769471364127,5.0
0.5512310706006482,-0.3695856154890782,-0.23121832384213928,-0.5739402342394153,0.1314757662447646,0.14945423596650306,5.0
0.5512310706006482,-0.3695856154890782,-0.23121832384213928,-0.5397025598393475,0.1666689784674151,0.1485833973954333,5.0
0.49449635836145933,-0.2704378996292744,-0.2138593219983634,-0.5196866570235709,0.17596528675799175,0.2226046228293251,5.0
0.4453260448996916,-0.1941704387277964,-0.21096617612592708,-0.5655124910954644,0.06308142753056016,0.21650876345324427,5.0
0.4453260448996916,-0.1941704387277964,-0.21096617612592708,-0.6229264334436113,-0.007304982741613234,0.2226046228293251,5.0
0.41506739046168034,-0.1407832327846442,-0.21096617612592708,-0.701936486871472,-0.051130486151292454,0.24350473791359173,5.0
0.4339790494854374,-0.14840996218690958,-0.22253883558116722,-0.7588237273953546,-0.0962840298422651,0.322750994773902,5.0
0.4339790494854374,-0.14840996218690958,-0.22253883558116722,-0.7651445090555317,-0.04781037026256503,0.33407188557640133,5.0
0.47180236753295274,-0.14840996218690958,-0.22543198145360355,-0.7456553594595917,-0.014609233647348526,0.30620507254498414,5.0
0.513408017385217,-0.28569139180957,-0.22832515264787137,-0.7330137961392377,-0.03585796116207639,0.26440484237645095,5.0
0.513408017385217,-0.28569139180957,-0.22832515264787137,-0.7024632400913084,-0.057106686652071734,0.2765965823714274,5.0
0.49449635836145933,-0.3543321233087825,-0.21964566438689914,-0.6803404271873305,-0.08101150485304902,0.3201384896821002,5.0
0.4528907085091951,-0.3467053939065173,-0.23411149503640719,-0.6487364160953005,-0.11022850847599015,0.3305885312921224,5.0
0.48314936294720606,-0.3238251389481915,-0.26593627688602794,-0.6097581169034207,-0.15737412170019927,0.31578428620534404,5.0
0.48314936294720606,-0.3238251389481915,-0.26593627688602794,-0.5955362939235568,-0.1520619362782354,0.31317178111354216,5.0
0.49827869016621,-0.3085716467678958,-0.2948679381850441,-0.5497104598516634,-0.10823643894275373,0.3358135627185409,5.0
0.48314936294720606,-0.3390786311284871,-0.3093337941563836,-0.5165262918912683,0.003319380003384441,0.34713445352104016,5.0
0.47180236753295274,-0.3543321233087825,-0.3093337941563836,-0.511258939577406,0.0776899252925657,0.30446339540284467,5.0
0.4301967176806861,-0.4153461254057297,-0.3093337941563836,-0.5138926028854442,0.07702590211482023,0.2983675360267638,5.0
0.4566730403139458,-0.4916135529314431,-0.2630431563354232,-0.43488254945758353,0.02523213069585779,0.23305468568216212,5.0
0.47558469933770403,-0.5221205372920344,-0.26882944808029585,-0.3732547355374612,0.0478089025413441,0.1555501006532876,5.0
0.5096256855804663,-0.49924031570947325,-0.2775089616630997,-0.2542129407225127,0.1254995657439853,0.0641121107682994,5.0
0.49827869016621,-0.45347980579282166,-0.3209064282897922,-0.1962722451545293,0.15338851491250544,-0.008167444493751501,5.0
0.46423770392344776,-0.49924031570947325,-0.3093337941563836,-0.09145225565221662,0.24037549450465331,0.03885780913514468,5.0
0.4491083767044438,-0.5144937745140045,-0.3006542805735798,-0.07565024769703425,0.2436956022944507,0.015345180993020674,5.0
0.4301967176806861,-0.4611065685708517,-0.26593627688602794,0.005993461811362246,0.06772958572531351,-0.026455038554105144,5.0
0.437761381290189,-0.438226346988291,-0.2775089616630997,0.06498762527233952,0.060425334819578236,-0.025584199983035412,5.0
0.47180236753295274,-0.4229728214322303,-0.2948679381850441,0.09027082900640616,0.1321397894225101,-0.029067554267314413,5.0
0.47558469933770403,-0.3772123782671083,-0.2977611093793119,0.09659163636436933,0.19190184302388338,-0.03864676792767427,5.0
0.4566730403139458,-0.36195888608681315,-0.2775089616630997,0.06814802895132112,0.16268483940094217,-0.027325877125174914,5.0
0.41128532348901137,-0.36195888608681315,-0.25436364275261963,0.06340741700840219,0.05245706073609746,0.004895128761591067,5.0
0.437761381290189,-0.4229728214322303,-0.26014998514115534,0.10501937950832023,-0.03386589162883994,-0.0038132516384027483,5.0
0.47180236753295274,-0.4305995842102609,-0.26014998514115534,0.16243334755425334,-0.01261716613884459,-0.058676044440871135,5.0
0.5096256855804663,-0.4305995842102609,-0.26882944808029585,0.18771655128832,0.033864425932351526,-0.049096830780511296,5.0
0.49071402655670804,-0.40009259984966955,-0.28040213285736754,0.17244127326435552,0.05444913026933391,-0.04125928364088352,5.0
0.47558469933770403,-0.33145190172622163,-0.26882944808029585,0.14979173283832686,0.031208335246102108,-0.03342174712266319,5.0
0.46802003572819845,-0.3009449173656305,-0.27461579046883183,0.12608872451930456,0.00995960747828268,-0.04038844506981379,5.0
0.46423770392344776,-0.2475576780467134,-0.25436364275261963,0.07499556383133468,-0.0033208477246053658,-0.05954688301194086,5.0
0.4793670311424553,-0.21705069368612231,-0.25436364275261963,0.000726122346392932,0.02523213069585779,-0.0473551536383718,5.0
0.5020610219709613,-0.23230418586641782,-0.27461579046883183,-0.024030353865623324,0.06573751619207707,-0.018617496725181117,5.0
0.49071402655670804,-0.262811170227009,-0.26593627688602794,-0.03983236262386151,0.07968199482580215,0.0022826130483818157,5.0
0.48693169475195736,-0.2704378996292744,-0.24568415449164732,-0.06037497368834882,0.05444913026933391,0.00837847773516635,5.0
0.47180236753295274,-0.3009449173656305,-0.26593627688602794,-0.10620079651746095,0.06772958572531351,0.03102026730622062,5.0
0.48314936294720606,-0.3238251389481915,-0.2630431563354232,-0.1035671283910879,0.068393608903059,0.04234116076407183,5.0
0.4566730403139458,-0.316198409545926,-0.26882944808029585,-0.08987205461578164,0.0843301530205555,0.033632780364078026,5.0
0.4301967176806861,-0.316198409545926,-0.2630431563354232,-0.10251366049809404,0.07237774392006686,0.03885780913514468,5.0
0.4339790494854374,-0.3009449173656305,-0.25436364275261963,-0.10567406257096401,0.060425334819578236,0.04147032219300208,5.0
0.44154371309494,-0.3085716467678958,-0.2572568139468875,-0.08987205461578164,0.0843301530205555,0.05192037840745946,5.0
0.44154371309494,-0.3009449173656305,-0.25436364275261963,-0.08249778438392344,0.13081174306701912,0.0580162450857579,5.0
0.4566730403139458,-0.28569139180957,-0.25436364275261963,-0.07459678060709621,0.12815565035603718,0.06933713887552809,5.0
0.4491083767044438,-0.3238251389481915,-0.24568415449164732,-0.0724898464272201,0.13479588213349203,0.06498294884149068,5.0
0.4301967176806861,-0.3543321233087825,-0.2370046409088435,-0.05721457161547886,0.08765026890928293,0.07282049083637422,5.0
0.4528907085091951,-0.36195888608681315,-0.24568415449164732,-0.04615316676960143,0.03320040275460604,0.0832705470508316,5.0
0.4491083767044438,-0.33145190172622163,-0.25436364275261963,-0.03193135985085405,-0.0006647560259896901,0.10852484967974327,5.0
0.4566730403139458,-0.3085716467678958,-0.24279098329737941,-0.04088583051685538,-0.04781037026256503,0.09894563070867973,5.0
0.4566730403139458,-0.3390786311284871,-0.22543198145360355,-0.03561849426410932,-0.07569932753001524,0.08849557449422234,5.0
0.437761381290189,-0.27806466240730465,-0.21964566438689914,-0.06985617830084707,-0.11288460118697212,0.08152887123636803,5.0
0.46423770392344776,-0.262811170227009,-0.2051798337373911,-0.08987205461578164,-0.1646783685564695,0.12245825619545186,5.0
0.5247550127994709,-0.209423930908092,-0.23121832384213928,-0.08987205461578164,-0.1646783685564695,0.14248752739794507,5.0
0.5285373446042246,-0.2551844074489788,-0.26593627688602794,-0.09092552170571969,-0.03851405387305832,0.14597088168222405,5.0
0.513408017385217,-0.3085716467678958,-0.26593627688602794,-0.10778099675084012,0.04382476752433624,0.11113736273760068,5.0
0.5096256855804663,-0.36195888608681315,-0.25436364275261963,-0.13095727433558882,0.039176607304850355,0.09110808887975566,5.0
0.5361020082137266,-0.3543321233087825,-0.25436364275261963,-0.14517908446655947,0.09429049258780772,0.06324127286106761,5.0
0.5247550127994709,-0.3085716467678958,-0.26593627688602794,-0.1320107422285827,0.17397322532368537,0.033632780364078026,5.0
0.5020610219709613,-0.3085716467678958,-0.25436364275261963,-0.15992762211958053,0.24103952578132887,0.03798697056407492,5.0
0.49071402655670804,-0.2704378996292744,-0.2370046409088435,-0.19469203689059197,0.22510296951543732,0.004895128761591067,5.0
0.4793670311424553,-0.27806466240730465,-0.22543198145360355,-0.17994349923757091,0.2005341362356446,-0.011650793467326814,5.0
0.47558469933770403,-0.3085716467678958,-0.22832515264787137,-0.15676721844059893,0.1872536726807349,-0.016875824893745305,5.0
0.4566730403139458,-0.36195888608681315,-0.23121832384213928,-0.1509731514535792,0.1865896576019195,0.03537445750621754,5.0
0.46423770392344776,-0.316198409545926,-0.24279098329737941,-0.13517114269534103,0.1852616112464285,0.016216019564090415,5.0
0.4793670311424553,-0.3085716467678958,-0.2370046409088435,-0.1204226018300967,0.16534093211192413,0.05714540717852611,5.0
0.4793670311424553,-0.3085716467678958,-0.2370046409088435,-0.12674340597583664,0.12085140349976693,0.037116131993005175,5.0
0.4339790494854374,-0.2551844074489788,-0.23989781210311156,-0.15202661934657308,0.037184539796346436,0.0876247372508285,5.0
0.4566730403139458,-0.2551844074489788,-0.22253883558116722,-0.14570581841305638,-0.049138416618056,0.11113736273760068,5.0
0.4566730403139458,-0.2551844074489788,-0.22253883558116722,-0.1488662156675915,-0.09097184442030122,0.10765401110867354,5.0
0.4491083767044438,-0.3009449173656305,-0.2051798337373911,-0.11146813116409537,-0.10823643894275373,0.0876247372508285,5.0
0.46423770392344776,-0.28569139180957,-0.21964566438689914,-0.06932944435435015,-0.0962840298422651,0.07107881468999167,5.0
0.47558469933770403,-0.29331815458760024,-0.2370046409088435,-0.04984030118285669,-0.045818300729328576,0.05017870259299589,5.0
0.47558469933770403,-0.2704378996292744,-0.23121832384213928,-0.03667196215710317,-0.0418341657123207,0.08936641173761616,5.0
0.4793670311424553,-0.262811170227009,-0.2080730049316592,-0.03245809379735098,-0.04449025842330265,0.05017870259299589,5.0
0.49449635836145933,-0.29331815458760024,-0.2138593219983634,-0.008755082266105338,-0.0013287792037351724,0.039728647706214426,5.0
0.5020610219709613,-0.262811170227009,-0.20228666254312322,-0.0034877428011359994,0.013943743887294155,0.04669535096406873,5.0
0.48693169475195736,-0.33145190172622163,-0.22543198145360355,-0.007701614373111484,0.007967539210504053,0.04843702677853231,5.0
0.48314936294720606,-0.28569139180957,-0.21964566438689914,-0.02719075754460492,-0.014609233647348526,0.04843702677853231,5.0
0.5020610219709613,-0.23230418586641782,-0.24857730036408363,-0.03719869610360012,0.005975471195816986,0.047566189535138484,5.0
0.49071402655670804,-0.2551844074489788,-0.23989781210311156,-0.034038292424618505,0.047144879363598624,0.04059948627728418,5.0
0.5020610219709613,-0.2704378996292744,-0.23411149503640719,-0.02719075754460492,0.04847292571908958,0.03798697056407492,5.0
0.46802003572819845,-0.209423930908092,-0.21675249319263123,-0.020869956611088245,0.04913694889683507,0.05540373136406254,5.0
0.47558469933770403,-0.2475576780467134,-0.21964566438689914,-0.030877891957860188,0.06905763208080448,0.045824512392998985,5.0
0.47180236753295274,-0.2551844074489788,-0.2051798337373911,-0.0456264328231045,0.06507349301433157,0.05017870259299589,5.0
0.4793670311424553,-0.21705069368612231,-0.21096617612592708,-0.05089376907585057,0.02257603899724211,0.0580162450857579,5.0
0.46423770392344776,-0.23993091526868315,-0.22832515264787137,-0.04826009934336589,0.029216266725231917,0.03537445750621754,5.0
0.46802003572819845,-0.2551844074489788,-0.22543198145360355,-0.055634371382099694,0.02855224455985269,0.034503618935147765,5.0
0.47180236753295274,-0.23230418586641782,-0.21675249319263123,-0.03930562867736457,0.011951675682788416,0.06585378683170222,5.0
0.47558469933770403,-0.23230418586641782,-0.22543198145360355,-0.03456502637111545,0.007303516538941697,0.08675389867975876,5.0
0.4793670311424553,-0.23230418586641782,-0.23411149503640719,-0.04667990071609837,0.03652051661860094,0.0919789274508254,5.0
0.4793670311424553,-0.2551844074489788,-0.23989781210311156,-0.06037497368834882,0.05976131164183274,0.07978719409422853,5.0
0.47558469933770403,-0.262811170227009,-0.23989781210311156,-0.05510763743560276,0.04382476752433624,0.06498294884149068,5.0
0.48314936294720606,-0.2704378996292744,-0.22253883558116722,-0.0724898464272201,0.039176607304850355,0.0789163568508347,5.0
0.47558469933770403,-0.23230418586641782,-0.21964566438689914,-0.09566612401196882,0.023240062174987596,0.07020797678275988,5.0
0.46423770392344776,-0.2246774230883876,-0.22832515264787137,-0.10830773069733704,0.018591902967867984,0.07020797678275988,5.0
0.46802003572819845,-0.2551844074489788,-0.21675249319263123,-0.11199486511059231,0.011951675682788416,0.09459144050868282,5.0
0.4604553721186971,-0.23230418586641782,-0.2138593219983634,-0.11094139882371007,-0.007969005919358719,0.0789163568508347,5.0
0.46802003572819845,-0.23993091526868315,-0.21964566438689914,-0.09777305819184492,0.027224198204361724,0.08588306010868901,5.0
0.49071402655670804,-0.23230418586641782,-0.23411149503640719,-0.11146813116409537,0.04980097207458055,0.08501222286529518,5.0
0.5020610219709613,-0.23230418586641782,-0.23411149503640719,-0.10040672631821795,0.03187235842384759,0.0789163568508347,5.0
0.49449635836145933,-0.2551844074489788,-0.22543198145360355,-0.10251366049809404,0.037184539796346436,0.07978719409422853,5.0
0.49449635836145933,-0.2551844074489788,-0.22253883558116722,-0.08618491960023451,0.020583971488738178,0.07804551827976496,5.0
0.5020610219709613,-0.2704378996292744,-0.23989781210311156,-0.06722251017447405,0.06573751619207707,0.06498294884149068,5.0
0.49449635836145933,-0.23993091526868315,-0.2370046409088435,-0.06985617830084707,0.10557887851055084,0.06846630080233682,5.0
0.48314936294720606,-0.23230418586641782,-0.22543198145360355,-0.07301657957066122,0.07038567438683044,0.09284976336654331,5.0
0.46802003572819845,-0.23230418586641782,-0.23411149503640719,-0.07723044873346924,0.06241740435281469,0.07194965292914243,5.0
0.47558469933770403,-0.2551844074489788,-0.22543198145360355,-0.06985617830084707,0.05843326528634177,0.06149959671468506,5.0
0.49071402655670804,-0.27806466240730465,-0.21675249319263123,-0.06774924412097098,0.06507349301433157,0.07543300455806959,5.0
0.49449635836145933,-0.29331815458760024,-0.21964566438689914,-0.0440462309836137,0.045152811855094684,0.05453289279299279,5.0
0.47558469933770403,-0.28569139180957,-0.2370046409088435,-0.055634371382099694,0.04316074434659075,0.0641121107682994,5.0
0.4793670311424553,-0.3085716467678958,-0.23121832384213928,-0.030877891957860188,0.06374545070830565,0.03624529607728727,5.0
0.49449635836145933,-0.28569139180957,-0.22832515264787137,-0.042466032356346176,0.068393608903059,0.06498294884149068,5.0
0.47180236753295274,-0.3009449173656305,-0.2080730049316592,-0.028244225437598785,0.0843301530205555,0.06933713887552809,5.0
0.437761381290189,-0.28569139180957,-0.1993935166706869,-0.03351155847812158,0.060425334819578236,0.07543300455806959,5.0
0.4188497222664319,-0.28569139180957,-0.18492768602117887,-0.025083821758617203,0.02855224455985269,0.10852484967974327,5.0
0.437761381290189,-0.28569139180957,-0.1993935166706869,-0.028244225437598785,0.019919948310992693,0.09720395356654021,5.0
0.4491083767044438,-0.2475576780467134,-0.2051798337373911,-0.024030353865623324,0.007303516538941697,0.0919789274508254,5.0
0.47558469933770403,-0.27806466240730465,-0.2051798337373911,-0.038778894730867645,-0.019921415019847365,0.10329982090867662,5.0
0.49071402655670804,-0.3009449173656305,-0.21096617612592708,-0.032984827743847915,-0.007304982741613234,0.09372060193761306,5.0
0.49071402655670804,-0.3009449173656305,-0.22832515264787137,-0.03772543005009704,0.011951675682788416,0.1041706594797464,5.0
0.49071402655670804,-0.2704378996292744,-0.22832515264787137,-0.04615316676960143,0.027888221382107208,0.0745621666508378,5.0
0.48314936294720606,-0.23993091526868315,-0.21964566438689914,-0.044572964930110634,0.0717137207423214,0.07369132874360601,5.0
0.4793670311424553,-0.2246774230883876,-0.20228666254312322,-0.09039878856227858,0.08034601800354764,0.08239970847976186,5.0
0.4566730403139458,-0.23230418586641782,-0.1791413436326431,-0.0972463250484038,0.027888221382107208,0.0919789274508254,5.0
0.4491083767044438,-0.23993091526868315,-0.15599602472216278,-0.09566612401196882,-0.03452991480658541,0.11984574048224263,5.0
0.4491083767044438,-0.23993091526868315,-0.15599602472216278,-0.08513145240991449,-0.03253784932281401,0.11723323007973707,5.0
0.48693169475195736,-0.2704378996292744,-0.2138593219983634,-0.08302451802927444,-0.0006647560259896901,0.09981646927974946,5.0
0.48314936294720606,-0.2704378996292744,-0.2051798337373911,-0.08671165314520354,0.035192472287842495,0.10591233396653402,5.0
0.49827869016621,-0.262811170227009,-0.20228666254312322,-0.10251366049809404,0.01925592563943034,0.07282049083637422,5.0
0.49827869016621,-0.2551844074489788,-0.2138593219983634,-0.10620079651746095,0.051129018430071525,0.09372060193761306,5.0
0.505843353775715,-0.2551844074489788,-0.2138593219983634,-0.12094933577659363,0.06308142753056016,0.08849557449422234,5.0
0.505843353775715,-0.2551844074489788,-0.2138593219983634,-0.12410973945557523,0.07038567438683044,0.09894563070867973,5.0
0.48314936294720606,-0.2551844074489788,-0.19071400308788325,-0.12147606972309057,0.06374545070830565,0.12332909476652165,5.0
0.47558469933770403,-0.28569139180957,-0.15888919591643091,-0.11620873347034451,0.0026553578380052144,0.08675389867975876,5.0
0.48314936294720606,-0.3085716467678958,-0.18492768602117887,-0.10198692815770875,-0.030545779789577558,0.07630384246530138,5.0
0.5171903491899683,-0.3085716467678958,-0.21675249319263123,-0.1035671283910879,0.015935812028527,0.0745621666508378,5.0
0.5096256855804663,-0.262811170227009,-0.21096617612592708,-0.09355918983209273,0.07237774392006686,0.039728647706214426,5.0
0.48693169475195736,-0.2551844074489788,-0.21964566438689914,-0.10462059467797015,0.05444913026933391,0.06846630080233682,5.0
0.48693169475195736,-0.2551844074489788,-0.21964566438689914,-0.12727013992233355,0.05312108391384294,0.09372060193761306,5.0
0.48693169475195736,-0.28569139180957,-0.19650034547641906,-0.11673546741684146,0.045152811855094684,0.0832705470508316,5.0
0.49827869016621,-0.2704378996292744,-0.19360717428215116,-0.10778099675084012,0.037848562974091914,0.08152887123636803,5.0
0.49827869016621,-0.2704378996292744,-0.19360717428215116,-0.10462059467797015,0.045152811855094684,0.07804551827976496,5.0
0.46423770392344776,-0.316198409545926,-0.18203451482691102,-0.08460471881475448,0.029880288890611142,0.0789163568508347,5.0
0.48314936294720606,-0.29331815458760024,-0.1791413436326431,-0.08829185398087457,0.0265601760389825,0.07369132874360601,5.0
0.48314936294720606,-0.29331815458760024,-0.1791413436326431,-0.07881064936837631,0.013279721152458908,0.08675389867975876,5.0
0.48314936294720606,-0.23230418586641782,-0.2051798337373911,-0.07090964539078513,0.029880288890611142,0.0641121107682994,5.0
0.48314936294720606,-0.28569139180957,-0.2051798337373911,-0.07354331351715816,0.02523213069585779,0.08936641173761616,5.0
0.46423770392344776,-0.2551844074489788,-0.2138593219983634,-0.07775718187691036,0.005311448524254633,0.0745621666508378,5.0
0.48693169475195736,-0.2704378996292744,-0.19071400308788325,-0.06458884204810102,0.011951675682788416,0.06585378683170222,5.0
0.5209726809947189,-0.3085716467678958,-0.18782083189361518,-0.04141256446335231,0.047144879363598624,0.06933713887552809,5.0
0.5209726809947189,-0.27806466240730465,-0.22543198145360355,-0.07038291224734401,0.05644119980257036,0.05975792090022148,5.0
0.49071402655670804,-0.27806466240730465,-0.2138593219983634,-0.09250572274215467,0.02855224455985269,0.08065803266529828,5.0
0.46423770392344776,-0.262811170227009,-0.2051798337373911,-0.08091758354825242,0.030544312068356626,0.0789163568508347,5.0
0.46423770392344776,-0.27806466240730465,-0.18492768602117887,-0.08723838689093652,0.04980097207458055,0.06846630080233682,5.0
0.4793670311424553,-0.2704378996292744,-0.18203451482691102,-0.06406210810160408,0.0750338366310488,0.08152887123636803,5.0
0.48314936294720606,-0.2704378996292744,-0.1791413436326431,-0.07459678060709621,0.06706556254756803,0.047566189535138484,5.0
0.49449635836145933,-0.28569139180957,-0.17046185537167083,-0.07090964539078513,0.059097288464087266,0.05279121697852921,5.0
0.49827869016621,-0.3085716467678958,-0.16756868417740298,-0.05089376907585057,0.04316074434659075,0.04843702677853231,5.0
0.49071402655670804,-0.3085716467678958,-0.18203451482691102,-0.05510763743560276,0.011287652947953171,0.039728647706214426,5.0
0.49827869016621,-0.3009449173656305,-0.21964566438689914,-0.05879477184885802,0.006639493867379341,0.05975792090022148,5.0
0.5209726809947189,-0.28569139180957,-0.2051798337373911,-0.03351155847812158,0.0265601760389825,0.06324127286106761,5.0
0.5361020082137266,-0.2704378996292744,-0.22253883558116722,-0.02719075754460492,0.05976131164183274,0.06498294884149068,5.0
0.5285373446042246,-0.28569139180957,-0.24279098329737941,-0.042466032356346176,0.04913694889683507,0.05192037840745946,5.0
0.47558469933770403,-0.2551844074489788,-0.21964566438689914,-0.060901707634845766,0.04116867683808683,0.039728647706214426,5.0
0.4604553721186971,-0.29331815458760024,-0.21096617612592708,-0.056161105328596625,0.01925592563943034,0.062370434953835825,5.0
0.46423770392344776,-0.28569139180957,-0.20228666254312322,-0.055634371382099694,0.030544312068356626,0.04930786534960206,5.0
0.4566730403139458,-0.2704378996292744,-0.1791413436326431,-0.060901707634845766,0.047144879363598624,0.03798697056407492,5.0
0.4604553721186971,-0.2551844074489788,-0.19071400308788325,-0.055634371382099694,0.03984063048259585,0.06933713887552809,5.0
0.46802003572819845,-0.2551844074489788,-0.19071400308788325,-0.06932944435435015,0.017263857624743275,0.06149959671468506,5.0
0.48314936294720606,-0.262811170227009,-0.22543198145360355,-0.06827597806746791,0.042496721168845265,0.05192037840745946,5.0
0.49071402655670804,-0.262811170227009,-0.2051798337373911,-0.06037497368834882,0.008631561882066405,0.03276194444836012,5.0
0.505843353775715,-0.23993091526868315,-0.1791413436326431,-0.06248190786822492,-0.028553710256341115,0.05104954116406563,5.0
0.49827869016621,-0.2475576780467134,-0.20228666254312322,-0.06037497368834882,-7.338606104631908e-07,0.0641121107682994,5.0
0.49827869016621,-0.2704378996292744,-0.21675249319263123,-0.07301657957066122,0.024568107518112305,0.03102026730622062,5.0
0.49449635836145933,-0.2551844074489788,-0.1993935166706869,-0.0724898464272201,0.027888221382107208,0.04059948627728418,5.0
0.47558469933770403,-0.2551844074489788,-0.19360717428215116,-0.07617698164353119,0.04913694889683507,0.06062875880745327,5.0
0.4491083767044438,-0.23993091526868315,-0.19071400308788325,-0.08091758354825242,0.04382476752433624,0.0745621666508378,5.0
0.437761381290189,-0.23993091526868315,-0.15020970765545863,-0.05826803950847272,-0.013281187291857559,0.05627456860745637,5.0
0.4566730403139458,-0.262811170227009,-0.17335502656593896,-0.056687839275093556,-0.011953142961099112,0.04408283790621133,5.0
0.46423770392344776,-0.2475576780467134,-0.16756868417740298,-0.08302451802927444,-0.016601301155852444,0.04234116076407183,5.0
0.46423770392344776,-0.2551844074489788,-0.18782083189361518,-0.08039085000328339,0.00199133466025973,0.033632780364078026,5.0
0.47180236753295274,-0.2475576780467134,-0.16467551298313507,-0.06511557599459795,-0.030545779789577558,0.047566189535138484,5.0
0.49071402655670804,-0.2551844074489788,-0.19650034547641906,-0.06037497368834882,-0.026561644772569677,0.0580162450857579,5.0
0.5171903491899683,-0.28569139180957,-0.21964566438689914,-0.09039878856227858,-7.338606104631908e-07,0.05627456860745637,5.0
0.5020610219709613,-0.2551844074489788,-0.21675249319263123,-0.10093346026471488,0.02390408535273308,0.03885780913514468,5.0
0.49827869016621,-0.262811170227009,-0.21675249319263123,-0.10672753046395789,0.03452844911009702,0.016216019564090415,5.0
0.49449635836145933,-0.23230418586641782,-0.18203451482691102,-0.11410180089658004,0.005975471195816986,0.04669535096406873,5.0
0.49071402655670804,-0.2551844074489788,-0.19071400308788325,-0.0951393908685277,0.03452844911009702,0.05192037840745946,5.0
0.48314936294720606,-0.2551844074489788,-0.20228666254312322,-0.09250572274215467,0.037184539796346436,0.06846630080233682,5.0
0.48314936294720606,-0.21705069368612231,-0.16467551298313507,-0.10093346026471488,0.03452844911009702,0.04321199933514158,5.0
0.47558469933770403,-0.23993091526868315,-0.17046185537167083,-0.10462059467797015,0.014607766685402292,0.05888708299298969,5.0
0.47558469933770403,-0.23230418586641782,-0.18492768602117887,-0.09829979213834185,0.029216266725231917,0.05627456860745637,5.0
0.47180236753295274,-0.2551844074489788,-0.18492768602117887,-0.10725426280434316,-0.0019928013691143972,0.05104954116406563,5.0
0.4793670311424553,-0.23230418586641782,-0.19360717428215116,-0.09197898879565775,-0.019257393866834394,0.04843702677853231,5.0
0.48693169475195736,-0.21705069368612231,-0.20228666254312322,-0.08513145240991449,0.011287652947953171,0.037116131993005175,5.0
0.48314936294720606,-0.23230418586641782,-0.19071400308788325,-0.11252159905708924,0.011951675682788416,0.04408283790621133,5.0
0.4793670311424553,-0.2551844074489788,-0.19071400308788325,-0.0951393908685277,0.021912016831862887,0.05104954116406563,5.0
0.49071402655670804,-0.2551844074489788,-0.19071400308788325,-0.08355125162443446,-0.0013287792037351724,0.03102026730622062,5.0
0.5020610219709613,-0.2475576780467134,-0.19071400308788325,-0.09355918983209273,0.04913694889683507,0.06498294884149068,5.0
0.49449635836145933,-0.21705069368612231,-0.19071400308788325,-0.10462059467797015,0.04847292571908958,0.05975792090022148,5.0
0.48314936294720606,-0.20179720150582658,-0.20228666254312322,-0.1035671283910879,0.03320040275460604,0.05192037840745946,5.0
0.49827869016621,-0.2246774230883876,-0.19650034547641906,-0.10725426280434316,0.05710522298031585,0.06149959671468506,5.0
0.49071402655670804,-0.23230418586641782,-0.2138593219983634,-0.1093611985903309,0.03851258412710488,0.05453289279299279,5.0
0.49071402655670804,-0.23230418586641782,-0.19071400308788325,-0.1135750669500831,0.029880288890611142,0.039728647706214426,5.0
0.48693169475195736,-0.2475576780467134,-0.18782083189361518,-0.08776512043590555,0.003319380003384441,0.03624529607728727,5.0
0.47180236753295274,-0.23230418586641782,-0.20228666254312322,-0.09829979213834185,0.02257603899724211,0.05540373136406254,5.0
0.48314936294720606,-0.23230418586641782,-0.19360717428215116,-0.11673546741684146,0.02523213069585779,0.062370434953835825,5.0
0.47558469933770403,-0.21705069368612231,-0.18203451482691102,-0.10830773069733704,0.02390408535273308,0.04495367514960516,5.0
0.4793670311424553,-0.20179720150582658,-0.18203451482691102,-0.0888185875258436,0.015935812028527,0.05714540717852611,5.0
0.4793670311424553,-0.21705069368612231,-0.18782083189361518,-0.07670371478697231,0.011287652947953171,0.04669535096406873,5.0
0.48314936294720606,-0.21705069368612231,-0.1791413436326431,-0.08618491960023451,0.024568107518112305,0.05279121697852921,5.0
0.5020610219709613,-0.20179720150582658,-0.18492768602117887,-0.09092552170571969,0.03851258412710488,0.06324127286106761,5.0
0.49071402655670804,-0.21705069368612231,-0.2051798337373911,-0.07407004666059927,0.04581683503284016,0.05192037840745946,5.0
0.49827869016621,-0.23230418586641782,-0.2051798337373911,-0.07301657957066122,0.04116867683808683,0.04930786534960206,5.0
0.5020610219709613,-0.2475576780467134,-0.2138593219983634,-0.07407004666059927,0.021912016831862887,0.04059948627728418,5.0
0.5020610219709613,-0.21705069368612231,-0.21096617612592708,-0.053527435596111964,0.042496721168845265,0.05888708299298969,5.0
0.5096256855804663,-0.20179720150582658,-0.18203451482691102,-0.05300070164961503,0.05843326528634177,0.04147032219300208,5.0
0.49071402655670804,-0.20179720150582658,-0.2138593219983634,-0.06300864181472185,0.051129018430071525,0.04669535096406873,5.0
0.48693169475195736,-0.186543709325531,-0.1993935166706869,-0.06616904228148018,0.029216266725231917,0.034503618935147765,5.0
0.4793670311424553,-0.186543709325531,-0.2051798337373911,-0.06616904228148018,0.03452844911009702,0.047566189535138484,5.0
0.48693169475195736,-0.20179720150582658,-0.1993935166706869,-0.08249778438392344,0.029216266725231917,0.021441050990508907,5.0
0.47558469933770403,-0.21705069368612231,-0.19071400308788325,-0.06511557599459795,0.03585649344085546,0.02492439996408422,5.0
0.47558469933770403,-0.20179720150582658,-0.1791413436326431,-0.05721457161547886,0.0478089025413441,0.028407754248363237,5.0
0.47558469933770403,-0.20179720150582658,-0.1791413436326431,-0.05721457161547886,0.029216266725231917,0.04147032219300208,5.0
0.4793670311424553,-0.1712902171452354,-0.16467551298313507,-0.06616904228148018,0.03452844911009702,0.04059948627728418,5.0
0.48693169475195736,-0.1712902171452354,-0.2138593219983634,-0.0724898464272201,0.0265601760389825,0.020570212419439165,5.0
0.48693169475195736,-0.1712902171452354,-0.2138593219983634,-0.0814443172939854,0.03984063048259585,0.05540373136406254,5.0
0.48314936294720606,-0.186543709325531,-0.20228666254312322,-0.07670371478697231,0.04382476752433624,0.05279121697852921,5.0
0.49071402655670804,-0.1941704387277964,-0.19071400308788325,-0.07143637853422624,0.06772958572531351,0.06149959671468506,5.0
0.49071402655670804,-0.1941704387277964,-0.19071400308788325,-0.07881064936837631,0.07104969756457591,0.04147032219300208,5.0
0.49071402655670804,-0.2246774230883876,-0.15310285352789493,-0.08618491960023451,0.06905763208080448,0.04495367514960516,5.0
0.5020610219709613,-0.17891694654750076,-0.16756868417740298,-0.06669577622797712,0.08565819937604648,0.014474347732654602,5.0
0.5020610219709613,-0.17891694654750076,-0.16756868417740298,-0.08197105083895441,0.11089106393251474,0.027536915677293466,5.0
0.49449635836145933,-0.1407832327846442,-0.17046185537167083,-0.11094139882371007,0.10624290168829634,0.04147032219300208,5.0
0.48693169475195736,-0.13315647000661396,-0.17624817243837526,-0.09987999237172102,0.04980097207458055,0.04147032219300208,5.0
0.48693169475195736,-0.13315647000661396,-0.17624817243837526,-0.09935326003133571,0.01925592563943034,0.0641121107682994,5.0
0.49449635836145933,-0.1941704387277964,-0.15888919591643091,-0.09092552170571969,0.018591902967867984,0.053662055549598964,5.0
0.48693169475195736,-0.20179720150582658,-0.17335502656593896,-0.0724898464272201,0.029880288890611142,0.05279121697852921,5.0
0.5020610219709613,-0.186543709325531,-0.18492768602117887,-0.07828391582340728,0.04316074434659075,0.09110808887975566,5.0
0.5096256855804663,-0.17891694654750076,-0.16467551298313507,-0.06195517392172799,0.04116867683808683,0.07630384246530138,5.0
0.49827869016621,-0.1560367249649398,-0.1791413436326431,-0.07143637853422624,0.033864425932351526,0.0580162450857579,5.0
0.48314936294720606,-0.17891694654750076,-0.17046185537167083,-0.06195517392172799,0.00995960747828268,0.05888708299298969,5.0
0.48314936294720606,-0.20179720150582658,-0.17335502656593896,-0.06827597806746791,0.01925592563943034,0.08239970847976186,5.0
0.49449635836145933,-0.209423930908092,-0.15888919591643091,-0.06248190786822492,0.030544312068356626,0.04234116076407183,5.0
0.49071402655670804,-0.17891694654750076,-0.17046185537167083,-0.06406210810160408,0.04448879070208172,0.05104954116406563,5.0
0.49071402655670804,-0.1941704387277964,-0.1791413436326431,-0.06880271040785321,0.02855224455985269,0.07369132874360601,5.0
0.49827869016621,-0.16366345436720517,-0.1791413436326431,-0.05984823974185189,0.0644094698365861,0.07630384246530138,5.0
0.47558469933770403,-0.1560367249649398,-0.18492768602117887,-0.07723044873346924,0.005975471195816986,0.06759546281212528,5.0
0.48314936294720606,-0.14840996218690958,-0.17624817243837526,-0.08039085000328339,0.015935812028527,0.045824512392998985,5.0
0.49071402655670804,-0.17891694654750076,-0.16467551298313507,-0.08249778438392344,0.029880288890611142,0.06846630080233682,5.0
0.4793670311424553,-0.186543709325531,-0.16467551298313507,-0.07881064936837631,0.059097288464087266,0.08414138429422544,5.0
0.48314936294720606,-0.17891694654750076,-0.16178236711069877,-0.08091758354825242,0.02855224455985269,0.08152887123636803,5.0
0.47558469933770403,-0.1712902171452354,-0.17046185537167083,-0.0814443172939854,0.015271789356964646,0.09110808887975566,5.0
0.49071402655670804,-0.110276248424053,-0.1791413436326431,-0.0814443172939854,0.014607766685402292,0.07630384246530138,5.0
0.49071402655670804,-0.14840996218690958,-0.16756868417740298,-0.09092552170571969,0.02257603899724211,0.07543300455806959,5.0
0.49827869016621,-0.16366345436720517,-0.15599602472216278,-0.06353537576121879,0.0265601760389825,0.05279121697852921,5.0
0.505843353775715,-0.20179720150582658,-0.16467551298313507,-0.06406210810160408,0.07237774392006686,0.05540373136406254,5.0
0.49827869016621,-0.209423930908092,-0.15888919591643091,-0.06406210810160408,0.06573751619207707,0.04930786534960206,5.0
0.513408017385217,-0.14840996218690958,-0.13863704820021844,-0.05089376907585057,0.037848562974091914,0.04408283790621133,5.0
0.5020610219709613,-0.17891694654750076,-0.13285070581168268,-0.03456502637111545,0.06507349301433157,0.07717468103637112,5.0
0.48693169475195736,-0.16366345436720517,-0.15020970765545863,-0.05247397091534135,0.05444913026933391,0.0641121107682994,5.0
0.48693169475195736,-0.14840996218690958,-0.13863704820021844,-0.0724898464272201,-0.009297052274849693,0.0789163568508347,5.0
0.48314936294720606,-0.14840996218690958,-0.14731653646119072,-0.0724898464272201,-0.03386589162883994,0.07194965292914243,5.0
0.4793670311424553,-0.14840996218690958,-0.14442336526692287,-0.06248190786822492,0.005975471195816986,0.08675389867975876,5.0
0.49071402655670804,-0.17891694654750076,-0.15888919591643091,-0.056161105328596625,0.02523213069585779,0.07717468103637112,5.0
0.48314936294720606,-0.1712902171452354,-0.17046185537167083,-0.05300070164961503,0.02855224455985269,0.08239970847976186,5.0
0.49071402655670804,-0.17891694654750076,-0.17046185537167083,-0.05774130556197579,0.011951675682788416,0.07630384246530138,5.0
0.513408017385217,-0.16366345436720517,-0.18782083189361518,-0.056161105328596625,0.031208335246102108,0.05279121697852921,5.0
0.49827869016621,-0.16366345436720517,-0.19071400308788325,-0.060901707634845766,0.029216266725231917,0.047566189535138484,5.0
0.49071402655670804,-0.16366345436720517,-0.15310285352789493,-0.04615316676960143,-0.0019928013691143972,0.07978719409422853,5.0
0.49827869016621,-0.16366345436720517,-0.17624817243837526,-0.05774130556197579,0.0039834031811299235,0.07804551827976496,5.0
0.49827869016621,-0.17891694654750076,-0.17046185537167083,-0.054580903489105825,-0.0019928013691143972,0.0789163568508347,5.0
0.48314936294720606,-0.1560367249649398,-0.15020970765545863,-0.054054169542608894,0.007303516538941697,0.07717468103637112,5.0
0.48314936294720606,-0.11790297782631834,-0.17046185537167083,-0.06827597806746791,0.008631561882066405,0.0832705470508316,5.0
0.48314936294720606,-0.14840996218690958,-0.15020970765545863,-0.06827597806746791,0.0013273114825142441,0.07630384246530138,5.0
0.49827869016621,-0.16366345436720517,-0.17046185537167083,-0.07090964539078513,0.0026553578380052144,0.0919789274508254,5.0
0.49827869016621,-0.16366345436720517,-0.17624817243837526,-0.06827597806746791,-0.009297052274849693,0.09023725030868592,5.0
0.5020610219709613,-0.20179720150582658,-0.15599602472216278,-0.05774130556197579,-0.02257750570609678,0.10329982090867662,5.0
0.49071402655670804,-0.186543709325531,-0.16467551298313507,-0.06564230994109488,-0.013945210469603031,0.09284976336654331,5.0
0.49449635836145933,-0.17891694654750076,-0.16756868417740298,-0.06353537576121879,0.0013273114825142441,0.09720395356654021,5.0
0.5020610219709613,-0.17891694654750076,-0.17046185537167083,-0.06827597806746791,-0.0053129152331093,0.09546227907975258,5.0
0.49827869016621,-0.17891694654750076,-0.15310285352789493,-0.06195517392172799,0.009295584806720325,0.10242898233760686,5.0
0.5020610219709613,-0.16366345436720517,-0.16467551298313507,-0.06774924412097098,0.014607766685402292,0.09807479213760995,5.0
0.48314936294720606,-0.13315647000661396,-0.16467551298313507,-0.07301657957066122,-0.0033208477246053658,0.09110808887975566,5.0
0.49827869016621,-0.1560367249649398,-0.15599602472216278,-0.07512351375053733,-0.013281187291857559,0.09633311765082231,5.0
0.5171903491899683,-0.17891694654750076,-0.18492768602117887,-0.06142843997523104,0.01792788029630563,0.0832705470508316,5.0
0.5020610219709613,-0.21705069368612231,-0.1791413436326431,-0.04615316676960143,0.020583971488738178,0.05453289279299279,5.0
0.48314936294720606,-0.21705069368612231,-0.15020970765545863,-0.054054169542608894,-7.338606104631908e-07,0.08501222286529518,5.0
0.49827869016621,-0.1941704387277964,-0.1791413436326431,-0.03561849426410932,0.00995960747828268,0.07978719409422853,5.0
0.49827869016621,-0.1941704387277964,-0.1791413436326431,-0.03614522821060624,0.055113153447079385,0.09023725030868592,5.0
0.48314936294720606,-0.186543709325531,-0.15599602472216278,-0.06458884204810102,0.033864425932351526,0.10678317253760378,5.0
0.48314936294720606,-0.16366345436720517,-0.18203451482691102,-0.06458884204810102,-0.0026568245468598815,0.09981646927974946,5.0
0.48314936294720606,-0.16366345436720517,-0.18203451482691102,-0.04931356723635977,-0.037186007517567364,0.07107881468999167,5.0
0.49071402655670804,-0.1941704387277964,-0.17046185537167083,-0.0429927663028431,-0.007304982741613234,0.09720395356654021,5.0
0.5020610219709613,-0.20179720150582658,-0.17046185537167083,-0.0456264328231045,0.024568107518112305,0.09110808887975566,5.0
0.5020610219709613,-0.20179720150582658,-0.17046185537167083,-0.05089376907585057,0.030544312068356626,0.0832705470508316,5.0
0.49449635836145933,-0.20179720150582658,-0.15310285352789493,-0.054054169542608894,0.02855224455985269,0.1102665241665309,5.0
0.49071402655670804,-0.20179720150582658,-0.16467551298313507,-0.055634371382099694,0.006639493867379341,0.0919789274508254,5.0
0.49071402655670804,-0.186543709325531,-0.15599602472216278,-0.04141256446335231,0.033864425932351526,0.09459144050868282,5.0
0.49071402655670804,-0.14840996218690958,-0.15310285352789493,-0.03983236262386151,0.021912016831862887,0.07804551827976496,5.0
0.48693169475195736,-0.16366345436720517,-0.15888919591643091,-0.04141256446335231,0.00995960747828268,0.08849557449422234,5.0
0.47558469933770403,-0.21705069368612231,-0.1791413436326431,-0.06037497368834882,0.00199133466025973,0.08849557449422234,5.0
0.48314936294720606,-0.20179720150582658,-0.1791413436326431,-0.05089376907585057,-0.003984869889984589,0.08849557449422234,5.0
0.48314936294720606,-0.21705069368612231,-0.15888919591643091,-0.04773336860909224,-0.0019928013691143972,0.0876247372508285,5.0
0.49071402655670804,-0.20179720150582658,-0.17046185537167083,-0.02877095938409572,0.021912016831862887,0.08936641173761616,5.0
0.48693169475195736,-0.20179720150582658,-0.16467551298313507,-0.042466032356346176,0.007303516538941697,0.07543300455806959,5.0
0.49449635836145933,-0.20179720150582658,-0.1993935166706869,-0.04088583051685538,0.01925592563943034,0.10765401110867354,5.0
0.49827869016621,-0.21705069368612231,-0.18492768602117887,-0.0456264328231045,0.015271789356964646,0.09459144050868282,5.0
0.49071402655670804,-0.2246774230883876,-0.16756868417740298,-0.042466032356346176,0.027888221382107208,0.09284976336654331,5.0
0.49071402655670804,-0.186543709325531,-0.16467551298313507,-0.05194723696884443,0.007967539210504053,0.09807479213760995,5.0
0.49827869016621,-0.21705069368612231,-0.15888919591643091,-0.053527435596111964,0.017263857624743275,0.12245825619545186,5.0
0.5020610219709613,-0.209423930908092,-0.17046185537167083,-0.038252163996593966,0.014607766685402292,0.0832705470508316,5.0
0.49827869016621,-0.20179720150582658,-0.16756868417740298,-0.051420503022347484,-0.004648892055363816,0.1102665241665309,5.0
0.5209726809947189,-0.20179720150582658,-0.17046185537167083,-0.04509969887660758,-0.01062509660560814,0.10591233396653402,5.0
0.5096256855804663,-0.2475576780467134,-0.15310285352789493,-0.03614522821060624,0.014607766685402292,0.0832705470508316,5.0
0.5020610219709613,-0.23230418586641782,-0.15888919591643091,-0.05932150579535496,0.027224198204361724,0.08065803266529828,5.0
0.48693169475195736,-0.21705069368612231,-0.14731653646119072,-0.0456264328231045,0.018591902967867984,0.10242898233760686,5.0
0.49449635836145933,-0.21705069368612231,-0.16467551298313507,-0.030877891957860188,0.015271789356964646,0.0832705470508316,5.0
0.5171903491899683,-0.23230418586641782,-0.17046185537167083,-0.038778894730867645,0.045152811855094684,0.09372060193761306,5.0
0.5020610219709613,-0.2246774230883876,-0.13863704820021844,-0.0456264328231045,0.0026553578380052144,0.08414138429422544,5.0
0.49827869016621,-0.21705069368612231,-0.15020970765545863,-0.054054169542608894,-0.011289119783353613,0.1181040686508068,5.0
0.49071402655670804,-0.23230418586641782,-0.15599602472216278,-0.05247397091534135,0.01792788029630563,0.09110808887975566,5.0
0.49071402655670804,-0.209423930908092,-0.16178236711069877,-0.055634371382099694,0.019919948310992693,0.09894563070867973,5.0
0.49071402655670804,-0.21705069368612231,-0.16467551298313507,-0.05932150579535496,0.027888221382107208,0.08414138429422544,5.0
0.49449635836145933,-0.17891694654750076,-0.15888919591643091,-0.06669577622797712,0.029216266725231917,0.09807479213760995,5.0
0.47558469933770403,-0.20179720150582658,-0.16178236711069877,-0.07512351375053733,0.029880288890611142,0.10068730519546737,5.0
0.48314936294720606,-0.186543709325531,-0.15020970765545863,-0.07881064936837631,-0.009961075452595175,0.09981646927974946,5.0
0.48314936294720606,-0.186543709325531,-0.15020970765545863,-0.06827597806746791,-0.026561644772569677,0.09720395356654021,5.0
0.49071402655670804,-0.21705069368612231,-0.15599602472216278,-0.06037497368834882,-0.02257750570609678,0.09459144050868282,5.0
0.49071402655670804,-0.23230418586641782,-0.16467551298313507,-0.06406210810160408,-0.042498188890066194,0.08501222286529518,5.0
0.49071402655670804,-0.2246774230883876,-0.17046185537167083,-0.06669577622797712,-0.05046646297354698,0.11374987579545806,5.0
0.5020610219709613,-0.209423930908092,-0.1791413436326431,-0.07090964539078513,-0.030545779789577558,0.10852484967974327,5.0
0.5096256855804663,-0.23230418586641782,-0.1791413436326431,-0.06985617830084707,0.007303516538941697,0.09546227907975258,5.0
0.48693169475195736,-0.23230418586641782,-0.17335502656593896,-0.08618491960023451,-0.013945210469603031,0.10939568559546117,5.0
0.48314936294720606,-0.209423930908092,-0.15888919591643091,-0.10198692815770875,-0.013281187291857559,0.09023725030868592,5.0
0.48314936294720606,-0.23993091526868315,-0.15888919591643091,-0.09197898879565775,-0.020585438197592835,0.10678317253760378,5.0
0.49071402655670804,-0.262811170227009,-0.16178236711069877,-0.09092552170571969,-0.014609233647348526,0.08588306010868901,5.0
0.48314936294720606,-0.21705069368612231,-0.14731653646119072,-0.08460471881475448,-0.01261716613884459,0.09894563070867973,5.0
0.49449635836145933,-0.23230418586641782,-0.16467551298313507,-0.07881064936837631,-0.014609233647348526,0.1294249594533062,5.0
0.49071402655670804,-0.21705069368612231,-0.17624817243837526,-0.07038291224734401,0.003319380003384441,0.09720395356654021,5.0
0.49071402655670804,-0.2551844074489788,-0.15310285352789493,-0.06511557599459795,0.0026553578380052144,0.07369132874360601,5.0
0.5020610219709613,-0.2551844074489788,-0.15599602472216278,-0.0814443172939854,-0.006640961588600268,0.08588306010868901,5.0
0.5096256855804663,-0.3009449173656305,-0.16467551298313507,-0.06985617830084707,0.01659983495318092,0.10678317253760378,5.0
0.49827869016621,-0.2704378996292744,-0.16178236711069877,-0.06458884204810102,0.005311448524254633,0.09110808887975566,5.0
0.48314936294720606,-0.2704378996292744,-0.16178236711069877,-0.05984823974185189,0.03187235842384759,0.09894563070867973,5.0
0.47558469933770403,-0.2704378996292744,-0.16178236711069877,-0.05721457161547886,0.007967539210504053,0.09023725030868592,5.0
0.49071402655670804,-0.3009449173656305,-0.15020970765545863,-0.030877891957860188,0.01792788029630563,0.07369132874360601,5.0
0.48314936294720606,-0.23230418586641782,-0.16756868417740298,-0.047206634662595295,0.05776924615806134,0.08588306010868901,5.0
0.46802003572819845,-0.23230418586641782,-0.16756868417740298,-0.06669577622797712,0.023240062174987596,0.05975792090022148,5.0
0.48314936294720606,-0.23993091526868315,-0.1791413436326431,-0.055634371382099694,0.0039834031811299235,0.07020797678275988,5.0
0.48314936294720606,-0.262811170227009,-0.17624817243837526,-0.047206634662595295,0.009295584806720325,0.0641121107682994,5.0
0.49449635836145933,-0.2475576780467134,-0.16467551298313507,-0.06037497368834882,0.008631561882066405,0.08065803266529828,5.0
0.513408017385217,-0.29331815458760024,-0.16467551298313507,-0.06142843997523104,-0.0006647560259896901,0.08588306010868901,5.0
0.505843353775715,-0.23993091526868315,-0.17046185537167083,-0.055634371382099694,0.0026553578380052144,0.09284976336654331,5.0
0.505843353775715,-0.2475576780467134,-0.17046185537167083,-0.06669577622797712,0.011951675682788416,0.04669535096406873,5.0
0.49827869016621,-0.23993091526868315,-0.17046185537167083,-0.08934532107081262,-0.011953142961099112,0.06062875880745327,5.0
0.48314936294720606,-0.209423930908092,-0.18782083189361518,-0.09250572274215467,-0.009961075452595175,0.09546227907975258,5.0
0.48314936294720606,-0.209423930908092,-0.18782083189361518,-0.10725426280434316,0.003319380003384441,0.07107881468999167,5.0
0.49449635836145933,-0.209423930908092,-0.1791413436326431,-0.1151552687895739,0.01792788029630563,0.05192037840745946,5.0
0.47558469933770403,-0.17891694654750076,-0.15888919591643091,-0.1441256165735656,0.010623630149845034,0.07978719409422853,5.0
0.47558469933770403,-0.186543709325531,-0.15599602472216278,-0.14517908446655947,-0.007969005919358719,0.08501222286529518,5.0
0.4793670311424553,-0.21705069368612231,-0.15599602472216278,-0.15624049091854852,0.011287652947953171,0.11287903722438833,5.0
0.49071402655670804,-0.21705069368612231,-0.18203451482691102,-0.15518702302555465,0.017263857624743275,0.07107881468999167,5.0
0.48693169475195736,-0.21705069368612231,-0.18492768602117887,-0.15149988540007617,-0.013281187291857559,0.10068730519546737,5.0
0.47558469933770403,-0.209423930908092,-0.18203451482691102,-0.1730959643575573,-0.029217733434086582,0.11636239150866734,5.0
0.48693169475195736,-0.21705069368612231,-0.17335502656593896,-0.18363063686304945,0.008631561882066405,0.11984574048224263,5.0
0.49071402655670804,-0.2246774230883876,-0.18492768602117887,-0.20259303966359943,0.045152811855094684,0.09372060193761306,5.0
0.5020610219709613,-0.17891694654750076,-0.20228666254312322,-0.20786037912856875,0.04382476752433624,0.09807479213760995,5.0
0.49827869016621,-0.16366345436720517,-0.19360717428215116,-0.21470791400858233,0.03320040275460604,0.09372060193761306,5.0
0.48314936294720606,-0.20179720150582658,-0.1791413436326431,-0.21154751032960076,0.008631561882066405,0.11287903722438833,5.0
0.48314936294720606,-0.1941704387277964,-0.17046185537167083,-0.21154751032960076,-0.008633029097104202,0.10504149539546424,5.0
0.49449635836145933,-0.2246774230883876,-0.1791413436326431,-0.20733365160651834,-0.0033208477246053658,0.11636239150866734,5.0
0.5020610219709613,-0.23230418586641782,-0.19650034547641906,-0.2210287213665455,-0.004648892055363816,0.1276832823111667,5.0
0.49827869016621,-0.23993091526868315,-0.18782083189361518,-0.22840299661750257,-0.042498188890066194,0.12158741762438213,5.0
0.48314936294720606,-0.21705069368612231,-0.19071400308788325,-0.1931118414755477,-0.011289119783353613,0.1625168039111419,5.0
0.48314936294720606,-0.23230418586641782,-0.19360717428215116,-0.21365444611558848,0.006639493867379341,0.1329083137375852,5.0
0.49071402655670804,-0.2246774230883876,-0.1791413436326431,-0.22840299661750257,-0.01792934751134342,0.1694835124796999,5.0
0.48314936294720606,-0.23993091526868315,-0.18203451482691102,-0.21786831768756396,-0.042498188890066194,0.1694835124796999,5.0
0.47558469933770403,-0.2551844074489788,-0.16756868417740298,-0.2241891250455271,-0.051130486151292454,0.18167524185326903,5.0
0.49071402655670804,-0.2551844074489788,-0.1791413436326431,-0.18942470385006915,-0.04847439344031051,0.134649985569021,5.0
0.5096256855804663,-0.2475576780467134,-0.1791413436326431,-0.1778365634515832,-0.0258976215948242,0.1207165790533124,5.0
0.5171903491899683,-0.2704378996292744,-0.16467551298313507,-0.16045435606607744,-0.023241528883842254,0.1294249594533062,5.0
0.5171903491899683,-0.2704378996292744,-0.16467551298313507,-0.11726220136333837,-0.015273256825094008,0.12245825619545186,5.0
0.505843353775715,-0.29331815458760024,-0.19650034547641906,-0.10778099675084012,-0.0026568245468598815,0.11287903722438833,5.0
0.5020610219709613,-0.3009449173656305,-0.18782083189361518,-0.08302451802927444,0.005311448524254633,0.09023725030868592,5.0
0.5020610219709613,-0.28569139180957,-0.19360717428215116,-0.08091758354825242,0.04316074434659075,0.09372060193761306,5.0
0.47180236753295274,-0.28569139180957,-0.19360717428215116,-0.06669577622797712,0.019919948310992693,0.05888708299298969,5.0
0.4604553721186971,-0.2704378996292744,-0.18203451482691102,-0.07407004666059927,0.021912016831862887,0.08849557449422234,5.0
0.4566730403139458,-0.2475576780467134,-0.17335502656593896,-0.04931356723635977,0.01925592563943034,0.08414138429422544,5.0
0.46423770392344776,-0.20179720150582658,-0.19360717428215116,-0.060901707634845766,-0.013281187291857559,0.07978719409422853,5.0
0.47180236753295274,-0.23230418586641782,-0.17046185537167083,-0.038252163996593966,-0.040506119356829746,0.07978719409422853,5.0
0.5096256855804663,-0.2704378996292744,-0.19360717428215116,-0.038252163996593966,-0.009961075452595175,0.06933713887552809,5.0
0.5247550127994709,-0.2551844074489788,-0.2051798337373911,-0.014022415306628122,0.01792788029630563,0.06585378683170222,5.0
0.5171903491899683,-0.2475576780467134,-0.22253883558116722,0.00019938839989598741,0.08897831526477391,0.06324127286106761,5.0
0.49071402655670804,-0.28569139180957,-0.23989781210311156,-0.01928975477159745,0.08897831526477391,0.05714540717852611,5.0
0.47180236753295274,-0.23993091526868315,-0.2080730049316592,-0.04035909657035844,0.04648085821058565,0.0641121107682994,5.0
0.47558469933770403,-0.23230418586641782,-0.1791413436326431,-0.044572964930110634,-0.0019928013691143972,0.08414138429422544,5.0
0.46423770392344776,-0.2704378996292744,-0.14442336526692287,-0.029824427277089584,-0.08499564391952193,0.08239970847976186,5.0
0.4491083767044438,-0.2551844074489788,-0.1415301940726548,-0.02139669055758519,-0.17131860033392435,0.11462071436652782,5.0
0.4566730403139458,-0.2551844074489788,-0.18203451482691102,-0.018236286878603583,-0.1965514648903926,0.09633311765082231,5.0
0.49071402655670804,-0.2704378996292744,-0.2080730049316592,-0.025610555705114123,-0.10757241576500826,0.10504149539546424,5.0
0.5020610219709613,-0.27806466240730465,-0.2138593219983634,-0.027717491491101864,-0.04449025842330265,0.07107881468999167,5.0
0.5020610219709613,-0.2551844074489788,-0.19071400308788325,-0.03140462590435711,-0.0019928013691143972,0.0789163568508347,5.0
0.5171903491899683,-0.2704378996292744,-0.19360717428215116,-0.006648146480117607,0.024568107518112305,0.06062875880745327,5.0
0.5247550127994709,-0.2551844074489788,-0.2051798337373911,-0.03456502637111545,0.07237774392006686,0.07717468103637112,5.0
0.49071402655670804,-0.27806466240730465,-0.17335502656593896,-0.06458884204810102,0.04316074434659075,0.05104954116406563,5.0
0.49449635836145933,-0.2551844074489788,-0.17335502656593896,-0.06932944435435015,0.045152811855094684,0.05279121697852921,5.0
0.49827869016621,-0.2551844074489788,-0.1791413436326431,-0.07407004666059927,0.04116867683808683,0.037116131993005175,5.0
0.49071402655670804,-0.2704378996292744,-0.19071400308788325,-0.08249778438392344,0.07901797164805667,0.03885780913514468,5.0
0.47180236753295274,-0.23993091526868315,-0.19360717428215116,-0.06932944435435015,0.07038567438683044,0.04930786534960206,5.0
0.46423770392344776,-0.27806466240730465,-0.17046185537167083,-0.07459678060709621,0.06640153936982254,0.039728647706214426,5.0
0.46423770392344776,-0.2475576780467134,-0.18782083189361518,-0.06248190786822492,0.055777176624824884,0.04495367514960516,5.0
0.4604553721186971,-0.23993091526868315,-0.16467551298313507,-0.06195517392172799,0.051129018430071525,0.08065803266529828,5.0
0.46802003572819845,-0.2475576780467134,-0.1791413436326431,-0.060901707634845766,0.006639493867379341,0.07978719409422853,5.0
0.46802003572819845,-0.2475576780467134,-0.1791413436326431,-0.06458884204810102,-0.023905552061587745,0.07282049083637422,5.0
0.48314936294720606,-0.23230418586641782,-0.1993935166706869,-0.04773336860909224,-0.015273256825094008,0.05104954116406563,5.0
0.4793670311424553,-0.2475576780467134,-0.18492768602117887,-0.04509969887660758,-0.017265324333597946,0.09981646927974946,5.0
0.46802003572819845,-0.27806466240730465,-0.18492768602117887,-0.03772543005009704,0.008631561882066405,0.0789163568508347,5.0
0.49071402655670804,-0.2475576780467134,-0.19360717428215116,-0.044572964930110634,0.029880288890611142,0.062370434953835825,5.0
0.4793670311424553,-0.2475576780467134,-0.21096617612592708,-0.038778894730867645,0.0478089025413441,0.08675389867975876,5.0
0.48693169475195736,-0.2551844074489788,-0.1791413436326431,-0.054054169542608894,-0.0059769384108547844,0.1041706594797464,5.0
0.49071402655670804,-0.23993091526868315,-0.17046185537167083,-0.03983236262386151,-0.03519393798433091,0.09546227907975258,5.0
0.49449635836145933,-0.28569139180957,-0.21096617612592708,-0.008755082266105338,-0.03320186845109444,0.07194965292914243,5.0
0.5020610219709613,-0.3009449173656305,-0.2138593219983634,-0.0024342749081421463,-0.0159372800028395,0.08239970847976186,5.0
0.5096256855804663,-0.3009449173656305,-0.19071400308788325,0.0244291306654153,0.023240062174987596,0.045824512392998985,5.0
0.505843353775715,-0.28569139180957,-0.2138593219983634,0.040231149060323275,0.055777176624824884,0.029278590164081107,5.0
0.5020610219709613,-0.28569139180957,-0.2051798337373911,0.048132151833330736,0.08034601800354764,0.017086858135160154,5.0
0.5020610219709613,-0.2704378996292744,-0.21964566438689914,0.046025216047343005,0.12217944985525789,0.022311886906226812,5.0
0.5020610219709613,-0.2704378996292744,-0.21964566438689914,0.05866681791437633,0.1321397894225101,0.004895128761591067,5.0
0.5096256855804663,-0.28569139180957,-0.18782083189361518,0.051292542663419274,0.13678795166672847,0.0014117744773120453,5.0
0.5020610219709613,-0.28569139180957,-0.16467551298313507,0.04655194356939341,0.15338851491250544,-0.008167444493751501,5.0
0.5020610219709613,-0.28569139180957,-0.16467551298313507,0.040231149060323275,0.17065310133602787,0.005765967332660798,5.0
0.47180236753295274,-0.29331815458760024,-0.15310285352789493,0.051819283034362736,0.1328038126002556,-0.013392470609466293,5.0
0.4793670311424553,-0.28569139180957,-0.16467551298313507,0.04865887935538114,0.10956301757702376,0.003153451619451556,5.0
0.49449635836145933,-0.2704378996292744,-0.18203451482691102,-0.0003273455466009452,0.13014771988927362,0.027536915677293466,5.0
0.49449635836145933,-0.2704378996292744,-0.18203451482691102,-0.03667196215710317,0.1852616112464285,0.00924931630623611,5.0
0.48693169475195736,-0.2551844074489788,-0.16467551298313507,-0.0024342749081421463,0.13479588213349203,-0.014263309180536055,5.0
0.49449635836145933,-0.23993091526868315,-0.2080730049316592,0.003886526025374516,0.11354715664349667,-0.029067554267314413,5.0
0.49449635836145933,-0.23993091526868315,-0.2080730049316592,0.04128460410442408,0.19787804352466265,-0.03603426283587242,5.0
0.5020610219709613,-0.21705069368612231,-0.2051798337373911,0.053926218820350494,0.27822479133935574,-0.06215939872515015,5.0
0.49449635836145933,-0.23230418586641782,-0.2138593219983634,0.054979686713344335,0.3393148750983598,-0.043000960783023026,5.0
0.49449635836145933,-0.23230418586641782,-0.2138593219983634,0.0065201957578591785,0.3452910755991392,-0.06651359158049891,5.0
0.46802003572819845,-0.21705069368612231,-0.18492768602117887,-0.03667196215710317,0.2715845595619008,-0.04996766935158103,5.0
0.4301967176806861,-0.2246774230883876,-0.16178236711069877,-0.04826009934336589,0.1447562217007442,-0.03690509078553477,5.0
0.437761381290189,-0.2475576780467134,-0.16178236711069877,-0.06195517392172799,0.18459757996975296,-0.08044699809620749,5.0
0.47180236753295274,-0.2704378996292744,-0.15888919591643091,-0.06564230994109488,0.30544971733013027,-0.10395961827227598,5.0
0.49449635836145933,-0.23230418586641782,-0.12995753461741483,-0.07986411645831436,0.30345767209368424,-0.06825526872263839,5.0
0.5171903491899683,-0.110276248424053,-0.0923463850574267,-0.09039878856227858,0.3280264891756166,-0.014263309180536055,5.0
0.5398840751863956,-0.018755278654396905,-0.0836668967964544,-0.1135750669500831,0.29216925377522074,0.05017870259299589,5.0
0.48314936294720606,0.004124959616046508,-0.04316260136402997,-0.21102078280755035,0.08565819937604648,0.11723323007973707,5.0
0.4453260448996916,-0.04926226301498811,-0.03158992924787392,-0.2310366599255407,-0.1367894112890193,0.17993356471112953,5.0
0.46423770392344776,-0.1712902171452354,-0.060521577885974315,-0.22050198099560206,-0.2543214408595994,0.19125445551362888,5.0
0.49449635836145933,-0.23230418586641782,-0.12127804635644254,-0.23050991955459724,-0.15338998263372636,0.21302540916896526,5.0
0.5096256855804663,-0.2551844074489788,-0.14442336526692287,-0.22892972413955298,-0.05976277936305366,0.2156379248821745,5.0
0.5020610219709613,-0.2551844074489788,-0.15599602472216278,-0.20101284424855514,-0.05312255163506386,0.19735032551111711,5.0
0.5285373446042246,-0.2551844074489788,-0.1357438770059506,-0.13464441196106736,0.018591902967867984,0.12245825619545186,5.0
0.5361020082137266,-0.21705069368612231,-0.11549172928973833,-0.11146813116409537,0.1328038126002556,0.07194965292914243,5.0
0.49449635836145933,-0.17891694654750076,-0.11549172928973833,-0.11673546741684146,0.11155508711026021,0.09807479213760995,5.0
0.48314936294720606,-0.12552974060434857,-0.0836668967964544,-0.1478127477745976,0.061089357997323714,0.1259416104797309,5.0
0.49827869016621,-0.186543709325531,-0.09523955625169454,-0.20786037912856875,0.051129018430071525,0.1503250745375728,5.0
0.49449635836145933,-0.21705069368612231,-0.08945323918499039,-0.22576932046057138,-0.07769139706325169,0.17383769471364127,5.0
0.5020610219709613,-0.20179720150582658,-0.1039190698344982,-0.19574550478358582,-0.11089253165373567,0.21476708631110475,5.0
0.5096256855804663,-0.20179720150582658,-0.10681221570693451,-0.16730189094609108,-0.0637469184295266,0.174708533284711,5.0
0.5247550127994709,-0.23230418586641782,-0.12417121755071045,-0.14623255235955335,-0.05909875618530819,0.20170451836646588,5.0
0.5247550127994709,-0.2246774230883876,-0.12127804635644254,-0.11252159905708924,-0.006640961588600268,0.17819188756899004,5.0
0.5171903491899683,-0.23230418586641782,-0.08945323918499039,-0.08723838689093652,0.055113153447079385,0.14422920454008453,5.0
0.49071402655670804,-0.2551844074489788,-0.0836668967964544,-0.0951393908685277,0.011951675682788416,0.17819188756899004,5.0
0.4793670311424553,-0.23993091526868315,-0.07498740853548236,-0.11094139882371007,0.018591902967867984,0.1886419398004196,5.0
0.48693169475195736,-0.23230418586641782,-0.08077372560218654,-0.1193691371493261,-0.05976277936305366,0.1947378097979079,5.0
