acc_x,acc_y,acc_z,gyro_x,gyro_y,gyro_z,activity
-0.6182824801663199,0.21353957558269743,1.732283453424104,-0.09261962443597338,-0.09141680056874553,0.05367270139332535,0.0
-0.6321488503430867,0.21353957558269743,1.7382462634040077,-0.09075745626560847,-0.09011834757943485,0.06229346766125764,0.0
-0.6425486279756616,0.2266594241734268,1.7352648584140558,-0.04932422565375998,-0.10894595749647391,0.11315599190321074,0.0
-0.6460152205198532,0.2266594241734268,1.7233392384542487,-0.030702548208690207,-0.12647511838344364,0.11832845000464311,0.0
-0.656414876790135,0.2266594241734268,1.7084323178808025,-0.02185725170618737,-0.1524442415175189,0.13125959788686087,0.0
-0.6252156652547033,0.2266594241734268,1.7293020484341524,-0.05072085231385609,-0.09401371446584957,0.07263838723206333,0.0
-0.6113492950779369,0.24633919638669605,1.7293020484341524,-0.0912229984856405,-0.06739536285749834,0.026086247233032517,0.0
-0.6148158876221285,0.24633919638669605,1.7352648584140558,-0.13731164845875643,-0.06220153902253155,0.05194854825474175,0.0
-0.6252156652547033,0.18729987929833847,1.7054509128908506,-0.13358731353755304,-0.07518610058956918,0.07091423409347973,0.0
-0.6425486279756616,0.18729987929833847,1.7203578334642968,-0.10565479772483001,-0.02974013819809478,0.08643161365505052,0.0
-0.6425486279756616,0.18729987929833847,1.7203578334642968,-0.09029191475533965,-0.02519554197131997,0.08212123015143233,0.0
-0.6217490727105118,0.20697965196015758,1.7352648584140558,-0.08517095388380341,-0.0420754711671301,0.08556953642859952,0.0
-0.6217490727105118,0.22009950010233706,1.7352648584140558,-0.10565479772483001,-0.05765694366184078,0.07867292387426512,0.0
-0.6321488503430867,0.22009950010233706,1.7203578334642968,-0.11636226133305293,-0.0888198906308828,0.07953500110071614,0.0
-0.6113492950779369,0.20041972654341816,1.714395127860706,-0.13125960243739287,-0.07583532906384519,0.05539685453190894,0.0
-0.6356154428872782,0.22009950010233706,1.7233392384542487,-0.11822442879365462,-0.060903084053600176,0.04850024066325613,0.0
-0.6182824801663199,0.22009950010233706,1.7412276683939594,-0.07027361135993701,0.004668948296622614,0.00712056139429454,0.0
-0.5974829249011702,0.2397792723156063,1.747190478373863,-0.027443758346571805,0.06309946940942991,-0.004086432035021199,0.0
-0.6182824801663199,0.25289912090633565,1.756134693343718,-0.04141001359132121,0.009213545636934042,-0.05236273042990928,0.0
-0.6148158876221285,0.22009950010233706,1.7382462634040077,-0.07958445008247189,-0.05895540061039281,0.00022394883996016456,0.0
-0.6148158876221285,0.22009950010233706,1.7382462634040077,-0.08842974658497474,-0.1316689382591691,0.04074155219678916,0.0
-0.6009495174453617,0.22009950010233706,1.7412276683939594,-0.08796420578446916,-0.10569981512509385,0.026948324459483544,0.0
-0.6009495174453617,0.2266594241734268,1.714395127860706,-0.09448179189657506,-0.03558319038361128,0.04074155219678916,0.0
-0.5974829249011702,0.20697965196015758,1.7054509128908506,-0.12101768069432037,-0.09466294294012559,0.057983084239784335,0.0
-0.6148158876221285,0.20697965196015758,1.7203578334642968,-0.13824273005976756,-0.09076757605371084,0.08039707701284872,0.0
-0.6148158876221285,0.20697965196015758,1.7203578334642968,-0.12427647481501816,-0.08297683832164,0.06919008095489614,0.0
-0.6217490727105118,0.22009950010233706,1.7263206434442004,-0.05816952215626283,-0.0362324188578873,0.06487969761556774,0.0
-0.6182824801663199,0.20697965196015758,1.7620975033236217,-0.06329048373756231,-0.018054033455882895,0.05194854825474175,0.0
-0.6252156652547033,0.21353957558269743,1.7412276683939594,-0.04327218247144935,-0.0362324188578873,0.06143139100982094,0.0
-0.6252156652547033,0.2266594241734268,1.7382462634040077,-0.034892428188978544,-0.03818010230109468,0.043327781247505345,0.0
-0.6148158876221285,0.2266594241734268,1.747190478373863,-0.04653097801167361,-0.05700771518756475,0.020913789131600163,0.0
-0.6113492950779369,0.2266594241734268,1.747190478373863,-0.04653097801167361,-0.03753087481662899,0.023500018182316357,0.0
-0.6217490727105118,0.2397792723156063,1.7173765328506578,-0.030702548208690207,0.004668948296622614,-0.010983049846629272,0.0
-0.6182824801663199,0.2594590445288755,1.714395127860706,-0.02558158946644365,0.050764136316668304,-0.00581058648792322,0.0
-0.6113492950779369,0.24633919638669605,1.747190478373863,-0.05304856341401627,0.09231473491488522,-0.00581058648792322,0.0
-0.5905498611750801,0.2594590445288755,1.747190478373863,-0.09215408221594135,-0.022598629806383996,0.001948103292862195,0.0
-0.5593505282773554,0.2397792723156063,1.768060313303525,-0.07260132246009719,-0.02454631374449654,-0.00667266371437422,0.0
-0.5593505282773554,0.2397792723156063,1.768060313303525,-0.05351410563404831,-0.0213001738476423,0.02177586372941433,0.0
-0.4865522062116242,0.3316182097594126,1.8247067993599837,-0.023253878366283478,-0.008964841744691025,-0.08167333510014885,0.0
-0.3998876353314196,0.31193843889179307,1.872409279199212,-0.044203266911513425,-0.07648455753812118,-0.11701848035554549,0.0
-0.37562148752207825,0.29881859164671326,1.91116733531596,-0.18619354749348518,-0.29787131681507145,-0.141156621667079,0.0
-0.3929544502430362,0.2791388171906946,1.949925600185333,-0.3165452839308677,-0.4160308199484794,-0.0937424057559156,0.0
-0.4206871905965694,0.2660189699456149,1.887316304148971,-0.423154378502828,-0.5828824348971403,-0.03684535086833849,0.0
-0.5350845018303072,0.2397792723156063,1.785948743243236,-0.46225990227309566,-0.6698790029392304,0.012293019495726924,0.0
-0.7742787805680643,0.2397792723156063,1.6607299424178865,-0.41896450420064557,-0.5757409137616217,0.24591579014573978,0.0
-1.0724051325570796,0.2922586644357744,1.466939035576272,-0.4036016166176942,-0.4251200027513783,0.3631582088266981,0.0
-1.204135406511775,0.32505828613687276,1.3476830447308261,-0.3263216648734346,-0.1647795666917978,0.30970946284492495,0.0
-1.4329300289792508,0.4300170712743087,1.115133977396151,-0.11636226133305293,0.4331594542737955,0.002810180519313186,0.0
-1.4051973493068644,0.2725788935681548,1.0942641424664887,0.2854003920688287,1.2343068372366106,-0.30839949845310105,0.0
-1.4051973493068644,0.2725788935681548,1.0942641424664887,0.45439213276887025,1.5920314494158014,-0.3437446542230449,0.0
-1.1521365790300473,0.2856987408132345,1.2582411037848984,0.750476780297435,2.6067748658012206,-0.5170220400505819,0.0
-0.805478113465789,0.2594590445288755,1.4937715761095254,0.765839645167963,2.738568317345595,-0.46357327303971413,0.0
-0.45188640213200104,0.2594590445288755,1.81874398938008,0.6615582787304803,2.33864364053943,-0.13770831276127493,0.0
-0.16415982777556065,0.2791388171906946,2.1884373731236004,0.33567892911986524,1.5361979114868214,0.002810180519313186,0.0
0.1408997093018377,0.36441783504891,2.5104284857805146,-0.2369376154083421,0.22280957114105487,0.31229570503882537,0.0
0.3038290734296723,0.35129798062703216,2.737014847511598,-0.48739917079861406,-0.28034215592810185,0.3485029064915782,0.0
0.3142288510622472,0.3578579114263702,2.698256582642227,-0.6009914043491608,-0.7289587386689691,0.35539952430318644,0.0
0.3142288510622472,0.3578579114263702,2.698256582642227,-0.6773402602971446,-1.0431850985010456,0.2579848713160539,0.0
0.20329813237270097,0.25289912090633565,2.5253355107302737,-0.5255736214850293,-1.4554448708454906,0.03212078518955277,0.0
-0.22309177966452545,0.14138041035216037,2.221232828013069,-0.2760431391786097,-1.8203110675080612,0.010568870300098591,0.0
-0.3894878576988447,0.14138041035216037,2.0811072109905853,-0.08144661896260005,-2.080651519404607,-0.04719026707120324,0.0
-0.7916117432890225,0.2791388171906946,1.714395127860706,0.005144180021353208,-2.05533163266329,-0.15236361509639473,0.0
-1.013473180668115,0.3840976059165297,1.48482736113967,-0.012080876441726304,-1.6138565868949073,-0.29029588721217714,0.0
-1.1382702695344273,0.3381781333819525,1.3953854201937421,0.012592844185654102,-1.3879251728686464,-0.2402954291071135,0.0
-1.1729361342951972,0.32505828613687276,1.362590069680585,0.06100920100035084,-1.0146190773068313,-0.09719071466171965,0.0
-1.1694695417510057,0.3381781333819525,1.3894226102138385,0.029352352750595723,-0.3868155465245415,0.14246659657345032,0.0
-1.0377392677963098,0.3381781333819525,1.4251993657169473,-0.03442688596894652,-0.032337050486757044,0.30195077832141326,0.0
-0.9233420172437183,0.36441783504891,1.4729017411798628,-0.08330878642320172,0.14684989508013976,0.3760893777380106,0.0
-0.9233420172437183,0.36441783504891,1.4729017411798628,-0.10006829481070253,0.3104553439019729,0.41660697583756584,0.0
-0.7153468286790995,0.31193843889179307,1.601101946995164,-0.205280767158587,0.3870642563556464,0.5372977034243283,0.0
-0.5940163323569786,0.2397792723156063,1.6637113474078384,-0.17874487765107844,0.4084887880882722,0.5760911681000763,0.0
-0.5524173431889724,0.22009950010233706,1.7084323178808025,-0.07213578024006516,0.4026457397382708,0.5691945502884683,0.0
-0.5177515391093489,0.22009950010233706,1.7263206434442004,0.0465774092136752,0.2890308438432775,0.5950568460529038,0.0
-0.48308561366743236,0.22009950010233706,1.756134693343718,0.13596145867876777,0.2968215538606592,0.5864360527592988,0.0
-0.45881958722038413,0.20041972654341816,1.7770045282733804,0.16156626374621227,0.25527096318092496,0.5571254480890592,0.0
-0.4969519838441991,0.18729987929833847,1.782967338253284,0.207654903782643,-0.017404804981606882,0.6269536929170435,0.0
-0.5801500835425053,0.2725788935681548,1.7919115532231393,0.18530889993352861,-0.19204714677442508,0.8054035210741918,0.0
-0.5212181316535407,0.31193843889179307,1.7620975033236217,0.04471524033354708,-0.3731817564832278,0.9959224934889387,0.0
-0.47268595739715086,0.2791388171906946,1.7591160983336698,-0.026047131686475686,-0.049216979435114584,0.9726463978602139,0.0
-0.48308561366743236,0.19385980292087832,1.756134693343718,0.01911043526610261,0.07478557402791551,0.8028172788802914,0.0
-0.5281513167419238,0.2922586644357744,1.6994881029109472,0.0158516454039842,0.00661663173982998,0.7217821247393705,0.0
-0.5281513167419238,0.2922586644357744,1.6994881029109472,-0.10565479772483001,-0.27449910757810025,0.8123001388858001,0.0
-0.6772144320552848,0.2856987408132345,1.702469507900899,-0.10379263008678752,-0.47770750124925265,0.7467823117337127,0.0
-0.6321488503430867,0.2791388171906946,1.7203578334642968,0.035404395932906355,-0.40109858879557897,0.6666091822465059,0.0
-0.5732168984541219,0.20697965196015758,1.6845810779611883,0.19648189050187403,-0.19853943151718528,0.6407468864820705,0.0
-0.5524173431889724,0.20697965196015758,1.642841512478176,0.2565368084954776,-0.2602160969809932,0.680402417869722,0.0
-0.5524173431889724,0.20697965196015758,1.6338972975083208,0.18763660535558285,-0.3861663259687481,0.7847136676393678,0.0
-0.5905498611750801,0.2725788935681548,1.642841512478176,0.1783257609549422,-0.3699356220303303,0.9700601556663137,0.0
-0.5697503059099304,0.16106018121977994,1.66669275239779,0.2383806789485457,-0.30566205850638356,0.7467823117337127,0.0
-0.4900187987558157,0.18073995567579862,1.642841512478176,0.330557959021407,0.128022277244618,0.46057288284292525,0.0
-0.469219364852959,0.1741800320532587,1.6517857274480312,0.42273528451911513,0.543528247389822,0.33643384635035883,0.0
-0.4761525499413424,0.18073995567579862,1.6577485374279348,0.4436846333176042,0.7564749969087706,0.2898816971510991,0.0
-0.4380200319552343,0.16106018121977994,1.6398601074882244,0.44554682491015574,0.657143143284815,0.47350400969604817,0.0
-0.43455343941104274,0.18073995567579862,1.6488043224580797,0.45765091127477686,0.27474780157224005,0.7381615604982975,0.0
-0.5142849465651573,0.14138041035216037,1.6756368629913332,0.49535980270684277,0.1845051149142179,0.9985087356828388,0.0
-0.5281513167419238,0.18729987929833847,1.7054509128908506,0.5358619588153123,0.5493712640658927,1.1191994212114116,0.0
-0.4934853913000073,0.2397792723156063,1.7203578334642968,0.5186369023522327,0.875283720597972,1.3183391448615738,0.0
-0.5177515391093489,0.2922586644357744,1.6965066979209953,0.5116537860860697,1.1116027902126493,1.4148917101077076,0.0
-0.6286822577988949,0.39721745316160934,1.6994881029109472,0.5996412145691721,1.0272031043937326,1.4821337547999813,0.0
-0.6598814693343265,0.4496968421419283,1.7203578334642968,0.7276652399063944,1.0323969321879407,1.4226504366894093,0.0
-0.6702812469669014,0.4693766130095478,1.6994881029109472,0.7407003539300213,0.668829239984818,1.4312711879248243,0.0
-0.7153468286790995,0.4890563838771674,1.6249530825384655,0.7081124780212605,0.2624124843164437,1.339891107066491,0.0
-0.7396129764884412,0.5021762311222471,1.5504181665422962,0.573570850247378,-0.05635848869290943,1.5079960085062272,0.0
-0.843610510089604,0.4103373004066891,1.508678601059284,0.4320461062073326,-0.5679502037442401,2.5062807848345585,0.0
-0.6356154428872782,0.5874552525688617,1.5712878970956463,0.783530260885392,0.20138503940842906,1.8674819911308034,0.0
-0.6252156652547033,0.6202548563279646,1.6488043224580797,1.0763560844832034,0.8902160150987334,1.5666172178467064,0.0
-0.7396129764884412,0.5415357728574863,1.6577485374279348,1.1638779537119561,0.5201559906419548,2.19507104277486,0.0
-0.8921426843459936,1.0597697533917316,1.8694278742092603,1.0423715762362407,-0.30566205850638356,2.8054213405784694,0.0
-1.013473180668115,0.8957717058890238,1.785948743243236,0.950659809992882,-0.37253253592743446,3.7433608582588938,0.0
-0.8540102877221789,0.6399346415491804,1.6935252929310436,1.0353884145452308,-0.4348584377840011,4.292503536295365,0.0
-0.7534793466652075,0.30537851526925314,1.5474367615523448,1.1666712183883599,-0.8834750046879031,4.60974778739658,0.0
-0.6009495174453617,0.18073995567579862,1.4073110401535491,1.0270087113657127,-0.8341336723168568,4.343366019054144,0.0
-0.5350845018303072,0.30537851526925314,1.365571474670537,0.42273528451911513,-0.6406637295152925,3.9692247761526374,0.0
-0.562817120821547,0.4168972240292289,1.452032010626513,-0.22855786680397713,-0.5348395436376808,3.930431311476888,0.0
-0.5454841581005887,0.5415357728574863,1.6905438879410917,-0.3286493702954891,-0.025844769950690818,3.708015492198002,0.0
-0.6425486279756616,0.3578579114263702,1.6279344875284172,-0.040478929151257136,0.5980634075550765,3.3588746465817865,0.0
-0.7326797914000578,0.18729987929833847,1.3357574247710193,-0.353323102279081,0.2877323710577604,3.585600589129244,0.0
-0.649481813064045,0.16106018121977994,1.3238319091875246,-1.3304955918565766,-0.23879156524836745,4.083881120872453,0.0
-0.469219364852959,0.34473805700449234,1.642841512478176,-1.5241609736905168,0.14879757258448517,3.6252564149242223,0.0
-0.45535299467619256,0.4168972240292289,1.7740231232834287,-1.2760272032157813,0.7973763670327115,2.832145787171188,0.0
-0.7257466063116744,0.2594590445288755,1.9618512201451401,-0.9031280950600361,1.9900083061849316,2.1795537578442157,0.0
-0.8158778910983641,0.0036220071020251084,1.9886838650547058,-0.054445187235059464,2.6256026103324634,2.4088661108183316,0.0
-0.8574768802663706,-0.8688479351709504,2.0870700209704887,0.9879031875954449,1.6115083828289083,3.135596802649184,0.0
-0.750012754121016,-2.22019217270697,1.2254457532717413,1.451582943485849,2.7911556574738166,3.123527784566156,0.0
-0.43108684686685095,-1.78067724693601,1.5951391370152603,1.7830487770244254,3.744871644788185,1.2269590640032404,0.0
-1.020406365756498,-0.06853716709950965,1.768060313303525,1.263038395475827,3.7442224559063226,2.2614509786970407,0.0
-1.0516056379730763,0.20697965196015758,1.6219716775485138,-0.3724103049098653,2.3912312340590978,3.0580098732976895,0.0
-1.0446724528846927,-0.19973563955030685,1.7054509128908506,-4.012947989906242,4.817396545835341,3.623532029151277,0.0
-1.1937356288792005,-1.0197261641357709,1.848558039279598,-5.248961703984893,2.164650631150974,5.198546291228028,0.0
-1.4259968438908674,-1.5904395049431426,2.0065720862417917,-4.816007677835544,-1.6521610114478136,7.69684413777724,0.0
-1.5750599895448016,-1.8134769368166903,2.3196189839288524,-2.9282353553853566,-3.3304155009452563,8.899441206259915,0.0
-1.543860747668797,-1.5051605409109132,2.4209865448345873,0.23744958315226986,-0.26086531753678655,7.514946168947048,0.0
-1.6131924468497632,-1.1181250041202728,2.3136561739489494,2.0758746006222357,3.090449722805131,6.097692175999946,0.0
-1.696390485866923,-1.3280425600415482,2.0811072109905853,2.454360238130789,3.1962740987263274,5.209753284657345,0.0
-1.6027926692171885,-1.5182804168631852,1.8962603103662012,1.3417149568458653,0.7525796735740105,3.8493962835105364,0.0
-1.4849287957798323,-1.3280425600415482,1.9379999802255257,0.366404704285768,-0.8088137855755401,3.2459426876349156,0.0
-1.301199755024555,-1.0656456151399536,2.236139852962826,0.17087708543442964,-1.8319972275559253,3.057147848643977,0.0
-1.1452034546228107,-1.2886830470135016,2.567075180589599,0.5330686941389084,-1.5041370776825354,2.7364551624623883,0.0
-1.2630673584007401,-1.4067617009264113,2.7250892275517926,1.0605277057831726,0.04167494559528677,2.495935816058957,0.0
-1.4017307567626727,-1.3936418249741394,2.671424146485286,1.1852929526144882,1.0512245500234625,2.900249940633555,0.0
-1.419063658802484,-1.2099639061286382,2.468689024673816,1.068441895133188,1.4543951712389396,2.8485252649883046,0.0
-1.408663941851056,-1.0328460400880435,2.1586235319767053,0.4758070408217088,1.1466610169647968,2.3338654236607357,0.0
-1.408663941851056,-1.0328460400880435,2.1586235319767053,-0.17315837668879985,0.31629839225197426,1.9485171873299139,0.0
-1.5230612530847938,-0.8557280592186779,1.899241715356153,-0.4836748330383577,-0.3582495253303274,1.6873079033752791,0.0
-1.5958595144693786,-0.8229284841667677,1.857502254249453,-0.3412189932020364,-0.7932323021929159,1.539892771253988,0.0
-1.6270587866859565,-0.8360482452902699,1.9350185752355742,0.020507056248092875,-1.0724003719249833,1.3890294564014618,0.0
-1.6201256015975734,-1.006606288183499,2.0811072109905853,0.028421268310531652,-1.0237082917836609,1.12868228121692,0.0
-1.6201256015975734,-1.006606288183499,2.0811072109905853,-0.3104932407485571,-1.0217605984423503,1.0743714474941488,0.0
-1.6859907385749213,-1.1902842070289996,2.1973815880934544,-0.45760449142898707,-0.7718078021342206,1.4054088501021993,0.0
-1.7067902331589246,-1.1640444551244553,2.2063258030633093,-0.3286493702954891,-0.39720320211295773,2.0286903588753105,0.0
-1.6929238933227313,-1.0459658012115456,2.1973815880934544,-0.3672893575238306,-0.4484922278253148,2.3864521239597,0.0
-1.6929238933227313,-1.0459658012115456,2.1973815880934544,-0.5283668407365866,-0.5309441886289898,2.3692106214888695,0.0
-1.543860747668797,-0.9606868371793159,2.2301770429829233,-1.055360293126501,-0.21866549046429368,2.245071500879924,0.0
-1.4155970662582926,-1.1771643310767277,2.1586235319767053,-1.4845899360907466,-0.5731440315384483,2.6623166681912656,0.0
-1.3497319899620912,-1.2230837820809104,2.0304233261614058,-1.5125224920050921,-1.18276919671494,3.1873213100616784,0.0
-1.2804002604405516,-1.1050051281680002,1.91116733531596,-1.3840328619886733,-2.2299739576293334,3.1562864037348732,0.0
-1.1001378122294658,-1.085325429068362,1.782967338253284,-1.5232299460315113,-3.052545935672636,2.727834411226973,0.0
-1.0273395508448813,-1.1902842070289996,1.7770045282733804,-1.7336549159238754,-3.317430963133665,2.519211995804061,0.0
-0.9753407840442999,-1.4789207890063687,1.7412276683939594,-1.7625184086475327,-3.196674482755292,2.776110820024609,0.0
-1.013473180668115,-1.5641998678673683,1.702469507900899,-1.5455758817433554,-2.1235005195219974,3.993363148784212,0.0
-0.9961402179471565,-1.5904395049431426,1.6219716775485138,-1.0683954979998214,-1.420386644093343,4.373538900727236,0.0
-1.2561341733123568,-1.8134769368166903,1.4758831461698145,-0.1559333259038262,-1.1704338477852134,5.189925371759855,0.0
-1.3254658421527497,-1.879076316578052,1.4579948206064166,0.608020963173537,-1.3768883283983673,5.377858186097081,0.0
-1.464129301195829,-1.9381155287057363,1.5176228160291396,0.8868805088141756,-1.143166267702586,5.120097337222816,0.0
-1.6097258543055717,-2.023394492737966,1.613027566954971,0.6359534736630359,-0.6114484560913545,4.396814912239582,0.0
-1.727589758083501,-2.128353270698604,1.6488043224580797,0.2397772885743243,-0.10569981512509385,3.342495168764669,0.0
-1.8246541369368539,-2.1742728365315567,1.6279344875284172,-0.17036512336860762,0.4545839860064213,1.780412285890178,0.0
-1.897452428662012,-2.272671676516058,1.5384925465824895,-0.30676890298830073,0.31694764448169827,0.651953879911386,0.0
-1.8731863263635302,-2.4497895425566534,1.4758831461698145,-0.36030621854524414,0.13126841169751544,-0.09805279188817065,0.0
-1.7865217099724657,-2.620347700278652,1.452032010626513,-0.34075345666011025,-0.0011741040126201868,-0.4489179707045943,0.0
-1.6929238933227313,-2.731866416215426,1.5176228160291396,-0.27790530805873787,0.26176326376065034,-0.42650398384596294,0.0
-1.6582580589025346,-2.8302652561999277,1.553399571532248,-0.14382923386109908,0.29812002664617654,-0.31012363187690833,0.0
-1.6027926692171885,-2.87618459237534,1.613027566954971,-0.10565479772483001,0.47016546938904574,-0.33253761873553966,0.0
-1.6201256015975734,-2.8433851321522,1.6488043224580797,-0.2057463037005132,0.7214167068087618,-0.4196073660343548,0.0
-1.60625926176138,-2.7515460004862944,1.6607299424178865,-0.3472710590967704,0.9622802886400619,-0.6713337899834813,0.0
-1.5681268347969919,-2.6662670364540646,1.6756368629913332,-0.41617126223666495,1.0505753611415998,-0.9359912566693512,0.0
-1.5473273098724152,-2.6072278243263796,1.6965066979209953,-0.4403794349659076,1.1369226769539658,-1.263580392429787,0.0
-1.5057282903638356,-2.508828984341878,1.756134693343718,-0.4371206337475776,0.9415050408110907,-1.9972077020722485,0.0
-1.4294634364350591,-2.48914917041347,1.8396138243097426,-0.6321826933445663,1.0531722433647732,-2.5006603817377426,0.0
-1.4294634364350591,-2.48914917041347,1.8396138243097426,-0.8165372989151358,1.0557691255879467,-2.861870413669746,0.0
-1.356665114369328,-2.48914917041347,1.8664464692193083,-0.8421421039825803,1.105759710188717,-3.1144591146217238,0.0
-1.356665114369328,-2.48914917041347,1.8664464692193083,-0.7806905536507749,1.013569314352419,-3.504979835340348,0.0
-1.356665114369328,-2.48914917041347,1.8664464692193083,-0.8705401283015819,0.27929240881065465,-4.1532614049332315,0.0
-1.2734670753521682,-2.574428134445699,1.756134693343718,-1.039997428255973,-0.4043447232484765,-4.6334380730863804,0.0
-1.2596007658565482,-2.7581059384624305,1.8157625843901284,-1.1279848113142286,-0.8873703913705245,-4.769646043545597,0.0
-1.266533890263785,-3.027062936168931,1.8932789053762493,-1.287665684901206,-1.268467196949721,-4.6705074884547,0.0
-1.3150661252013216,-3.118901838177297,1.9230929552757672,-1.5600077189548778,-0.9873514972242041,-4.430850166704983,0.0
-1.3150661252013216,-3.118901838177297,1.9230929552757672,-1.76810493800034,-0.5108181296818814,-4.0661915314598485,0.0
-1.3150661252013216,-3.118901838177297,1.9230929552757672,-1.7094467431946325,-0.38876323986585226,-3.8851555872833683,0.0
-1.4987951052754522,-2.5875480103979718,1.3476830447308261,-1.567921908304893,-0.6958480785624097,-3.9101556481031414,0.0
-1.4987951052754522,-2.5875480103979718,1.3476830447308261,-1.4054477700415118,-0.8945119125060432,-3.6679122523922825,0.0
-1.4987951052754522,-2.5875480103979718,1.3476830447308261,-1.0963279630644736,-0.988649938335791,-3.019630682799398,0.0
-1.5785265820889938,-3.3156995181462996,1.5742693020855978,-0.8905584948659121,-0.8555582357234132,-2.392900907178672,0.0
-1.5750599895448016,-3.3812988979076612,1.613027566954971,-1.0521015146205943,-0.6542975195566061,-2.4885913636547126,0.0
-1.5889263293809952,-3.40097848217853,1.6488043224580797,-1.4170863425766302,-0.32903425190638946,-2.9480782624894157,0.0
-1.5889263293809952,-3.40097848217853,1.6488043224580797,-1.8030206556056954,-0.18425640508311292,-3.4515309421549105,0.0
-1.5889263293809952,-3.40097848217853,1.6488043224580797,-1.933372340940125,-0.05116466287832196,-3.9437766283910896,0.0
-1.2492009882239736,-2.9877033083121143,1.2224643482817896,-1.9170784484105916,-0.3998001160100616,-3.960156106208206,0.0
-1.0966712196852744,-2.9811433703359786,1.1687991628389705,-1.822573326641136,-0.5244519197231952,-3.2696326368592015,0.0
-1.0966712196852744,-2.9811433703359786,1.1687991628389705,-1.5101947411581909,-0.39330784710426686,-2.552385057382993,0.0
-0.9788073765884915,-3.0729822723443436,1.2105387283219826,-1.2476291334719327,-0.4062924165897872,-1.9334140083439686,0.0
-0.9788073765884915,-3.0729822723443436,1.2105387283219826,-1.0837583628703493,0.029339612502525154,-1.2954772392939273,0.0
-0.8574768802663706,-3.033622874145067,1.219482943291838,-1.0502393684528895,0.26176326376065034,-0.8316800489578952,0.0
-0.7465461615768245,-2.915544220232157,1.0704130069231872,-1.119139503455514,0.2546217426251316,-0.1506394606434927,0.0
-0.7465461615768245,-2.915544220232157,1.0704130069231872,-0.9375782079861952,-0.37123409481584774,-0.14288077611998104,0.0
-0.6806810245994763,-2.7777857523908387,1.0078036065105125,-1.0921380660498676,-1.3905220550918198,-0.8144384623706855,0.0
-0.6841476171436681,-2.731866416215426,1.0227106314602714,-1.4906419792730567,-1.9137999678038071,-1.5704797588717783,0.0
-0.5697503059099304,-2.8827445303514767,1.0405989570236696,-1.7885888183941725,-2.057279326004601,-1.4196163599028728,0.0
-0.4969519838441991,-2.935224034160566,1.073394411913139,-2.051154426080432,-0.8471182734763076,-0.4980563620977546,0.0
-0.4761525499413424,-2.836825194176064,1.0853199274966336,-2.9040271826561153,-1.5314046577651628,-0.7066789036952356,0.0
-0.31668953563311314,-3.3353793320747087,0.9869337715808503,-3.721053375666824,-2.9473710020247466,-1.9385864927317695,0.0
-0.2473579274738668,-3.191060926257254,0.8468080501820549,-4.156800484793188,-2.4000718337266136,-2.4894533883084273,0.0
0.04036876824486663,-3.3156995181462996,0.6589799533203436,-4.229425002980916,-1.9209414255914647,-2.351521200309024,0.0
0.20676472491689277,-3.7486547355986635,0.35189589170726493,-4.008758002041942,-3.8199335646688217,-1.980828224255132,0.0
0.14436630184602953,-4.076650715775309,0.20878876531851762,-3.6717060025493327,-4.251670017034927,-1.9911731930307337,0.0
0.1547660794786044,-4.083210653751445,0.24456554691570465,-3.5120249472629674,-2.548095767491893,-2.386866229904399,0.0
0.1547660794786044,-3.8142536560449445,-0.02674173941984693,-3.5259910889456005,-2.9428264264602633,-2.402383683067802,0.0
0.09930059877153809,-3.3419392700508443,-0.5455051054005133,-3.6335313247386836,-5.588430756661248,-2.199795608453646,0.0
0.0022362502587585636,-2.856504778446932,-0.6498540712962,-3.75783114859019,-6.416196245759454,-2.372210969627469,0.0
-0.2508243986557653,-2.561308258493427,-0.4053793579076396,-4.152144983099387,-5.1339711730812745,-3.356702510332585,0.0
-0.5593505282773554,-2.5809880724218357,-0.21755124799888942,-4.420297301837839,-3.982889602891276,-3.1023897600731773,0.0
-0.8332107324570289,-2.22019217270697,-0.19071866832451886,-4.251305606562644,-4.0452155364217735,-1.8765168483109176,0.0
-0.5870832686308887,-2.0496342446425104,-0.06251852448265348,-3.151229925471845,-3.3213263498162866,-2.211002601882962,0.0
-0.1884259755849023,-2.2661117385399225,0.17301197067429183,-0.11915551323371869,-0.9931945772481362,-4.231710358938442,0.0
-0.2681573613767235,-2.8696246543992046,0.12530959521137608,0.9515908376518877,-0.42706769609268896,-3.582566764691844,0.0
-0.47961902112324084,-3.0401828121212033,-0.09233251240873556,0.3477830154844866,-0.712728066404482,-1.4678926004677502,0.0
-0.6182824801663199,-2.856504778446932,-0.04164873277130802,-0.5171938274558177,-0.04012778673411239,-0.35667578107616815,0.0
-0.3964210427872278,-1.7478777867128696,-0.19071866832451886,-1.2392493394427209,0.2955231127490725,-1.4644443336201356,0.0
-0.7153468286790995,-1.5838795669670067,-0.2741978253846215,-1.696411447471618,1.8335442834768254,-1.3687537089113366,0.0
-0.45535299467619256,-1.5838795669670067,-0.2712164203946696,-1.9613048060047782,2.6483254881548857,0.2502261867925422,0.0
-0.1364270874220275,-2.3579506405482875,-0.3696025763104529,-0.5991292127566094,-0.7114295619450342,1.5692034600406068,0.0
0.04730195333324972,-2.5022690463657424,-0.3755653862903565,0.06799233997893724,-1.356113017221535,1.159717019310967,0.0
0.491024828091433,-2.075873996547055,-0.524635322659007,0.1485310815853153,-0.37512944982453855,-0.2773647393299594,0.0
0.5360902884413391,-1.8593965026496433,-0.9062543263623332,-0.5753865992817164,-0.6568944017797796,-1.0954754909900513,0.0
0.48409164300305046,-1.5510799919150964,-0.9062543263623332,-1.5795604808400117,-2.4487637871722145,-2.411004434303217,0.0
0.40089366466703796,-1.1837242690528642,-0.6945750417691642,-1.443622266152774,-1.4002605217983732,-3.2317015333026835,0.0
0.3419615914157801,-1.0984451901918644,-0.628984288554694,-1.2811481278893926,-0.6224853639094948,-4.432574216012413,0.0
0.4667586802820939,-1.301802922965774,-0.4441375444947784,-0.7006173599425347,0.19878812551132496,-6.573972658596466,0.0
0.5984889542367885,-1.524840354839322,-0.4113421678875433,0.4762726000760584,2.3659113473177817,-7.767086782957253,0.0
0.8099506139833053,-1.0394059780641796,-0.8347007631679596,0.6457298546056027,2.7885589019463644,-7.370531216731596,0.0
0.7371524132798679,-2.7646658764385665,-0.9599195118051523,-0.8090886233946233,-0.2998190101563822,-6.035174949335596,0.0
0.9174147401286609,-2.010274616785694,-0.5753191031118748,-0.35192646994087917,0.7298566690558672,-1.6885842022064506,0.0
0.5811559915158286,-1.196844145005136,-0.7214076344905737,1.8347239009888179,-1.31456239486787,0.46833156736643705,0.0
0.3835607019460797,-1.3608422499222292,-0.8913473536007305,0.39992369870322786,-0.7516817431871123,-0.8678872714397429,0.0
0.366227739225122,-0.9738067131315883,-0.9778079417448631,-0.1820036731913027,-1.2483412013504738,-2.0946223760884757,0.0
0.4320927548401765,-1.1115650661441365,-0.8973101635806342,-0.4669153131172044,-1.1308309187728591,-3.3799785218449308,0.0
0.22756428018204258,-0.8754078731470865,-0.9181799463221402,0.0032820111412250417,0.39485499804695867,-3.096355251031663,0.0
-0.08442832062144605,-0.30469441751094495,-0.876440380839128,0.09499376602837185,0.7071336645377243,-3.505841859994061,0.0
-0.08442832062144605,-0.30469441751094495,-0.876440380839128,-0.10798250705058211,0.5045745706071916,-4.754990951501427,0.0
0.1963649472843176,-0.9147673861751331,-0.9390497812518025,-0.7481026323171674,0.2831877638193455,-4.669645127335471,0.0
0.6054221393251711,-0.8229284841667677,-1.0016590772881648,-0.31607974738894146,2.199708857903123,-1.1825451962306766,0.0
1.0491450140833578,-1.3674020730695948,-0.8674961658692727,0.1974129862981498,2.904121364486946,-1.1920280562361851,0.0
0.5880891766042144,-0.5998909948788349,-0.8674961658692727,0.01864488736796473,2.6794885816158556,-1.9334140083439686,0.0
0.30729566597386326,-0.5474116058985159,-0.6081145058131879,-0.1736239189088319,1.0979689368234744,-2.5351435549121626,0.0
0.06463491605420799,-0.016057778119190725,-0.5067469449074529,-0.2122638947809617,0.5707958274724491,-3.547221398630952,0.0
0.14783289439022107,-0.1538161598389316,-0.37258398130040454,-0.3007168598059901,0.059204106482256484,-3.7230851948851473,0.0
0.3800941094018884,-0.12757646534877212,-0.3368071997032178,-0.09960275294555211,-0.8451705801349969,-3.827396234363844,0.0
0.491024828091433,0.06922124332742377,-0.3785467912803082,0.0698544975028537,-1.6255426202470489,-3.1894596335465613,0.0
0.491024828091433,0.4168972240292289,-0.5127097026992,-0.06794590309882975,-1.5554260400470312,-2.18600237283043,0.0
0.4979580131798183,0.5612155580787022,-0.730351849460429,-0.12893189417628562,-1.4048050973628574,-1.350650181786792,0.0
0.6019555467809795,0.5874552525688617,-0.8317193581780076,-0.215988232541218,-1.1736799188902496,0.35195121539738233,0.0
0.5638230287948726,0.39721745316160934,-0.7482402272119832,-0.18945234303370942,-0.6672820573681959,0.3631582088266981,0.0
0.44942571756113453,0.24633919638669605,-0.85258919310767,-0.1969010128761162,0.01310891252334879,0.16746681511143482,0.0
0.2344974652704254,0.5480957108336225,-0.4709701372161879,0.035404395932906355,-0.3978524226687511,0.1597081305879231,0.0
0.34889477650416345,0.35129798062703216,-0.7989240076648508,0.15085878700736952,-1.6696901248238873,0.0976386097130031,0.0
0.5742228064274466,0.2791388171906946,-0.9778079417448631,-0.1591921157659446,-1.066557291901051,-0.023914197728847023,0.0
0.5742228064274466,0.2791388171906946,-0.9778079417448631,-0.21040172590083356,0.01765350788403956,-0.18512252867243834,0.0
0.3384949988715883,0.32505828613687276,-1.043398642771177,0.3380066345419196,6.728723653755255,-0.6454714521608558,0.0
0.005702842802950105,0.7580132954620904,-0.33382579471326607,-0.39894620577358547,3.7831760693410916,0.37695144444991424,0.0
0.005702842802950105,0.7580132954620904,-0.33382579471326607,-0.20015980841634043,-1.833295605319651,-0.5618500137678448,0.0
-0.11216106097497922,0.4759365366320877,-0.8674961658692727,0.2379151424066195,0.8123086615334733,-0.37822770122289584,0.0
-0.38255467261046133,0.6268147943041007,-0.751221632201935,0.19368864853789358,2.3775975073656452,2.767490068789193,0.0
-0.38255467261046133,0.6268147943041007,-0.751221632201935,-0.5777143047037706,3.770191531529501,7.3528754400833085,0.0
1.3854037626961866,-0.19973563955030685,-0.5007841349275493,-0.29932022746778814,1.9198917259849138,0.29246793934499954,0.0
0.9035483699518952,0.2397792723156063,-0.5574307253603203,-0.006494369801341857,0.8259424515747866,0.3743652232851085,0.0
0.9035483699518952,0.2397792723156063,-0.5574307253603203,-0.3589095862070421,1.3505186153547775,0.6528159886814793,0.0
0.34542818395997166,0.14138041035216037,-0.4888585149677422,-0.15407115702369803,1.1090059079894758,-0.6092642296790083,0.0
0.16516585711117932,0.14794033397470024,-0.4590445433504591,-0.30816553532650265,0.9428034819226775,-1.4135816826285994,0.0
0.25876361307976675,0.10858078506266292,-0.4590445433504591,-0.3207351582330502,0.9979878309697948,-1.4627201160799492,0.0
0.5152909759007777,0.10858078506266292,-0.43817476060895283,-0.35797851312318973,0.5656019996782411,-0.21357106663077427,0.0
0.16863244965537086,0.19385980292087832,-0.3069932019918566,-0.2890783099832951,1.053821432246636,0.5243665345130157,0.0
0.335028406327397,0.4168972240292289,-0.4888585149677422,-0.4468970146901443,2.8391986754289986,1.0148881293835763,0.0
0.25876361307976675,0.6202548563279646,-0.4769329471960915,-0.7164457840674123,2.974238071382688,1.2329935730447554,0.0
0.41822638466341006,0.20697965196015758,-0.1787930744587899,-0.9310605601246882,1.0434337766582198,0.03729324591962197,0.0
0.18943176219593424,0.2594590445288755,-0.04164873277130802,-0.8118818880710271,0.29617233330486586,0.7002302045926425,0.0
0.7787512810855814,0.0036220071020251084,-0.02674173941984693,-0.5656102183391495,-0.44199995891952004,-0.28081304823576353,0.0
0.7371524132798679,0.049541472459804184,-0.08338831374767912,-0.4464314781482181,-0.7257126042160716,-0.5299532089618945,0.0
1.0179456811856304,0.049541472459804184,-0.13109069247235464,-0.07586011516126852,0.29812002664617654,0.17867381905529794,0.0
0.6816869325728017,-0.009497840143054598,-0.30401182309598296,-0.015805208523876752,0.5500205162956167,0.15108736358068672,0.0
0.6123553244135563,0.01674185434710485,-0.2682350414987959,-0.07865336706193428,0.6850599122493052,0.2528124079573479,0.0
0.511824383356584,-0.009497840143054598,-0.33084441581739243,-0.1712962078086717,0.34486444512011877,0.2235018032871083,0.0
0.45635890264951706,-0.07509707636845324,-0.21158845106602495,-0.17269283446876782,0.31954455837880236,-0.011845121815806605,0.0
0.4944914206356268,-0.12101655607982861,-0.08636971547587112,-0.07632565738130057,0.36044592850274326,-0.11270809422329044,0.0
0.47715845791466793,0.0036220071020251084,-0.05953712601622125,0.06287136988047903,0.44159941652090096,-0.04029364925959515,0.0
0.41475979211921826,0.03642162521472441,-0.09829530934160005,0.03680102827110831,0.3221414722759063,-0.010983049846629272,0.0
0.46329208773790237,0.16106018121977994,-0.14897908979446756,-0.12939743639631765,0.16178212623304014,-0.10753563086458433,0.0
0.5187575684449692,0.2725788935681548,-0.18475587139165436,-0.18945234303370942,-0.09076757605371084,-0.023914197728847023,0.0
0.5152909759007777,0.35129798062703216,-0.19071866832451886,-0.19084896969380555,-0.20892707126863613,-0.016155507948061625,0.0
0.5464900660739137,0.3775376822939898,-0.1609046836601965,-0.21319497922102576,-0.16867493753745388,0.039879474970338155,0.0
0.5395568809855312,0.3578579114263702,-0.16686748059306097,-0.15965765798597664,-0.4445968411426933,0.05970723770694754,0.0
0.5638230287948726,0.3381781333819525,-0.13109069247235464,-0.1796759620911425,-0.9607331693713008,0.020913789131600163,0.0
0.5083577908123919,0.22009950010233706,-0.09531391087516783,-0.2834918033429106,-1.1736799188902496,-0.003224360065843867,0.0
0.5568898437064895,0.049541472459804184,-0.11618370014019345,-0.5441952648614641,-0.8925642191647328,0.06919008095489614,0.0
0.47715845791466793,-0.06853716709950965,-0.4590445433504591,-0.7913980531020408,-1.2996301637149696,0.19763949700812541,0.0
0.6019555467809795,0.0626613197048839,-0.2622722315188925,-0.6331137664284187,-1.4197373285157577,0.039879474970338155,0.0
0.6019555467809795,0.056101396082344004,-0.1281092940059224,-0.33935684703433155,-0.6270299394739788,-0.09201825130301358,0.0
0.7475521909124426,0.5940151618378052,-1.1149522581537066,0.5316720618007065,1.6556558874057468,-0.36271033217587245,0.0
0.4390259399285596,0.4300170712743087,-0.17581166946883814,-0.09680950157720879,0.7986748714921595,-0.15408776954929673,0.0
0.4667586802820939,0.3709777586714499,-0.324881605837489,-0.3323737080557453,1.5790469116042118,0.08039707701284872,0.0
0.48409164300305046,0.2397792723156063,-0.2145698560559767,-0.3347014134777996,1.290789690743176,0.1597081305879231,0.0
0.3627611466809296,0.1741800320532587,0.059718822426347414,-0.21412606366108985,-0.470565980113734,0.07350046445851434,0.0
0.47022527282628546,0.14138041035216037,-0.110220903207329,-0.23600653096827803,-0.0959613959294363,0.008844715847196571,0.0
0.5256905108087656,0.16106018121977994,-0.17581166946883814,-0.2117983582390355,0.05401027868804838,-0.023914197728847023,0.0
0.5083577908123919,0.14794033397470024,-0.19370006026743153,-0.17408946112886392,-0.013509437105381794,-0.03512119641543647,0.0
0.5152909759007777,0.20041972654341816,-0.21158845106602495,-0.12101768069432037,0.03972726017245873,0.008844715847196571,0.0
0.4667586802820939,0.2922586644357744,-0.17283027752592542,-0.07818782484190225,0.008564317162658036,0.12608713978542851,0.0
0.4736918653704764,0.2397792723156063,-0.16984887253597367,-0.05351410563404831,-0.08492451978522673,0.12867337146478153,0.0
0.5048911982682008,0.20041972654341816,-0.14003488787165133,-0.06049723325642301,-0.13037048131061707,0.08729369088150153,0.0
0.5326236958971481,0.20697965196015758,-0.199662857200296,-0.06934252975892585,-0.07973069595025992,0.13125959788686087,0.0
0.5326236958971481,0.2266594241734268,-0.20562565413316047,-0.31840745281099586,-0.3796740570629532,0.6010913550944185,0.0
0.6192885095019389,-0.5670913624125394,-0.24736524571025093,-0.030702548208690207,0.30071694054328046,0.07091423409347973,0.0
0.5083577908123919,0.1151407158620009,-0.24736524571025093,0.007471885443407546,0.1799605235127685,0.09505238066228694,0.0
0.511824383356584,0.20697965196015758,-0.20860705912311223,-0.04280664025141732,0.141006830893173,0.13470790679266492,0.0
0.5152909759007777,0.24633919638669605,-0.20264426219024775,-0.06841144531886179,0.1390591533888276,0.1622943622672762,0.0
0.5256905108087656,0.22009950010233706,-0.18475587139165436,-0.07586011516126852,0.18515435130697658,0.15539774445566806,0.0
0.5360902884413391,0.20697965196015758,-0.21158845106602495,-0.08796420578446916,0.275397053801964,0.13039752066040988,0.0
0.5152909759007777,0.22009950010233706,-0.1966814652573833,-0.080981076742568,0.3377229239846,0.09246615161157076,0.0
0.4979580131798183,0.20041972654341816,-0.20860705912311223,-0.060962775476455046,0.32408913394328637,0.07953500110071614,0.0
0.5014246057240093,0.22009950010233706,-0.199662857200296,-0.08144661896260005,0.29487389219327914,0.06919008095489614,0.0
0.5360902884413391,0.20041972654341816,-0.1817744664017026,-0.10612033958998043,0.2994184677577633,0.09160407438511975,0.0
0.511824383356584,0.22009950010233706,-0.1638860756031092,-0.24811061733289927,0.30071694054328046,0.04418985847395635,0.0
0.511824383356584,0.2594590445288755,-0.15494188672733203,-0.20900510491884328,0.29812002664617654,0.09677653248655212,0.0
0.4979580131798183,0.2791388171906946,-0.13407209093878686,-0.2122638947809617,0.34161831066722154,0.06401762096413104,0.0
0.4979580131798183,0.24633919638669605,-0.1430162928616031,-0.22716123446577519,0.3098061233461795,0.05108647102829074,0.0
0.5222241609891602,0.24633919638669605,-0.17283027752592542,-0.20714293603871511,0.3175968650374916,0.054534777962617145,0.0
0.5187575684449692,0.24633919638669605,-0.1787930744587899,-0.1759516243308862,0.41043648142958294,0.07263838723206333,0.0
0.5187575684449692,0.24633919638669605,-0.1787930744587899,-0.2620768839338603,0.40004882584116674,0.05970723770694754,0.0
0.48062505045885895,0.30537851526925314,-0.1281092940059224,-0.2904749309652854,0.2818893227077588,0.019189634678698143,0.0
0.48409164300305046,0.30537851526925314,-0.110220903207329,-0.35937514546139177,0.20528041025408503,0.031258707963101734,0.0
0.459825495193708,0.2922586644357744,-0.08338831374767912,-0.42082667308077376,0.1513944864815892,0.025224172635218388,0.0
0.459825495193708,0.2922586644357744,-0.08338831374767912,-0.42734425280501054,0.0481672303380469,0.039879474970338155,0.0
0.4390259399285596,0.29881859164671326,-0.05059292898604467,-0.4366550972056514,-0.0394785592496467,0.06919008095489614,0.0
0.442492532472752,0.2594590445288755,-0.056555725918909144,-0.4617943657311695,-0.06674613834246362,0.020913789131600163,0.0
0.5395568809855312,0.1741800320532587,-0.05953712601622125,-0.4841403922927072,0.028690384028249145,-0.007534740940825221,0.0
0.5395568809855312,0.13482048672962052,-0.06848132141551795,-0.5395398540173554,0.13840991699606894,-0.07822502619434482,0.0
0.4944914206356268,0.18729987929833847,0.012016443701671887,-1.020910180200342,0.4006980463969601,0.3752272899970121,0.0
0.3939604795786546,0.18729987929833847,0.0686630178256441,-0.7606722779361381,0.3201937789345958,0.08643161365505052,0.0
0.6747537474844191,0.15450025759724006,0.038849033161321773,-0.4008083746537136,0.3214922200461822,-0.03856950532124051,0.0
0.591555769148406,0.18073995567579862,0.041830431627754,-0.38218668585243226,0.14230528784172503,-0.011845121815806605,0.0
0.47022527282628546,0.31193843889179307,-0.035685935430723584,-0.5418675594394097,0.015056597946176847,0.08643161365505052,0.0
0.34889477650416345,0.2922586644357744,-0.05953712601622125,-0.27976747693886606,-0.09011834757943485,0.054534777962617145,0.0
0.4112931995750264,0.18729987929833847,-0.011834745660665858,-0.03908230249116103,-0.5718455270790004,-0.10753563086458433,0.0
0.5395568809855312,0.13482048672962052,-0.023760340749554704,-0.20341859827845882,-0.3601972186716381,-0.08598372123240387,0.0
0.6262216945903214,0.15450025759724006,-0.1042581062744645,-0.2648701258978409,0.27734471546934414,0.03470701424026893,0.0
0.5568898437064895,0.20697965196015758,0.0030722483023751866,-0.5507128672981242,-0.2602160969809932,0.09419030343583591,0.0
0.44942571756113453,0.18729987929833847,-0.0028905502613691464,-0.5157972405424625,-0.557562548155824,0.08470746051646692,0.0
0.41475979211921826,0.18729987929833847,-0.02674173941984693,-0.29745805858766006,-0.7348018186929012,-0.06529387831212705,0.0
0.45635890264951706,0.24633919638669605,-0.056555725918909144,-0.17083066558863969,-0.8263429622994753,-0.12305301042615516,0.0
0.4736918653704764,0.19385980292087832,-0.08040691528124688,-0.10984467522094704,-0.7834938988342237,-0.12994962823776324,0.0
0.5464900660739137,0.20697965196015758,-0.16984887253597367,-0.27092218043636324,-0.48484899071084103,-0.18857083757824236,0.0
0.5638230287948726,0.1741800320532587,-0.15494188672733203,-0.32539056907715885,-0.46342445897821527,-0.13081169494966685,0.0
0.5152909759007777,0.19385980292087832,-0.1609046836601965,-0.30956214495228135,-0.2576191830838893,-0.21701937553657832,0.0
0.47715845791466793,0.2856987408132345,-0.324881605837489,-0.4371206337475776,-0.4400522655782093,-0.17477760195502617,0.0
0.4875582355472415,0.2922586644357744,-0.21755124799888942,-0.7034106246189388,-0.018054033455882895,-0.05063857597700726,0.0
0.4667586802820939,0.3840976059165297,-0.20860705912311223,-0.45294905787245493,0.36174436961432993,0.04160362810892175,0.0
0.459825495193708,0.462816689387008,-0.21755124799888942,-0.07213578024006516,0.42861484703538083,0.2674677102924677,0.0
0.41475979211921826,0.32505828613687276,-0.06848132141551795,-0.17734825099098234,-1.4755709931404601,-0.03684535086833849,0.0
0.6227551020461299,0.25289912090633565,-0.19071866832451886,-0.195038843995988,-0.8393275001110649,-0.19288121319595006,0.0
0.584622584060023,0.12826056310708062,-0.1966814652573833,-0.10006829481070253,-0.46602137287531914,-0.41702116589864385,0.0
0.4355593473843678,0.18729987929833847,-0.25929082652894075,-0.24438629092885467,-0.3446157352890139,-0.31012363187690833,0.0
0.3800941094018884,0.20041972654341816,-0.13109069247235464,-0.49205458164272264,-2.110515981710408,-0.13512209159646932,0.0
0.3419615914157801,0.22009950010233706,-0.05953712601622125,-0.7918635669315436,-2.6208092299150825,-0.1420186883789826,0.0
0.6435544145866952,0.3709777586714499,-0.4441375444947784,-0.637769222697374,-1.2489903902323365,-0.00667266371437422,0.0
0.5984889542367885,0.39721745316160934,-0.43817476060895283,-0.6503388228914982,-0.14270581440337865,-0.04029364925959515,0.0
0.40089366466703796,0.3316182097594126,-0.22053265298884117,-0.6005258450948112,-0.5497718064645118,0.03643116869317096,0.0
0.40089366466703796,0.3316182097594126,-0.22053265298884117,-0.5060208595998956,-0.7445402220515933,0.057983084239784335,0.0
0.5048911982682008,0.2725788935681548,-0.33084441581739243,-0.37566910612819554,-0.6283283805855655,0.08125915423929973,0.0
0.48062505045885895,0.32505828613687276,-0.34873279356894676,-0.3244594959933065,-0.584180876008727,-0.013569276268708595,0.0
0.45289231010532605,0.36441783504891,-0.30103041810603104,-0.33796021469612963,-0.5270488336202993,-0.007534740940825221,0.0
0.41475979211921826,0.3906575295390695,-0.31891882195166343,-0.30676890298830073,-0.7685616676813233,0.07867292387426512,0.0
0.3800941094018884,0.34473805700449234,-0.32190020084753707,-0.31980408514919784,-1.0321482540307665,0.09677653248655212,0.0
0.3800941094018884,0.34473805700449234,-0.32190020084753707,-0.27790530805873787,-0.914637971453152,-0.00667266371437422,0.0
0.5222241609891602,0.3184983625143329,-0.4232677617532721,-0.22855786680397713,-0.6153438427739757,-0.003224360065843867,0.0
0.5222241609891602,0.3184983625143329,-0.4232677617532721,-0.18759017415358128,-0.29787131681507145,0.045914011612539954,0.0
0.5326236958971481,0.3840976059165297,-0.4441375444947784,-0.12893189417628562,-0.12647511838344364,0.15367359000276604,0.0
0.5048911982682008,0.4037773767841492,-0.402397979011766,-0.09774058530750962,-0.27190219368099616,0.06919008095489614,0.0
0.48409164300305046,0.3840976059165297,-0.39047238514603727,-0.14569140274122722,-0.14725041372331074,0.10108691599017029,0.0
0.491024828091433,0.3840976059165297,-0.4441375444947784,-0.1685029544884795,-0.13881045147620522,0.13988036489409728,0.0
0.4459591250169435,0.3840976059165297,-0.4202863567633204,-0.23460990998628775,-0.12128129058923552,0.16315643949372716,0.0
0.48062505045885895,0.3906575295390695,-0.426249166743224,-0.26161133603572245,-0.10959518597074995,0.12436298533252649,0.0
0.45635890264951706,0.4037773767841492,-0.38152817017618185,-0.24159303760866246,-0.20373325931139338,0.08039707701284872,0.0
0.45289231010532605,0.4037773767841492,-0.4053793579076396,-0.1657097068463931,-0.34851112197163514,0.00712056139429454,0.0
0.4286261622959847,0.3381781333819525,-0.40836076289759154,-0.1233453903749541,-0.7146756963979315,-0.01787966240096366,0.0
0.442492532472752,0.32505828613687276,-0.402397979011766,-0.07073915357996904,-0.8393275001110649,-0.04891442152410524,0.0
0.48062505045885895,0.35129798062703216,-0.4173049778674467,-0.035823512629042625,-1.027603615118421,-0.039431572033144124,0.0
0.4667586802820939,0.4168972240292289,-0.4501003544746818,-0.08284324420316969,-1.0639604096778779,0.049362317889707144,0.0
0.442492532472752,0.4234571476517688,-0.49482132494764586,-0.06887698753889382,-1.0113729428539342,0.08039707701284872,0.0
0.48062505045885895,0.3906575295390695,-0.5514679153804167,-0.05397964785408035,-0.6439098639681899,0.020051711905149167,0.0
0.5430234735297222,0.4168972240292289,-0.6110958586149834,-0.0972750434423592,-0.20373325931139338,0.05022439511615816,0.0
0.5048911982682008,0.3381781333819525,-0.6140772636049352,-0.047927598993663875,-0.0011741040126201868,0.05367270139332535,0.0
0.491024828091433,0.3381781333819525,-0.5991702908433325,0.037266564813034475,-0.23035160300126192,0.08987991993221771,0.0
0.44942571756113453,0.3316182097594126,-0.5902260758734773,0.00467863212321535,-0.19983788846573725,0.13039752066040988,0.0
0.48062505045885895,0.3709777586714499,-0.5961888858533808,-0.07073915357996904,-0.01286020863110578,0.17350135569659192,0.0
0.4667586802820939,0.3775376822939898,-0.5842632658935738,-0.08051553452253597,0.04946567936811629,0.2191914171548533,0.0
0.40089366466703796,0.3578579114263702,-0.5156911076891519,0.006540801003343474,-0.24268693609402353,0.1407424421205483,0.0
0.3835607019460797,0.3709777586714499,-0.5455051054005133,0.06659570764073523,-0.4251200027513783,0.06143139100982094,0.0
0.41475979211921826,0.3578579114263702,-0.5633934831520676,0.08568292162773126,-0.5582117687116173,0.05194854825474175,0.0
0.42515956975179314,0.39721745316160934,-0.5842632658935738,0.05821595903637027,-0.5497718064645118,0.10453522489597433,0.0
0.44942571756113453,0.4103373004066891,-0.6498540712962,0.007006348901481354,-0.19983788846573725,0.06832800438560434,0.0
0.45289231010532605,0.4168972240292289,-0.6856308267993088,0.027024647328541387,0.3623935901701233,0.05970723770694754,0.0
0.45635890264951706,0.4168972240292289,-0.6587982340778991,0.10058027266875642,0.7480350346616651,0.08039707701284872,0.0
0.17903222728794577,0.5677754673476458,-0.3785467912803082,0.3072808593760169,-3.0019061621900023,0.1381562104411953,0.0
0.6227551020461299,0.5940151618378052,-1.0463800477611287,-0.12893189417628562,2.1185554332328245,0.4088482913140543,0.0
0.511824383356584,0.3578579114263702,-0.7065006617289712,-0.08749866356443713,1.7893967788999872,0.264881489127662,0.0
0.5014246057240093,0.4037773767841492,-0.628984288554694,-0.1480191110023345,1.9932543772899676,0.2398812600751301,0.0
0.5222241609891602,0.24633919638669605,-0.5842632658935738,-0.14150152559999182,2.2217828002351236,0.15539774445566806,0.0
0.5222241609891602,0.2594590445288755,-0.5574307253603203,-0.10239600435825565,2.6223564125317047,0.2735022403630773,0.0
0.5326236958971481,0.30537851526925314,-0.4471189494847301,0.019575971808028805,2.73986669510932,0.3053990872272173,0.0
0.4667586802820939,0.4168972240292289,-0.503765539917501,0.3589560287652554,3.48582982404681,0.4407451381781944,0.0
0.2830297608891089,0.5087361690983833,-0.2831420142603986,-0.42129220962270003,0.8162039848682332,0.3666065177325022,0.0
0.2934295385216836,0.2856987408132345,-0.1281092940059224,-0.41896450420064557,-0.06609690986818763,0.19677743029622177,0.0
0.4286261622959847,0.2791388171906946,-0.20562565413316047,-0.2751120547385457,0.2766954949135507,0.1579839761350211,0.0
0.5326236958971481,0.2594590445288755,-0.2563094476330671,-0.12800080973622152,0.5993618486666632,-0.004086432035021199,0.0
0.5326236958971481,0.25289912090633565,-0.23245824685457012,-0.04653097801167361,0.3721320252027462,0.006258484167843539,0.0
0.5083577908123919,0.24633919638669605,-0.17581166946883814,-0.1033270882216371,0.004019719822346589,0.11315599190321074,0.0
0.5256905108087656,0.2397792723156063,-0.24736524571025093,-0.1526745303636019,0.32538760672880374,0.13729413847201793,0.0
0.5048911982682008,0.32505828613687276,-0.2682350414987959,-0.14289814942103501,0.5792357897195545,0.15539774445566806,0.0
0.47715845791466793,0.32505828613687276,-0.24438384072029898,-0.03768568150917076,0.5500205162956167,0.04850024066325613,0.0
0.4390259399285596,0.2725788935681548,-0.15494188672733203,-0.054445187235059464,0.23579412478960965,0.07522461759709793,0.0
0.4667586802820939,0.3184983625143329,-0.1817744664017026,-0.12986297577729675,0.06764406872936202,0.10194899321662132,0.0
0.48062505045885895,0.30537851526925314,-0.18475587139165436,-0.14895019544239857,0.002721264853415232,0.0890178427057667,0.0
0.511824383356584,0.2725788935681548,-0.1609046836601965,-0.05537627167512353,-0.22450855465126046,0.05022439511615816,0.0
0.511824383356584,0.2791388171906946,-0.1966814652573833,-0.016736292963940823,-0.28683444067086183,0.011430947526549592,0.0
0.5291571033529566,0.2791388171906946,-0.23245824685457012,-0.11682780355308496,0.03323498334818126,0.00798263862074557,0.0
0.5395568809855312,0.2791388171906946,-0.22649544992170564,-0.1563988681238582,0.17411745932580175,0.027810401685934547,0.0
0.5395568809855312,0.2922586644357744,-0.2145698560559767,-0.11403455165241921,0.3175968650374916,0.001948103292862195,0.0
0.459825495193708,0.2922586644357744,-0.1430162928616031,-0.06654927643873364,-0.04142624269285408,-0.05063857597700726,0.0
0.44942571756113453,0.2791388171906946,-0.15494188672733203,-0.04001338693122509,-0.06544768139391162,0.001948103292862195,0.0
0.459825495193708,0.2791388171906946,-0.17581166946883814,-0.019064004064100984,-0.1491980991461388,0.005396406941392519,0.0
0.48062505045885895,0.2856987408132345,-0.16984887253597367,0.02516247844841324,-0.3134528001976959,0.013155096722177925,0.0
0.5256905108087656,0.3316182097594126,-0.2950676081261276,-0.009287623121534075,-0.42706769609268896,0.03298286241600376,0.0
0.5464900660739137,0.32505828613687276,-0.2712164203946696,-0.04001338693122509,0.10010546868771472,0.07436254037064692,0.0
0.5152909759007777,0.30537851526925314,-0.22947685491165737,-0.02185725170618737,0.022198103244730344,0.10625937672023951,0.0
0.5083577908123919,0.30537851526925314,-0.22649544992170564,0.007006348901481354,-0.02194940182701315,0.08643161365505052,0.0
0.511824383356584,0.32505828613687276,-0.24736524571025093,-0.02092617294422914,0.03972726017245873,0.08987991993221771,0.0
0.48409164300305046,0.2266594241734268,-0.24140244877738634,-0.025116047246411623,0.059853334956532514,0.09332822620938493,0.0
0.4736918653704764,0.2725788935681548,-0.22649544992170564,-0.05537627167512353,-0.011561753662174417,0.07177631066277153,0.0
0.47715845791466793,0.24633919638669605,-0.21158845106602495,-0.035823512629042625,-0.09141680056874553,0.08815576810795255,0.0
0.5256905108087656,0.25289912090633565,-0.2980490131160793,-0.006494369801341857,-0.048567750960838575,0.08470746051646692,0.0
0.5395568809855312,0.25289912090633565,-0.2533280426431152,0.052629452395985855,0.32538760672880374,0.03729324591962197,0.0
0.5222241609891602,0.19385980292087832,-0.22947685491165737,0.1210641076377426,0.37602738021143683,-0.06443180108567605,0.0
0.48409164300305046,0.29881859164671326,-0.20562565413316047,-0.04280664025141732,-0.18555486203166494,0.024362095408767357,0.0
0.4875582355472415,0.31193843889179307,-0.16984887253597367,-0.1526745303636019,-0.4134339060513753,0.046776087524672536,0.0
0.5014246057240093,0.2922586644357744,-0.2145698560559767,-0.11077575895124787,-0.4854982112666344,0.06229346766125764,0.0
0.5048911982682008,0.3316182097594126,-0.2652536365088442,-0.03861676027112898,-0.0420754711671301,0.07350046445851434,0.0
0.491024828091433,0.32505828613687276,-0.2384210437874346,-0.020460630724197116,-0.1199828336406835,0.06832800438560434,0.0
0.5464900660739137,0.36441783504891,-0.2503466376531635,-0.03954784471119306,-0.11284132834213,0.17263927847014088,0.0
0.5707562138832557,0.2922586644357744,-0.24140244877738634,-0.1522089881435699,0.06050256343080851,-0.03167288750963243,0.0
0.5048911982682008,0.2791388171906946,-0.22053265298884117,-0.10379263008678752,0.028690384028249145,0.013155096722177925,0.0
0.41822638466341006,0.2725788935681548,-0.19071866832451886,-0.15314007258363396,-0.1991886520729786,-0.02046588882304299,0.0
0.5014246057240093,0.3316182097594126,-0.2741978253846215,-0.34447779442036663,-0.032986278466127894,0.06660385091844113,0.0
0.5014246057240093,0.2791388171906946,-0.19071866832451886,-0.17455499767079014,-0.1952932812273225,0.04505193438608894,0.0
0.5048911982682008,0.2922586644357744,-0.22351405797879298,-0.19550438621602007,-0.09790908135226432,0.03901739774388714,0.0
0.4979580131798183,0.30537851526925314,-0.22649544992170564,-0.2015564293983307,-0.07388764364101716,0.0890178427057667,0.0
0.5014246057240093,0.35129798062703216,-0.2384210437874346,-0.2122638947809617,-0.05116466287832196,0.08987991993221771,0.0
0.511824383356584,0.3184983625143329,-0.2533280426431152,-0.2234368967055189,-0.044672383084613486,0.014879251175079955,0.0
0.5048911982682008,0.34473805700449234,-0.25929082652894075,-0.17455499767079014,-0.06804459133177435,0.13125959788686087,0.0
0.5395568809855312,0.3775376822939898,-0.2533280426431152,-0.17222729224873576,0.2591663498635462,0.15625982168211908,0.0
0.4875582355472415,0.3578579114263702,-0.22649544992170564,-0.15732994688581645,0.16632673347145488,0.13988036489409728,0.0
0.47022527282628546,0.35129798062703216,-0.2384210437874346,-0.1736239189088319,0.06050256343080851,0.16057020781437412,0.0
0.4459591250169435,0.35129798062703216,-0.2950676081261276,-0.36403055630550035,0.24293564592512865,-0.36271033217587245,0.0
0.4355593473843678,0.35129798062703216,-0.24140244877738634,-0.31980408514919784,0.3779750735527475,-0.14546699728478665,0.0
0.45289231010532605,0.3184983625143329,-0.20264426219024775,-0.2122638947809617,-0.10245368067219643,-0.14632908502578504,0.0
0.45289231010532605,0.3184983625143329,-0.20264426219024775,-0.1685029544884795,0.17541591627435377,0.14505282825280338,0.0
0.5326236958971481,0.4496968421419283,-0.24140244877738634,-0.14150152559999182,0.33902139677011744,0.22005349438130425,0.0
0.5152909759007777,0.35129798062703216,-0.20562565413316047,-0.22855786680397713,0.2344956678410578,0.07608669350923052,0.0
0.5152909759007777,0.35129798062703216,-0.20562565413316047,-0.17176175002870372,-0.02519554197131997,-0.000638128386490836,0.0
0.48062505045885895,0.3709777586714499,-0.15494188672733203,-0.27790530805873787,-0.19853943151718528,0.1079835285445047,0.0
0.4320927548401765,0.31193843889179307,-0.1966814652573833,-0.1508123614834738,-0.45823063118400703,0.10539729949378852,0.0
0.4320927548401765,0.31193843889179307,-0.1966814652573833,-0.17781379321101437,0.13126841169751544,0.1079835285445047,0.0
0.5395568809855312,0.30537851526925314,-0.34277000968312143,-0.08889528880500677,0.07997940182212361,0.11315599190321074,0.0
0.5014246057240093,0.3840976059165297,-0.20860705912311223,-0.03442688596894652,-0.18945023287732102,0.12177675891044717,0.0
0.5014246057240093,0.3840976059165297,-0.20860705912311223,0.03307669051085201,-0.2855359837223098,0.09160407438511975,0.0
0.5152909759007777,0.4234571476517688,-0.20860705912311223,-0.0018389476010214933,0.41303339532668704,0.13470790679266492,0.0
0.44942571756113453,0.4103373004066891,-0.16984887253597367,-0.0972750434423592,0.1481483520286918,0.1338458295662139,0.0
0.44942571756113453,0.4103373004066891,-0.16984887253597367,-0.17269283446876782,-0.34916034252742856,0.1743634329230429,0.0
0.45289231010532605,0.39721745316160934,-0.1787930744587899,0.06426800221868086,-1.3418299749504974,0.25970902576895594,0.0
0.44942571756113453,0.3381781333819525,-0.24140244877738634,0.013989476523856055,-1.4262295974215526,0.23470879671642403,0.0
0.4736918653704764,0.3316182097594126,-0.3457513885789951,0.01212730764372791,-1.3859774795273356,0.23729502839577707,0.0
0.4736918653704764,0.3316182097594126,-0.3457513885789951,-0.06701481865876567,-0.9815084172002719,0.19763949700812541,0.0
0.491024828091433,0.34473805700449234,-0.4590445433504591,-0.15686441034389026,0.24618178037802588,0.21574310824904921,0.0
0.6400878220425009,0.3775376822939898,-0.4828957571759949,-0.2299544877859674,0.8954098428929417,0.23901918284867912,0.0
0.5499566586181047,0.3316182097594126,-0.3397886046931695,-0.11403455165241921,0.6980445134087558,0.1847083491259076,0.0
0.5014246057240093,0.18729987929833847,-0.20562565413316047,0.06054366445842465,0.128022277244618,0.17867381905529794,0.0
0.4667586802820939,0.16106018121977994,-0.21158845106602495,-0.2262301500257111,0.3740797185440569,0.08384538460433434,0.0
0.491024828091433,0.1741800320532587,-0.2771792303745732,-0.5269702083983845,0.9817571587053076,0.1079835285445047,0.0
0.40782684975542105,0.2660189699456149,-0.05953712601622125,-0.36263392396729843,-0.8023215166697454,-0.004086432035021199,0.0
0.4320927548401765,0.24633919638669605,-0.13705348940521908,-0.19271113289582786,-0.3939570676600602,-0.12132885597325314,0.0
0.4355593473843678,0.2856987408132345,-0.33084441581739243,0.0875450905078593,-1.2496395791141992,-0.2127089788897759,0.0
0.4390259399285596,0.18729987929833847,-0.31593741696171174,0.4846523486804234,-0.8458197690168597,-0.04201780371249716,0.0
0.6955533027495673,0.2791388171906946,-0.3636397924246275,0.13503036288249196,0.2195634366881574,0.1950532758433198,0.0
0.6262216945903214,0.31193843889179307,-0.16984887253597367,0.06333691777861691,-0.3868155465245415,0.23815710562222808,0.0
0.4667586802820939,0.32505828613687276,-0.20860705912311223,0.05914704347643434,-0.3179973757621799,0.026948324459483544,0.0
0.5568898437064895,0.3775376822939898,-0.3457513885789951,0.03493885939098016,0.3072092094490754,0.00022394883996016456,0.0
0.5464900660739137,0.30537851526925314,-0.32786301082744074,-0.008356538681470002,1.088879785694506,-0.10667355363813336,0.0
0.7267526356472944,0.21353957558269743,-0.402397979011766,0.3054187132083121,1.8296490234899265,-0.14805323947868707,0.0
0.6227551020461299,0.21353957558269743,-0.324881605837489,0.5288788425491493,1.5641146804513113,-0.07477671728854075,0.0
0.366227739225122,0.3840976059165297,-0.324881605837489,0.04843957809380339,0.6668815466435073,-0.039431572033144124,0.0
0.2830297608891089,0.5808953145927255,-0.08338831374767912,-0.26161133603572245,-0.3472126491861178,0.030396630736650734,0.0
0.2379640578146172,0.5808953145927255,-0.09233251240873556,-0.26347350491585064,-1.085384909736573,0.08987991993221771,0.0
0.4043602572112298,0.43657699489684854,-0.21158845106602495,-0.1698995811485756,-0.695198889680547,0.03729324591962197,0.0
0.5672896213390641,0.31193843889179307,-0.2145698560559767,-0.1633819957462329,-0.3731817564832278,-0.00494850926147219,0.0
0.584622584060023,0.32505828613687276,-0.15494188672733203,-0.25555929285341183,-0.1615334322389004,0.023500018182316357,0.0
0.6366214722228956,0.4300170712743087,-0.17283027752592542,-0.578645377787623,0.2500771353867168,0.10194899321662132,0.0
0.3627611466809296,0.6202548563279646,-0.12512789553949014,-0.9790113917536705,-0.5991131071616276,0.30884739613302137,0.0
0.2656967981681504,0.4234571476517688,-0.20562565413316047,-1.0409284559149787,-1.2808025458794479,0.1416045193469993,0.0
0.44942571756113453,0.4234571476517688,-0.34277000968312143,-0.8928861548631196,-0.9763146527539253,0.151949435549864,0.0
0.5499566586181047,0.4234571476517688,-0.402397979011766,-0.44084497150783375,-0.6159930316558385,0.2605710924808596,0.0
0.5048911982682008,0.4300170712743087,-0.3755653862903565,-0.31607974738894146,-0.8568566768349999,0.08212123015143233,0.0
0.4979580131798183,0.4300170712743087,-0.402397979011766,-0.32958046609176467,-0.7107803730631712,0.07953500110071614,0.0
0.5222241609891602,0.4168972240292289,-0.4232677617532721,-0.3724103049098653,-0.28813289761941396,0.1338458295662139,0.0
0.5430234735297222,0.43657699489684854,-0.44115616559890475,-0.504158668007344,-0.12647511838344364,0.25453656241024986,0.0
0.5291571033529566,0.4300170712743087,-0.40836076289759154,-0.5530405727201785,0.059204106482256484,0.4062620491201538,0.0
0.5291571033529566,0.39721745316160934,-0.3934537640419109,-0.6168198284740384,0.4162795297795845,0.5140216498537931,0.0
0.5880891766042144,0.18729987929833847,-0.3666211974145792,-0.6447523389635372,1.025255411052422,0.5519530057594481,0.0
0.6054221393251711,0.08890101419504332,-0.3666211974145792,-0.6512698959753506,1.5082811425223317,0.5476426301417403,0.0
0.6019555467809795,-0.04229747260935017,-0.28016063536452496,-0.33656358235792777,1.8737965280667648,0.2622952469337616,0.0
0.5638230287948726,-0.11445661810369243,-0.21755124799888942,0.032145606070787945,1.5426901803926163,0.10281107044307232,0.0
0.3142288510622472,-0.022617687388134307,-0.17581166946883814,0.1122188224914514,0.4227717986853793,0.2088465009519885,0.0
0.3246286286948221,-0.002937916520514745,-0.1638860756031092,0.20532719836058858,0.1449022017388291,0.2088465009519885,0.0
0.442492532472752,0.0626613197048839,-0.15494188672733203,0.23419080464636313,0.10270238258481877,0.15281151277631502,0.0
0.4979580131798183,0.19385980292087832,-0.1638860756031092,0.20532719836058858,0.08452399322357305,0.09850068693945413,0.0
0.4979580131798183,0.2660189699456149,-0.15196048173738025,0.2071893672407167,0.06115178398660187,0.09246615161157076,0.0
0.4736918653704764,0.31193843889179307,-0.16686748059306097,0.18158456217327223,0.06245024093515388,0.09677653248655212,0.0
0.45635890264951706,0.2594590445288755,-0.20860705912311223,0.13084048858030956,0.0546595071623244,0.09246615161157076,0.0
0.44942571756113453,0.15450025759724006,-0.21158845106602495,0.07776870956529248,-0.10375213762074846,0.07436254037064692,0.0
0.48062505045885895,0.08234109057250345,-0.199662857200296,0.09266606060631764,-0.13426585215627315,0.03298286241600376,0.0
0.5083577908123919,0.16106018121977994,-0.199662857200296,0.10523568351286505,-0.0959613959294363,0.057983084239784335,0.0
0.5638230287948726,0.20697965196015758,-0.21755124799888942,0.08940725938798746,0.03907803169818271,0.12436298533252649,0.0
0.5811559915158286,0.2266594241734268,-0.21755124799888942,0.10337351463273686,0.15983444872869473,0.13039752066040988,0.0
0.5291571033529566,0.24633919638669605,-0.20562565413316047,0.10058027266875642,0.10854543885330291,0.10884560577095569,0.0
0.4944914206356268,0.2594590445288755,-0.1966814652573833,0.06659570764073523,0.025444245616110406,0.13039752066040988,0.0
0.5048911982682008,0.2922586644357744,-0.20264426219024775,0.059612580018360554,0.06569638330653395,0.1683288923378858,0.0
0.5326236958971481,0.2725788935681548,-0.1966814652573833,0.05030174697393152,0.1734682387700084,0.16401851672017817,0.0
0.5222241609891602,0.2922586644357744,-0.22351405797879298,-0.0009078631609574205,0.2189142002953987,0.19936365146102744,0.0
0.5152909759007777,0.29881859164671326,-0.199662857200296,-0.030702548208690207,0.23124953338816032,0.1683288923378858,0.0
0.4736918653704764,0.30537851526925314,-0.1787930744587899,-0.07865336706193428,0.20203427580118774,0.19332912139041772,0.0
0.47022527282628546,0.2266594241734268,-0.1430162928616031,-0.08936083102503882,0.10465006800764683,0.13643206124556695,0.0
0.48062505045885895,0.2266594241734268,-0.1787930744587899,-0.09448179189657506,0.04881645089384026,0.12867337146478153,0.0
0.5014246057240093,0.2791388171906946,-0.15494188672733203,-0.1303285179973288,0.04621954491521888,0.13125959788686087,0.0
0.491024828091433,0.2791388171906946,-0.1430162928616031,-0.15872657354591255,0.018951964832591595,0.1597081305879231,0.0
0.5014246057240093,0.2397792723156063,-0.15494188672733203,-0.19922872397627636,-0.031687822259933614,0.15625982168211908,0.0
0.5048911982682008,0.2266594241734268,-0.14897908979446756,-0.19084896969380555,-0.0024725609611722216,0.13125959788686087,0.0
0.47715845791466793,0.16106018121977994,-0.12512789553949014,-0.17502053989082214,-0.06674613834246362,0.07694877073568153,0.0
0.4667586802820939,0.14138041035216037,-0.11916509860662569,-0.1303285179973288,-0.1485488706718628,0.04850024066325613,0.0
0.45635890264951706,0.16106018121977994,-0.11916509860662569,-0.1387082722797996,-0.2706037367324443,0.006258484167843539,0.0
0.47022527282628546,0.14794033397470024,-0.14003488787165133,-0.21040172590083356,-0.33747421415349493,-0.04977649875055627,0.0
0.491024828091433,0.1741800320532587,-0.13109069247235464,-0.24019640527046052,-0.34916034252742856,-0.06184556940632298,0.0
0.5222241609891602,0.2791388171906946,-0.15494188672733203,-0.28116409792085634,-0.3199450691034906,-0.06788010999148007,0.0
0.5083577908123919,0.35129798062703216,-0.1638860756031092,-0.3221317905712521,-0.30566205850638356,-0.03684535086833849,0.0
0.5048911982682008,0.3906575295390695,-0.15494188672733203,-0.33097707571754326,-0.27839447842375636,0.023500018182316357,0.0
0.4667586802820939,0.4168972240292289,-0.15196048173738025,-0.33609804581600156,-0.33877268693901236,0.023500018182316357,0.0
0.47715845791466793,0.4037773767841492,-0.17581166946883814,-0.3263216648734346,-0.4023970299071657,-0.0704663416708331,0.0
0.5187575684449692,0.39721745316160934,-0.21755124799888942,-0.27418097029848165,-0.4160308199484794,-0.10408732195878033,0.0
0.5187575684449692,0.39721745316160934,-0.21755124799888942,-0.29187156330348724,-0.2842375267737578,-0.14632908502578504,0.0
0.6054221393251711,0.5087361690983833,-0.23543965184452187,-0.3104932407485571,-0.24268693609402353,-0.07477671728854075,0.0
0.5880891766042144,0.5284159256124067,-0.2563094476330671,-0.3337703403939472,-0.05181389135259797,0.03901739774388714,0.0
0.5880891766042144,0.5284159256124067,-0.2563094476330671,-0.2890783099832951,0.16762519042000684,0.05108647102829074,0.0
0.5326236958971481,0.4300170712743087,-0.2682350414987959,-0.22436798114558296,0.2572186565222355,0.039879474970338155,0.0
0.5222241609891602,0.3709777586714499,-0.2533280426431152,-0.17734825099098234,0.3675874179643313,-0.04632818984475221,0.0
0.5222241609891602,0.3709777586714499,-0.2533280426431152,-0.20248751383839478,0.37732585299695415,-0.04632818984475221,0.0
0.5048911982682008,0.3709777586714499,-0.18475587139165436,-0.26161133603572245,0.22086189363670947,-0.07391464006208975,0.0
0.442492532472752,0.4234571476517688,-0.15196048173738025,-0.3225973271131783,0.01570582642045286,-0.003224360065843867,0.0
0.4112931995750264,0.4300170712743087,-0.06251852448265348,-0.23181665666609555,-0.013509437105381794,0.07608669350923052,0.0
0.41822638466341006,0.35129798062703216,-0.16686748059306097,-0.1712962078086717,0.05855487800798047,0.2562607168631519,0.0
0.4875582355472415,0.24633919638669605,-0.1966814652573833,-0.011149792001662221,0.015056597946176847,0.3303993162797492,0.0
0.4875582355472415,0.24633919638669605,-0.1966814652573833,0.0800964263435584,0.16567749707869614,0.3709169143793044,0.0
0.5430234735297222,0.1676201048423198,-0.23245824685457012,0.17180818123070543,0.2565694359664423,0.32091645627424065,0.0
0.4979580131798183,-0.06197722912337353,-0.2831420142603986,0.20113732405840618,0.20463118969829167,0.2088465009519885,0.0
0.4979580131798183,-0.06197722912337353,-0.2831420142603986,0.24396718558893005,-0.03038936630119192,0.12608713978542851,0.0
0.44942571756113453,-0.13413640332490825,-0.30401182309598296,0.3626803665255118,-0.2602160969809932,0.052810624166874334,0.0
0.4667586802820939,-0.08821692361353294,-0.31891882195166343,0.442288046404249,-0.19594251762008116,-0.044604035391850205,0.0
0.48062505045885895,-0.10133677085861272,-0.32190020084753707,0.53493088573146,-0.2751483439708589,-0.16012229961990643,0.0
0.48409164300305046,-0.13413640332490825,-0.32190020084753707,0.5959168768089157,-0.3731817564832278,-0.2196055967013839,0.0
0.48062505045885895,-0.1538161598389316,-0.3099746069818083,0.5782262610914868,-0.39136015376295613,-0.3006408139295895,0.0
0.491024828091433,-0.12101655607982861,-0.3099746069818083,0.5414484427432734,-0.43940304502241595,-0.3463308543587558,0.0
0.491024828091433,-0.12101655607982861,-0.28910482424030226,0.5116537860860697,-0.4082400782571673,-0.41529699041664725,0.0
0.44942571756113453,-0.18005585432909102,-0.19071866832451886,0.5186369023522327,-0.6977957719037204,-0.5316773423857016,0.0
0.42169297720760135,-0.19317573028136334,-0.17581166946883814,0.5689154394032694,-1.0100745017423474,-0.5911606184380844,0.0
0.37662751685769663,-0.09477686158966907,-0.18773726333456708,0.6461953684351056,-1.1580984988554865,-0.6532301787425572,0.0
0.45635890264951706,0.09546093781758322,-0.2533280426431152,0.6676103219127909,-1.126286343208375,-0.6480576943547564,0.0
0.48409164300305046,0.15450025759724006,-0.2771792303745732,0.5433106343358249,-1.006179115059726,-0.6213333318784172,0.0
0.5326236958971481,0.18073995567579862,-0.31891882195166343,0.4311150331234801,-0.9464501271002633,-0.6196091563964203,0.0
0.5222241609891602,0.13482048672962052,-0.3517141985588985,0.3291613266832051,-1.005529862830002,-0.6678854390194874,0.0
0.45635890264951706,0.12826056310708062,-0.3457513885789951,0.2667787259799706,-1.1658892722207292,-0.7368516171355683,0.0
0.40782684975542105,0.1741800320532587,-0.3666211974145792,0.23558741427214172,-1.2483412013504738,-0.8015073355175621,0.0
0.39742707212284645,0.20697965196015758,-0.3934537640419109,0.16575613804839467,-1.3463745505149813,-0.8385766667695032,0.0
0.4043602572112298,0.2725788935681548,-0.40836076289759154,0.08568292162773126,-1.2898918237041386,-0.9075427607692048,0.0
0.41822638466341006,0.3906575295390695,-0.4441375444947784,-0.13917381449983166,-1.1645907677612812,-0.9497844922925673,0.0
0.4736918653704764,0.4431369185193884,-0.4351933556190011,-0.29932022746778814,-0.9847546150010307,-1.004957434785432,0.0
0.5672896213390641,0.5546556201025661,-0.41432357287749505,-0.43153412710719297,-0.6984450241334446,-0.8351283158055096,0.0
0.6262216945903214,0.4759365366320877,-0.3964351690318626,-0.46644977657527825,-0.6289776328152895,-0.49719429538585097,0.0
0.6054221393251711,0.30537851526925314,-0.4799143521860432,-0.39242860333692525,-0.6185899772268733,-0.10753563086458433,0.0
0.5568898437064895,0.25289912090633565,-0.6170586685948869,-0.2839573512410485,-0.6737743262739906,0.015741328401530957,0.0
0.5152909759007777,0.4956163218533035,-0.6796680690075615,-0.2406619531685984,-0.7763523776987047,-0.07994918064724682,0.0
0.5152909759007777,0.6792941832844197,-0.7124634195207185,-0.4166367987785913,-0.6075530694087331,-0.2661577459006438,0.0
0.491024828091433,0.8039327464662736,-0.7214076344905737,-0.6829267442251058,-0.4471937550397974,-0.42650398384596294,0.0
0.3800941094018884,0.9744907893595022,-0.6707238540377062,-0.8570394550236055,-0.4666706251050431,-0.5618500137678448,0.0
0.36969433176931327,1.177848407304642,-0.6349470463464413,-0.9631830130536396,-0.29008057512375934,-0.4980563620977546,0.0
0.3627611466809296,1.2500075527989838,-0.5932074808634292,-0.9254741216215739,-0.06025385557932417,-0.33684803641143696,0.0
0.31076225851805567,1.2368876768467119,-0.5186725126791036,-0.8765921714838926,-0.10050599524936839,-0.17650175640792823,0.0
0.2968958883412884,1.2303278536993454,-0.5156911076891519,-0.7243599734174277,-0.24203771553823017,0.005396406941392519,0.0
0.34889477650416345,1.0072903644114128,-0.5425237004105616,-0.5334878108350447,-0.2277546891041579,0.05884516113765574,0.0
0.34889477650416345,0.915451462403047,-0.5663748881420194,-0.4818126641582296,-0.3946062882158536,-0.04374195816539918,0.0
0.3038290734296723,0.8564121354465922,-0.5783005081018265,-0.43153412710719297,-0.7270110453276584,-0.20581236107816783,0.0
0.335028406327397,0.908891524426911,-0.6528354762861518,-0.3244594959933065,-0.7555770665218724,-0.3670207077935802,0.0
0.3419615914157801,0.9613709134072302,-0.6796680690075615,-0.21505714810115392,-0.6218361116797707,-0.44805590399269063,0.0
0.2899629459774917,1.0532098728299804,-0.6915936367792123,-0.09587841784690794,-0.6562452128979169,-0.5937468606319849,0.0
0.13396652421345434,1.1188090803481867,-0.628984288554694,0.02190368858629483,-0.8276414034110621,-0.7721967308473227,0.0
0.14436630184602953,1.1909682832569142,-0.6498540712962,0.1592385583241579,-0.9659269971655091,-1.0127160772507544,0.0
0.22063109509365894,1.2368876768467119,-0.6856308267993088,0.2565368084954776,-0.889967273593698,-1.2213386609064247,0.0
0.3142288510622472,1.2893671806558007,-0.6826494218093568,0.2947112591818929,-0.775703188816842,-1.2920289724463128,0.0
0.35929455413673805,1.348406392783486,-0.74227741723208,0.23744958315226986,-0.6107992038616304,-1.3256499527342602,0.0
0.3315618137832055,1.5058446745532126,-0.754203037191887,0.19601635395994785,-0.4796551629166328,-1.2946152146402132,0.0
0.25876361307976675,1.5583240635335311,-0.7720914149434411,0.21510357930315557,-0.45173836227821224,-1.2713391190114884,0.0
0.22063109509365894,1.6436030275657607,-0.7571843899936824,0.2998321838555043,-0.48225207681373694,-1.2204765521363314,0.0
0.20676472491689277,1.604243514537714,-0.7124634195207185,0.46742729221734386,-0.5426302853289928,-1.0058195435555253,0.0
0.20329813237270097,1.4402454096206214,-0.7094820145307665,0.6108141824250943,-0.5536671614732024,-0.8678872714397429,0.0
0.21716450254946768,1.3812060826641663,-0.7691100099534894,0.6862319652892257,-0.42576925498110224,-0.72736875713006,0.0
0.23103087272623413,1.4599251087202598,-0.876440380839128,0.6471264869438048,-0.2985205373708648,-0.6446094275071418,0.0
0.1720990421995624,1.5386442496051227,-0.8853845436208271,0.6382811790850902,-0.09401371446584957,-0.5549533959562369,0.0
0.13396652421345434,1.5845637006093058,-0.85258919310767,0.6629549110686823,0.08517322169784906,-0.3790897679347995,0.0
0.03690217570067482,1.6370430895896244,-0.7482402272119832,0.7225442243830894,0.17931128712000985,-0.171329314078317,0.0
0.033435583156483276,1.6239232136373525,-0.6438912613162967,0.8286878278379703,0.2682555326664451,0.04160362810892175,0.0
0.10623378385992116,1.7026423545222158,-0.7124634195207185,0.7635119851707554,0.2669570915548585,0.1338458295662139,0.0
0.17556563474375422,1.7092022924983519,-0.8347007631679596,0.5279477240404502,-0.06609690986818763,0.1502252863542357,0.0
0.21023131746108403,1.5714438246570333,-0.8645147608793209,0.4767381139055613,-0.4381045722368986,0.45712457393712114,0.0
0.24143065035880848,1.3943259586164387,-0.9539567018252489,0.5656566154725158,-0.2595668605882347,0.8709213482262789,0.0
0.24143065035880848,1.414005657716077,-1.0046404822781163,0.7071813595125614,0.17931128712000985,1.200234617410522,0.0
0.25529702053557546,1.400885781763805,-1.0374359371675859,0.557276866868151,0.31954455837880236,1.1924759749452,0.0
0.39049388703446336,0.9679308513833661,-0.9778079417448631,0.35104179399039326,-0.2706037367324443,0.6467814375817748,0.0
0.5152909759007777,0.66617433603934,-0.9151985413321884,0.2481570598911126,-0.4218738682984808,0.22436388051355935,0.0
0.6955533027495673,0.15450025759724006,-0.8108495754365015,0.1583074625278821,-0.19659173817587453,0.009706793073647562,0.0
0.6470210071308862,0.15450025759724006,-0.7691100099534894,0.04331860799534515,0.40394418084985756,-0.02305212050239603,0.0
0.5707562138832557,0.15450025759724006,-0.754203037191887,0.016782729844048275,0.6344201387666718,0.12608713978542851,0.0
0.3419615914157801,0.6858541212605558,-0.628984288554694,0.09964917687248066,0.7168721312442778,0.29160585160400115,0.0
0.2864963534333002,0.8367323789325691,-0.6200400735848386,0.10430461042901262,1.0758952478829165,0.4950559298427762,0.0
0.2934295385216836,1.0204102403636848,-0.6140772636049352,-0.04327218247144935,1.4550443601208023,0.7097130225399616,0.0
0.41475979211921826,0.771133113999978,-0.5723376981219229,-0.2518349550931555,1.4407613178497647,0.6674712910165991,0.0
0.5984889542367885,0.35129798062703216,-0.5425237004105616,-0.39382523567512734,1.353764813155536,0.5519530057594481,0.0
0.6782203400286106,0.10202086144012305,-0.548486510390465,-0.45993219685104153,1.3297434308736673,0.41919321803146636,0.0
0.6158219169577474,0.03642162521472441,-0.628984288554694,-0.37660017921204775,1.2602760395555126,0.3726410688322065,0.0
0.5222241609891602,0.16106018121977994,-0.6438912613162967,-0.3207351582330502,1.1843162526358404,0.2045361148197335,0.0
0.5395568809855312,0.2660189699456149,-0.6051331008232362,-0.3337703403939472,1.0388892010937356,0.054534777962617145,0.0
0.5811559915158286,0.35129798062703216,-0.5276167276489591,-0.41617126223666495,0.9006036706871499,-0.11098393977038837,0.0
0.5811559915158286,0.4234571476517688,-0.5455051054005133,-0.5544372050583806,0.6558447021732283,-0.11960470152035112,0.0
0.5638230287948726,0.5021762311222471,-0.5425237004105616,-0.6815301573117505,0.525349818436163,-0.04891442152410524,0.0
0.442492532472752,0.4956163218533035,-0.536560890430658,-0.6414935150327836,0.4065410947469617,0.15281151277631502,0.0
0.2864963534333002,0.2922586644357744,-0.5932074808634292,-0.5707311430127608,0.26890475322223845,0.3286751618268472,0.0
0.14436630184602953,0.16106018121977994,-0.6081145058131879,-0.5586270566481396,-0.14140735745482663,0.3295372285387508,0.0
0.1304999316692628,0.14138041035216037,-0.5305981326389106,-0.6387002957812264,-0.6763712718450253,0.1252250625589775,5.0
0.23103087272623413,0.14138041035216037,-0.4978027299375976,-0.8426076178120832,-0.7438909698218693,-0.03770742809478948,5.0
0.3627611466809296,0.3578579114263702,-0.5216539176690553,-1.1303125621611296,-0.7523309320689751,-0.31615818297661263,5.0
0.39049388703446336,0.6071350090828849,-0.6349470463464413,-1.3239779439950699,-0.5270488336202993,-0.5661604314437423,5.0
0.4286261622959847,0.9220114003791835,-0.7214076344905737,-1.5888713025282286,-0.46407371120793905,-0.9204738876223278,5.0
0.459825495193708,0.7514533574859543,-0.5932074808634292,-1.5148501520022994,-0.5270488336202993,-0.7523689861825917,5.0
0.4944914206356268,0.6333747035730445,-0.5663748881420194,-1.20340259417836,-0.3998001160100616,0.00022394883996016456,5.0
0.5083577908123919,1.1909682832569142,-0.5544493203703686,-0.9976331259797986,-0.08427529527019204,0.6398848197701669,5.0
0.32809522123901336,1.5452041875812592,-0.6319656935446456,-0.8835753331749024,0.06959175415219004,0.8045414964204778,5.0
0.25876361307976675,1.486164860624804,-0.6707238540377062,-0.7220322679953735,-0.28228984926941236,0.6976439623987424,5.0
0.35929455413673805,1.0007304838496618,-0.5723376981219229,-0.7285498704320337,-0.7257126042160716,0.5286769521889128,5.0
0.42169297720760135,0.9285712809409346,-0.5067469449074529,-0.7820871859889769,-0.6659836162566092,0.47177987627224094,5.0
0.4667586802820939,0.8957717058890238,-0.3964351690318626,-0.7797594805669225,-0.4673198456608365,0.5191940921834044,5.0
0.4667586802820939,0.8957717058890238,-0.3964351690318626,-0.5400054132717049,-0.3653910464658463,0.5243665345130157,5.0
0.4355593473843678,1.1319289563004589,-0.3606583874346758,-0.2662667582360429,-0.34591420807453105,0.5433322545240326,5.0
0.4459591250169435,1.2237679157232095,-0.4173049778674467,-0.018132919624036924,-0.4283661688782064,0.43471058707848975,5.0
0.4459591250169435,1.2237679157232095,-0.4173049778674467,0.16389396916826665,-0.36149565978322484,0.3683306721854042,5.0
0.5811559915158286,1.302486941779303,-0.49482132494764586,0.23698404661034367,-0.3868155465245415,0.29936455715660765,5.0
0.6400878220425009,1.427125533668349,-0.5305981326389106,0.14573783962133474,-0.2757975645266523,0.29936455715660765,5.0
0.6400878220425009,1.427125533668349,-0.5305981326389106,0.005609716563279401,0.0553087356366004,0.3510891486854788,5.0
0.6366214722228956,1.5320843116289866,-0.5693562931319711,-0.11729334577311701,0.3578490146056391,0.3079853083920229,5.0
0.37662751685769663,1.3615262687357583,-0.5723376981219229,-0.17734825099098234,0.41757797089117127,0.20970857817843952,5.0
0.37662751685769663,1.3615262687357583,-0.5723376981219229,-0.20109089285640452,0.27150166711934254,0.03729324591962197,5.0
0.2795631683449171,1.302486941779303,-0.5425237004105616,-0.19224559067579583,0.2195634366881574,0.026948324459483544,5.0
0.30729566597386326,1.2893671806558007,-0.4441375444947784,-0.19084896969380555,0.3318798756345987,0.03556909146671995,5.0
0.30729566597386326,1.2893671806558007,-0.4441375444947784,-0.2117983582390355,0.47990387274773794,0.1355699840191159,5.0
0.3419615914157801,1.066329691367868,-0.3576769824447239,-0.11450009387245125,1.1758762903887348,0.8235071323151159,5.0
0.3419615914157801,1.066329691367868,-0.3576769824447239,-0.11450009387245125,1.1758762903887348,0.8235071323151159,5.0
0.2760965758007253,0.9285712809409346,-0.3874909801560853,0.06938896096092752,1.3193557752852512,1.2985114001968425,5.0
0.11316696894830452,0.6596144267703965,-0.4501003544746818,0.3128673887288247,0.738945883532697,1.7519636217572732,5.0
0.04730195333324972,0.6596144267703965,-0.47395154220613983,0.4283217684470762,0.22865261949105622,1.8743785248260323,5.0
0.17556563474375422,0.7252136629957948,-0.4799143521860432,0.35616276408885156,-0.18036105007442213,1.7381705543668153,5.0
0.41475979211921826,0.7252136629957948,-0.5633934831520676,0.24024284782867386,-0.37512944982453855,1.3424772651440122,5.0
0.7198194505589097,0.6464945508181241,-0.6230214785747904,0.18065346637699647,0.187102028811322,0.9071285707081267,5.0
0.8723490370541686,0.5152960783673269,-0.6647610440578026,0.12013303455389018,0.8291885860276842,0.7898861520271684,5.0
0.6851535251169937,0.6924140305294995,-0.6975564467591158,0.06287136988047903,1.1038120168474064,0.7941965276448761,5.0
0.41475979211921826,1.0400899968777084,-0.6915936367792123,0.05542270571617813,1.1901593326597724,0.9269563153728578,5.0
0.20329813237270097,1.3615262687357583,-0.628984288554694,-0.0009078631609574205,1.1706825259423879,1.0959234096990662,5.0
0.09583400622734627,1.4992847365770765,-0.5216539176690553,-0.164313080186297,0.864246876127693,1.1226477721754056,5.0
0.10276719131572962,1.2893671806558007,-0.426249166743224,-0.3314426349718928,0.3955042186027521,0.9674739134724132,5.0
0.25183042799138394,0.9810506699212533,-0.40836076289759154,-0.4692430185392587,0.02025042178114363,0.6847127934874294,5.0
0.39049388703446336,0.7317736009719312,-0.46798873222623616,-0.5995947720109588,-0.09790908135226432,0.5252286432831089,5.0
0.46329208773790237,0.6202548563279646,-0.5335795376288625,-0.7760351428066662,-0.0959613959294363,0.4890214208012612,5.0
0.46329208773790237,0.5284159256124067,-0.6051331008232362,-0.8505218525869452,0.28383701604906947,0.5140216498537931,5.0
0.3800941094018884,0.4693766130095478,-0.6409098563263448,-0.792794640015396,0.4065410947469617,0.4278139692668815,5.0
0.34542818395997166,0.3906575295390695,-0.536560890430658,-0.5935427288286482,0.2377418181309204,0.3010886905804148,5.0
0.41822638466341006,0.16106018121977994,-0.4799143521860432,-0.36915152640395854,0.06894252567791402,0.16488059394662918,5.0
0.491024828091433,-0.016057778119190725,-0.44115616559890475,-0.2504383341111653,-0.11543824223923406,0.08039707701284872,5.0
0.6123553244135563,-0.2522150285306258,-0.4769329471960915,-0.22064365474153835,-0.0005248755383441622,0.04246570402105433,5.0
0.584622584060023,0.1151407158620009,-0.5097283498974047,-0.423154378502828,0.23839103868671377,-0.012707199042257596,5.0
0.5256905108087656,0.3775376822939898,-0.5276167276489591,-0.8365555746297725,0.2896800643990709,-0.04374195816539918,5.0
0.3142288510622472,0.8236125029802966,-0.5186725126791036,-1.0269622233826528,0.17476669571856035,-0.298054571735689,5.0
0.31076225851805567,0.9285712809409346,-0.47395154220613983,-1.0660677471529203,-0.1316689382591691,-0.42305567494015883,5.0
0.41822638466341006,1.0072903644114128,-0.402397979011766,-0.9757526132477637,-0.37642792261005587,-0.2592611280890355,5.0
0.6054221393251711,0.8170525650041608,-0.4888585149677422,-0.6819956711412533,-0.2095763076613948,0.2571227835750555,5.0
0.6470210071308862,0.705533877774579,-0.524635322659007,-0.490192435475018,0.31499995114038754,0.603677597288319,5.0
0.5776893989716376,0.3381781333819525,-0.5097283498974047,-0.3347014134777996,0.7928317914682276,0.7485064872157096,5.0
0.45635890264951706,0.03642162521472441,-0.4053793579076396,-0.1685029544884795,0.9278712507697771,0.7485064872157096,5.0
0.35929455413673805,-0.25877496650676174,-0.30103041810603104,-0.034892428188978544,0.7967271781508488,0.5743669926180793,5.0
0.3731609243135048,-0.37029368244353617,-0.23245824685457012,0.14573783962133474,0.4448455509737984,0.3674686054735006,5.0
0.4112931995750264,-0.2653349044828982,-0.199662857200296,0.2746929380424094,-0.017404804981606882,0.14505282825280338,5.0
0.4112931995750264,-0.2653349044828982,-0.199662857200296,0.33242015061395863,-0.23100082355705534,0.052810624166874334,5.0
0.4459591250169435,0.5808953145927255,-0.31891882195166343,0.3468519424006341,-0.2952744029179673,-0.029086655830279376,5.0
0.48409164300305046,0.9416911568932066,-0.3606583874346758,0.3133329025583275,-0.1777641361773181,-0.0704663416708331,5.0
0.48409164300305046,0.9416911568932066,-0.3606583874346758,0.18344673105340042,0.06569638330653395,0.05022439511615816,5.0
0.511824383356584,1.1319289563004589,-0.39047238514603727,0.08195859522368659,0.2370925817381617,0.1743634329230429,5.0
0.44942571756113453,0.8104926844424096,-0.3934537640419109,0.051232831413995567,0.3682366385201247,0.1950532758433198,5.0
0.44942571756113453,0.8104926844424096,-0.3934537640419109,0.08521738508580506,0.4370548092824863,0.1329837523397629,5.0
0.366227739225122,0.5415357728574863,-0.31593741696171174,0.10058027266875642,0.015056597946176847,-0.014431353495159626,5.0
0.36969433176931327,0.3184983625143329,-0.2980490131160793,0.06938896096092752,-0.4108369921542712,-0.1670189174315145,5.0
0.36969433176931327,0.3184983625143329,-0.2980490131160793,0.035404395932906355,-0.6302760739268762,-0.31529611626470927,5.0
0.5152909759007777,0.43657699489684854,-0.3606583874346758,0.04192198701335486,-0.48419977015504767,-0.3204685585943204,5.0
0.5568898437064895,0.5284159256124067,-0.3874909801560853,0.01864488736796473,-0.3115051068563851,-0.24546789246581935,5.0
0.5880891766042144,0.6530544887942603,-0.4322119506290494,0.010265138763599765,-0.046620067517631196,-0.07477671728854075,5.0
0.591555769148406,0.7908128705140011,-0.43817476060895283,0.07264775082304585,0.20398195330553295,0.12263883087962446,5.0
0.584622584060023,0.8039327464662736,-0.40836076289759154,0.14806554504338912,0.42796562647958747,0.30970946284492495,5.0
0.5464900660739137,0.7514533574859543,-0.3606583874346758,0.19648189050187403,0.42082413701799914,0.3631582088266981,5.0
0.4667586802820939,0.6268147943041007,-0.2920862292302539,0.2546746396153495,0.30655998889328206,0.41919321803146636,5.0
0.3939604795786546,0.5021762311222471,-0.2622722315188925,0.33009244519190417,0.11244080969895899,0.38557221671442415,5.0
0.3419615914157801,0.35129798062703216,-0.23543965184452187,0.39340614169141447,-0.020650945373366286,0.2416054145280321,5.0
0.3315618137832055,0.20697965196015758,-0.21755124799888942,0.4311150331234801,-0.15179501304324286,0.05884516113765574,5.0
0.36969433176931327,0.1676201048423198,-0.22649544992170564,0.450667795008614,-0.3413696008361164,-0.0877078651707585,5.0
0.4355593473843678,0.20697965196015758,-0.24736524571025093,0.412027785067849,-0.3329296385890109,-0.19719160984275244,5.0
0.5326236958971481,0.2856987408132345,-0.2741978253846215,0.3533695448372943,-0.1952932812273225,-0.251502443565524,5.0
0.6123553244135563,0.4496968421419283,-0.2980490131160793,0.27934834888651816,0.07608403097646754,-0.29719250502378536,5.0
0.6192885095019389,0.4956163218533035,-0.28910482424030226,0.2486225964330389,0.26890475322223845,-0.3402963453172411,5.0
0.5464900660739137,0.5415357728574863,-0.2831420142603986,0.31007412405242085,0.2507263876164407,-0.321330625306224,5.0
0.442492532472752,0.5808953145927255,-0.2712164203946696,0.39666492019732114,0.2377418181309204,-0.2704681215183515,5.0
0.42515956975179314,0.6464945508181241,-0.2682350414987959,0.3380066345419196,0.20268349635698116,-0.22564012677199372,5.0
0.45635890264951706,0.6399346415491804,-0.2533280426431152,0.19136094311583918,0.08127785877067564,-0.1583981451670044,5.0
0.5048911982682008,0.6202548563279646,-0.2741978253846215,0.048905114635729566,0.12932073419317006,-0.0877078651707585,5.0
0.5152909759007777,0.5874552525688617,-0.2831420142603986,-0.02930592722669994,0.15399140037869327,-0.044604035391850205,5.0
0.4979580131798183,0.4956163218533035,-0.21755124799888942,-0.030702548208690207,0.023496560193282372,-0.0023622828393928667,5.0
0.491024828091433,0.3775376822939898,-0.1966814652573833,0.048905114635729566,0.03972726017245873,0.08384538460433434,5.0
0.459825495193708,0.3578579114263702,-0.21755124799888942,0.0954593025702981,0.11244080969895899,0.20022572868747843,5.0
0.40782684975542105,0.4496968421419283,-0.2533280426431152,0.13642699522069396,0.06829329720363803,0.2726401736511737,5.0
0.42169297720760135,0.5021762311222471,-0.2533280426431152,0.1652906015064685,-0.038829330775370687,0.18901873525816268,5.0
0.48409164300305046,0.45625676576446816,-0.22053265298884117,0.08661400606779536,0.007265860214106001,0.06660385091844113,5.0
0.4979580131798183,0.35129798062703216,-0.20562565413316047,-0.009753165341566122,0.0007735794305871945,0.031258707963101734,5.0
0.4667586802820939,0.2922586644357744,-0.23245824685457012,-0.009287623121534075,-0.055060031744357384,0.03556909146671995,5.0
0.42169297720760135,0.36441783504891,-0.2771792303745732,0.02423139400834917,-0.09011834757943485,0.015741328401530957,5.0
0.42169297720760135,0.35129798062703216,-0.24140244877738634,0.07823425746343039,-0.19594251762008116,-0.02305212050239603,5.0
0.41475979211921826,0.2791388171906946,-0.2533280426431152,0.1592385583241579,-0.31085588630059174,-0.09029409685011155,5.0
0.4320927548401765,0.2791388171906946,-0.28910482424030226,0.2388462154904719,-0.32773581079480274,-0.10063902356752369,5.0
0.48062505045885895,0.462816689387008,-0.33084441581739243,0.22162115902739232,-0.2686560592280989,-0.05150065320345829,5.0
0.4979580131798183,0.6989739685056355,-0.31891882195166343,0.16994601235057724,-0.2524253552896811,0.08815576810795255,5.0
0.5048911982682008,0.7580132954620904,-0.31891882195166343,0.14247903840300455,-0.1290720322805477,0.30022662386851123,5.0
0.591555769148406,0.7580132954620904,-0.3636397924246275,0.18996431077763723,-0.04337392712587179,0.42695190255497817,5.0
0.6019555467809795,0.7317736009719312,-0.4053793579076396,0.25514017615727563,0.09945624021343873,0.47436611846614135,5.0
0.5880891766042144,0.66617433603934,-0.4590445433504591,0.14760000850146288,0.17541591627435377,0.4726419429841445,5.0
0.4667586802820939,0.462816689387008,-0.42923057173317575,-0.07399794912019331,0.008564317162658036,0.45195213160751,5.0
0.41822638466341006,0.5087361690983833,-0.3874909801560853,-0.19364221733589193,-0.13037048131061707,0.4881593540893575,5.0
0.3419615914157801,0.5612155580787022,-0.31295601197176004,-0.26114579949379624,-0.23684388774402207,0.5157457832776002,5.0
0.31076225851805567,0.6333747035730445,-0.24140244877738634,-0.32352840019703066,-0.33747421415349493,0.6140225240057309,5.0
0.3315618137832055,0.672734274015476,-0.24736524571025093,-0.36170285088344595,-0.39200937431874955,0.6191949663353424,5.0
0.39742707212284645,0.6268147943041007,-0.28910482424030226,-0.4184989676587194,-0.4712152006695274,0.5554013146652522,5.0
0.47715845791466793,0.5808953145927255,-0.38152817017618185,-0.49624447865732857,-0.5302949680731965,0.4726419429841445,5.0
0.5534232511622985,0.5415357728574863,-0.48587710997779043,-0.6242685039945509,-0.5140642641347789,0.41660697583756584,5.0
0.584622584060023,0.4300170712743087,-0.536560890430658,-0.7448438538112607,-0.3731817564832278,0.30022662386851123,5.0
0.5568898437064895,0.3578579114263702,-0.5276167276489591,-0.7737074373846119,-0.21217322155849885,0.19419119861686873,5.0
0.5152909759007777,0.3578579114263702,-0.4799143521860432,-0.7048072569571406,-0.14595195677475875,0.025224172635218388,5.0
0.48062505045885895,0.3578579114263702,-0.4322119506290494,-0.664305100848671,-0.15309346999179488,-0.02132796604949401,5.0
0.48062505045885895,0.3709777586714499,-0.4351933556190011,-0.5879561994758404,-0.12387820448633959,-0.10667355363813336,5.0
0.48062505045885895,0.4037773767841492,-0.44115616559890475,-0.5060208595998956,0.030638069451077186,-0.28598549056537487,5.0
0.4944914206356268,0.4037773767841492,-0.42923057173317575,-0.48320927378400824,0.10529928856344019,-0.4196073660343548,5.0
0.4944914206356268,0.4300170712743087,-0.3874909801560853,-0.5255736214850293,0.18645279241856336,-0.47219406633331906,5.0
0.47022527282628546,0.3840976059165297,-0.32190020084753707,-0.529297913820439,0.11893307860475383,-0.4437455283749832,5.0
0.46329208773790237,0.3381781333819525,-0.2741978253846215,-0.47343291555386463,-0.005718701352931616,-0.23253674458360166,5.0
0.48409164300305046,0.3184983625143329,-0.31295601197176004,-0.44596594160629194,0.007915088688382008,-0.08512164400595289,5.0
0.48409164300305046,0.3184983625143329,-0.31295601197176004,-0.42082667308077376,-0.013509437105381794,-0.017017585174512646,5.0
0.45289231010532605,0.39721745316160934,-0.3755653862903565,-0.42641317972115816,-0.11673669918778609,0.03901739774388714,5.0
0.4736918653704764,0.4496968421419283,-0.39047238514603727,-0.4143090933565368,-0.1991886520729786,0.1416045193469993,5.0
0.4736918653704764,0.4496968421419283,-0.39047238514603727,-0.390100897914871,-0.1777641361773181,0.2140189537961472,5.0
0.4944914206356268,0.4890563838771674,-0.402397979011766,-0.3463399633004946,-0.044672383084613486,0.311433617297827,5.0
0.5048911982682008,0.4234571476517688,-0.38152817017618185,-0.31095877729048327,0.03193652639962922,0.37867559890281627,5.0
0.5083577908123919,0.2397792723156063,-0.402397979011766,-0.24531737536891876,0.04621954491521888,0.45540044051331413,5.0
0.5256905108087656,0.20697965196015758,-0.42923057173317575,-0.23507544652821394,0.07803171639929558,0.5122974743717964,5.0
0.5291571033529566,0.20697965196015758,-0.4202863567633204,-0.19596992843605207,0.08127785877067564,0.4329864115964929,5.0
0.5291571033529566,0.20697965196015758,-0.4202863567633204,-0.13405285291853217,0.15983444872869473,0.36229614211479444,5.0
0.5326236958971481,0.20697965196015758,-0.40836076289759154,-0.11217238419181752,0.21112345860408663,0.32436476518004476,5.0
0.4979580131798183,0.2594590445288755,-0.3994165740218143,-0.06654927643873364,0.2409879525838179,0.3286751618268472,5.0
0.4979580131798183,0.2594590445288755,-0.3994165740218143,-0.022322793926219407,0.275397053801964,0.30195077832141326,5.0
0.47715845791466793,0.2594590445288755,-0.3606583874346758,-0.03628905484907465,0.24228642536933528,0.24074332678703372,5.0
0.44942571756113453,0.2397792723156063,-0.324881605837489,-0.05025531009382406,0.15464062093448663,0.20022572868747843,5.0
0.44942571756113453,0.2397792723156063,-0.324881605837489,-0.047927598993663875,0.08127785877067564,0.1381562104411953,5.0
0.44942571756113453,0.2397792723156063,-0.31295601197176004,0.0032820111412250417,0.03583189328604396,0.12005260445754513,5.0
0.4320927548401765,0.2791388171906946,-0.324881605837489,0.07404438316124781,0.01700427940976356,0.07522461759709793,5.0
0.442492532472752,0.29881859164671326,-0.34873279356894676,0.12478844539799898,-0.0024725609611722216,0.1097076829974067,5.0
0.4736918653704764,0.3381781333819525,-0.3517141985588985,0.13689253176262015,-0.005069472878655613,0.06401762096413104,5.0
0.47715845791466793,0.32505828613687276,-0.3666211974145792,0.12758171007440275,-0.060903084053600176,0.043327781247505345,5.0
0.491024828091433,0.35129798062703216,-0.3994165740218143,0.11780532913183579,-0.07193996217743044,0.05970723770694754,5.0
0.5048911982682008,0.3775376822939898,-0.3874909801560853,0.08056196288548462,-0.0167555774971412,0.031258707963101734,5.0
0.5152909759007777,0.39721745316160934,-0.3994165740218143,0.06054366445842465,0.04621954491521888,0.018327560080883976,5.0
0.5014246057240093,0.3316182097594126,-0.3546956035488502,0.030283437190659776,0.028690384028249145,0.010568870300098591,5.0
0.4944914206356268,0.2922586644357744,-0.3368071997032178,0.027490183870467578,0.004019719822346589,0.014879251175079955,5.0
0.4736918653704764,0.2725788935681548,-0.30401182309598296,0.06426800221868086,-0.03753087481662899,0.0890178427057667,5.0
0.4736918653704764,0.2725788935681548,-0.2950676081261276,0.09732147145042624,-0.0362324188578873,0.09936276416590513,5.0
0.4875582355472415,0.34473805700449234,-0.30401182309598296,0.12059857109581641,-0.04012778673411239,0.12953544869123254,5.0
0.4979580131798183,0.3775376822939898,-0.32190020084753707,0.1173397698774864,-0.007666384796138998,0.09850068693945413,5.0
0.5014246057240093,0.36441783504891,-0.3457513885789951,0.0880106384059972,0.042324174069562764,0.052810624166874334,5.0
0.46329208773790237,0.30537851526925314,-0.32786301082744074,0.08568292162773126,-0.003121789435448224,-0.028224578603828387,5.0
0.41822638466341006,0.2791388171906946,-0.31295601197176004,0.09592483911222428,-0.13881045147620522,-0.15236361509639473,5.0
0.42169297720760135,0.2791388171906946,-0.28016063536452496,0.12478844539799898,-0.24917922083678362,-0.32650310969402496,5.0
0.45635890264951706,0.2856987408132345,-0.2622722315188925,0.1592385583241579,-0.26800682283534016,-0.33339972750563285,5.0
0.491024828091433,0.3381781333819525,-0.30401182309598296,0.17180818123070543,-0.232948516898366,-0.2713301882302551,5.0
0.511824383356584,0.3709777586714499,-0.3517141985588985,0.11827086567376204,-0.14140735745482663,-0.17477760195502617,5.0
0.5222241609891602,0.39721745316160934,-0.4053793579076396,0.006540801003343474,-0.1290720322805477,-0.12908754049676485,5.0
0.48409164300305046,0.4496968421419283,-0.3755653862903565,-0.05258302119398424,-0.15309346999179488,-0.11184601699683942,5.0
0.48062505045885895,0.5152960783673269,-0.3755653862903565,-0.09355070816627421,-0.18036105007442213,-0.13684624604937132,5.0
0.47715845791466793,0.521856016343463,-0.3546956035488502,-0.10472371399452918,-0.21282244211429222,-0.06788010999148007,5.0
0.5048911982682008,0.4956163218533035,-0.3696025763104529,-0.13544947957862827,-0.13945967995048125,0.030396630736650734,5.0
0.5152909759007777,0.4956163218533035,-0.34277000968312143,-0.1796759620911425,-0.08946911910515881,0.13988036489409728,5.0
0.5222241609891602,0.5087361690983833,-0.33084441581739243,-0.21366051576295197,0.002721264853415232,0.19936365146102744,5.0
0.5014246057240093,0.4824964746082238,-0.31891882195166343,-0.19876317607813848,0.0741363455536395,0.2148810310225982,5.0
0.48062505045885895,0.4824964746082238,-0.3069932019918566,-0.1494157376624306,0.09231473491488522,0.22005349438130425,5.0
0.4736918653704764,0.3840976059165297,-0.324881605837489,-0.12660418307612542,0.1390591533888276,0.24332956898093414,5.0
0.42515956975179314,0.20041972654341816,-0.3069932019918566,-0.07725674182136463,-0.005069472878655613,0.2553986291221535,5.0
0.41822638466341006,0.1676201048423198,-0.32190020084753707,0.022369225128221024,-0.12452743296061561,0.26143318022185796,5.0
0.45635890264951706,0.12170063948454075,-0.3546956035488502,0.050767283515857686,-0.21801626990850032,0.21315687656969617,5.0
0.491024828091433,0.16106018121977994,-0.3874909801560853,0.05309498893791207,-0.24268693609402353,0.1847083491259076,5.0
0.491024828091433,0.1741800320532587,-0.4322119506290494,0.08242413176561278,-0.2056809368157387,0.09850068693945413,5.0
0.491024828091433,0.22009950010233706,-0.4232677617532721,0.14015133298095034,-0.15049655609469081,0.07177631066277153,5.0
0.4979580131798183,0.22009950010233706,-0.4053793579076396,0.128047246616329,-0.07648455753812118,0.043327781247505345,5.0
0.5222241609891602,0.19385980292087832,-0.3934537640419109,0.12013303455389018,0.04621954491521888,0.05194854825474175,5.0
0.491024828091433,0.18073995567579862,-0.38152817017618185,0.10570122005479125,0.01830273635831559,0.025224172635218388,5.0
0.4667586802820939,0.18073995567579862,-0.3874909801560853,0.0800964263435584,-0.06220153902253155,-0.010983049846629272,5.0
0.4736918653704764,0.2791388171906946,-0.39047238514603727,0.054491621276114045,-0.06155231252787619,-0.022190043275945003,5.0
0.48062505045885895,0.2594590445288755,-0.3666211974145792,0.008868506425397812,-0.0888198906308828,-0.06529387831212705,5.0
0.4944914206356268,0.30537851526925314,-0.3517141985588985,-0.00044232661903124916,-0.06739536285749834,-0.018741739627414686,5.0
0.4979580131798183,0.2922586644357744,-0.3666211974145792,-0.0037011164811496387,-0.029090910156860786,0.009706793073647562,5.0
0.4979580131798183,0.3316182097594126,-0.3666211974145792,0.03307669051085201,0.024795017141834384,0.04505193438608894,5.0
0.4979580131798183,0.3578579114263702,-0.3755653862903565,0.0442496924354092,0.08517322169784906,0.030396630736650734,5.0
0.47022527282628546,0.35129798062703216,-0.3517141985588985,0.0014198422610969175,0.09036704949205716,0.05539685453190894,5.0
0.4320927548401765,0.32505828613687276,-0.33382579471326607,-0.015339666303844705,0.03388421182245726,0.046776087524672536,5.0
0.4320927548401765,0.31193843889179307,-0.34873279356894676,-0.03396134374891447,-0.0647984529196356,0.04160362810892175,5.0
0.45635890264951706,0.32505828613687276,-0.3755653862903565,-0.07213578024006516,-0.13491508063054916,0.03901739774388714,5.0
0.48409164300305046,0.35129798062703216,-0.40836076289759154,-0.1387082722797996,-0.1206320621149595,0.018327560080883976,5.0
0.491024828091433,0.3906575295390695,-0.4202863567633204,-0.17502053989082214,-0.04986620790939061,0.11919052723109413,5.0
0.5187575684449692,0.4693766130095478,-0.40836076289759154,-0.17827933543104643,0.014407369471900825,0.1924670441639667,5.0
0.5152909759007777,0.4759365366320877,-0.40836076289759154,-0.17455499767079014,0.10075469716199074,0.22091557160775527,5.0
0.48062505045885895,0.43657699489684854,-0.4053793579076396,-0.2015564293983307,0.07738248792501957,0.22953633335771798,5.0
0.4736918653704764,0.39721745316160934,-0.4232677617532721,-0.2294889512440412,0.05595796411087642,0.2140189537961472,5.0
0.47022527282628546,0.36441783504891,-0.40836076289759154,-0.21971257030147429,-0.0122109811466401,0.1622943622672762,5.0
0.511824383356584,0.30537851526925314,-0.3457513885789951,-0.23926532083039642,-0.05830617213611679,0.11832845000464311,5.0
0.5291571033529566,0.2725788935681548,-0.3576769824447239,-0.20621185159865107,0.01051199862624475,0.11832845000464311,5.0
0.5326236958971481,0.2725788935681548,-0.3457513885789951,-0.18433137861335702,0.11244080969895899,0.13729413847201793,5.0
0.4944914206356268,0.22009950010233706,-0.33382579471326607,-0.1498812770434097,0.15204370703738257,0.1355699840191159,5.0
0.4459591250169435,0.21353957558269743,-0.324881605837489,-0.0954128756268759,0.11633616470764976,0.09677653248655212,5.0
0.42515956975179314,0.2397792723156063,-0.30103041810603104,-0.02930592722669994,0.06374869788370591,0.10194899321662132,5.0
0.4355593473843678,0.2791388171906946,-0.3368071997032178,0.0004887578210328447,0.005967403265553973,0.11315599190321074,5.0
0.46329208773790237,0.3316182097594126,-0.3666211974145792,0.007471885443407546,-0.04597083904335518,0.1079835285445047,5.0
0.48062505045885895,0.3775376822939898,-0.34873279356894676,-0.05118639453388814,-0.08492451978522673,0.06229346766125764,5.0
0.4944914206356268,0.43657699489684854,-0.3457513885789951,-0.1261386408560934,-0.13037048131061707,0.04850024066325613,5.0
0.4979580131798183,0.4890563838771674,-0.3696025763104529,-0.21738485352320824,-0.12193051906351154,0.10625937672023951,5.0
0.4944914206356268,0.5152960783673269,-0.4053793579076396,-0.28675060456124074,-0.008315613270415011,0.1622943622672762,5.0
0.45635890264951706,0.4759365366320877,-0.3964351690318626,-0.31980408514919784,-0.0005248755383441622,0.1847083491259076,5.0
0.4459591250169435,0.4037773767841492,-0.3755653862903565,-0.33702911889985404,-0.10699827207364587,0.18815665803171167,5.0
0.46329208773790237,0.36441783504891,-0.3606583874346758,-0.353323102279081,-0.18750255537297564,0.17350135569659192,5.0
0.48062505045885895,0.32505828613687276,-0.3636397924246275,-0.38963536137294486,-0.21996394741284572,0.16057020781437412,5.0
0.491024828091433,0.32505828613687276,-0.3666211974145792,-0.393359699133201,-0.17841335673311146,0.15884605336147212,5.0
0.48062505045885895,0.2594590445288755,-0.3636397924246275,-0.3956874045552555,-0.13621353757910118,0.14591490547925434,5.0
0.48062505045885895,0.24633919638669605,-0.3755653862903565,-0.3398223835762578,-0.12193051906351154,0.18815665803171167,5.0
0.5014246057240093,0.24633919638669605,-0.39047238514603727,-0.23973086872853427,-0.0888198906308828,0.16315643949372716,5.0
0.5152909759007777,0.22009950010233706,-0.3845095751661336,-0.1810725887512386,-0.042724698651595776,0.16143228504082513,5.0
0.5222241609891602,0.19385980292087832,-0.3874909801560853,-0.1824692154113347,0.003370491348070586,0.12781129423833054,5.0
0.4875582355472415,0.19385980292087832,-0.38152817017618185,-0.1605887424260407,0.04751800186377088,0.14505282825280338,5.0
0.46329208773790237,0.20697965196015758,-0.3517141985588985,-0.12706972529615745,0.009213545636934042,0.0976386097130031,5.0
0.4667586802820939,0.22009950010233706,-0.3606583874346758,-0.11077575895124787,-0.019352489414624592,0.05194854825474175,5.0
0.48062505045885895,0.2266594241734268,-0.37258398130040454,-0.0483931412136959,-0.0037710159301035783,0.012293019495726924,5.0
0.48062505045885895,0.22009950010233706,-0.3964351690318626,0.0158516454039842,0.051413364790944334,-0.03856950532124051,5.0
0.491024828091433,0.22009950010233706,-0.3874909801560853,0.042853071453418934,0.08387477266777968,-0.02046588882304299,5.0
0.491024828091433,0.22009950010233706,-0.38152817017618185,0.06473353876060704,0.12737304085185935,-0.05150065320345829,5.0
0.48062505045885895,0.2660189699456149,-0.38152817017618185,0.08149304732554871,0.13061919114172207,-0.012707199042257596,5.0
0.4944914206356268,0.32505828613687276,-0.3755653862903565,0.08568292162773126,0.10659774551199222,0.019189634678698143,5.0
0.5048911982682008,0.3709777586714499,-0.3874909801560853,0.07357883526310992,0.0955608772862653,0.033844937013817925,5.0
0.4979580131798183,0.3775376822939898,-0.3845095751661336,0.0475084936537393,0.0910162779663332,0.07263838723206333,5.0
0.48409164300305046,0.3709777586714499,-0.3874909801560853,0.03121452163072387,0.12152999250185788,0.10367314766952335,5.0
0.48409164300305046,0.3709777586714499,-0.3874909801560853,0.03633548037297045,0.12672382029606602,0.15453566722921705,5.0
0.459825495193708,0.3578579114263702,-0.3517141985588985,0.016782729844048275,0.11179157330620032,0.1502252863542357,5.0
0.45635890264951706,0.35129798062703216,-0.3576769824447239,-0.013011955203684512,0.06115178398660187,0.14419075102635232,5.0
0.4667586802820939,0.3381781333819525,-0.3666211974145792,-0.07399794912019331,0.030638069451077186,0.12263883087962446,5.0
0.4667586802820939,0.3316182097594126,-0.3696025763104529,-0.08423986944373933,-0.008964841744691025,0.060569314276239336,5.0
0.48409164300305046,0.34473805700449234,-0.3785467912803082,-0.1135690101421504,0.008564317162658036,0.06143139100982094,5.0
0.4875582355472415,0.2922586644357744,-0.3755653862903565,-0.09960275294555211,0.059204106482256484,0.033844937013817925,5.0
0.4736918653704764,0.2856987408132345,-0.3636397924246275,-0.06282494151753028,0.08192708724495165,0.09332822620938493,5.0
0.4736918653704764,0.2922586644357744,-0.34873279356894676,-0.03023700598865818,0.051413364790944334,0.1416045193469993,5.0
0.491024828091433,0.30537851526925314,-0.3606583874346758,-0.009753165341566122,0.04362263101811481,0.1416045193469993,5.0
0.491024828091433,0.30537851526925314,-0.3606583874346758,-0.056772898335219646,0.04037648864673474,0.1502252863542357,5.0
0.4875582355472415,0.3184983625143329,-0.3606583874346758,-0.08982637324507085,0.06439792635798194,0.15281151277631502,5.0
0.48062505045885895,0.2791388171906946,-0.3457513885789951,-0.12846635195625358,0.05595796411087642,0.11574221832529008,5.0
0.48062505045885895,0.2791388171906946,-0.3457513885789951,-0.12939743639631765,0.0553087356366004,0.10453522489597433,5.0
0.47022527282628546,0.2791388171906946,-0.33084441581739243,-0.11775888799314904,0.01765350788403956,0.0890178427057667,5.0
0.47715845791466793,0.30537851526925314,-0.3368071997032178,-0.08284324420316969,0.04167494559528677,0.05108647102829074,5.0
0.48409164300305046,0.30537851526925314,-0.28910482424030226,-0.06422156817762638,0.06180101246087789,0.05625893110120074,5.0
0.4736918653704764,0.2922586644357744,-0.3368071997032178,-0.07167023802003313,0.07024098262646607,0.04418985847395635,5.0
0.48062505045885895,0.29881859164671326,-0.2920862292302539,-0.09308516594624218,0.06374869788370591,0.06746592748773293,5.0
0.48409164300305046,0.30537851526925314,-0.32786301082744074,-0.1131034686318816,0.04102571712101074,0.054534777962617145,5.0
0.4979580131798183,0.30537851526925314,-0.3069932019918566,-0.12101768069432037,0.06180101246087789,0.045914011612539954,5.0
0.5048911982682008,0.32505828613687276,-0.33084441581739243,-0.1559333259038262,0.07673325945074355,0.05108647102829074,5.0
0.5083577908123919,0.32505828613687276,-0.3457513885789951,-0.19550438621602007,0.08127785877067564,0.033844937013817925,5.0
0.4979580131798183,0.34473805700449234,-0.32786301082744074,-0.24392074303071679,0.08322554419350368,0.05970723770694754,5.0
0.4944914206356268,0.35129798062703216,-0.3368071997032178,-0.27743976016059996,0.12088077194606452,0.04505193438608894,5.0
0.47715845791466793,0.3840976059165297,-0.324881605837489,-0.2965269855038077,0.10659774551199222,0.02953455613883657,5.0
0.48062505045885895,0.3709777586714499,-0.30103041810603104,-0.2914060154053494,0.08192708724495165,-0.009258895393727252,5.0
0.47715845791466793,0.3381781333819525,-0.2741978253846215,-0.2900093944233592,0.06180101246087789,-0.013569276268708595,5.0
0.459825495193708,0.3316182097594126,-0.2712164203946696,-0.31235540962868524,0.02609347409038642,0.03729324591962197,5.0
0.44942571756113453,0.35129798062703216,-0.2831420142603986,-0.3025790286861183,-0.0277924540743928,0.05108647102829074,5.0
0.45635890264951706,0.3578579114263702,-0.28910482424030226,-0.3076999760721531,-0.026493997930061665,0.09591445788873793,5.0
0.491024828091433,0.3578579114263702,-0.2950676081261276,-0.31980408514919784,-0.027143226033158805,0.10281107044307232,5.0
0.5187575684449692,0.3381781333819525,-0.3099746069818083,-0.33051153917561704,-0.031038594280562767,0.0890178427057667,5.0
0.5014246057240093,0.3184983625143329,-0.30401182309598296,-0.32678720141536083,-0.0407770152083884,0.11401806912966175,5.0
0.4875582355472415,0.29881859164671326,-0.28910482424030226,-0.29187156330348724,-0.06220153902253155,0.09332822620938493,5.0
0.5048911982682008,0.2922586644357744,-0.31593741696171174,-0.2653356737959788,-0.032986278466127894,0.1321216751133119,5.0
0.5048911982682008,0.2922586644357744,-0.30401182309598296,-0.2332132776480858,0.022847331719006343,0.1079835285445047,5.0
0.4944914206356268,0.2660189699456149,-0.2712164203946696,-0.17315837668879985,0.028690384028249145,0.18557042635235863,5.0
0.48409164300305046,0.20697965196015758,-0.2682350414987959,-0.1131034686318816,-0.014158665579657807,0.18643250357880964,5.0
0.491024828091433,0.18729987929833847,-0.2622722315188925,-0.06468711039765841,-0.02519554197131997,0.1743634329230429,5.0
0.48062505045885895,0.21353957558269743,-0.2622722315188925,-0.03303025930885039,-0.032337050486757044,0.14505282825280338,5.0
0.48409164300305046,0.21353957558269743,-0.28016063536452496,-0.005563285361277784,-0.08557374825950273,0.08212123015143233,5.0
0.48409164300305046,0.24633919638669605,-0.3099746069818083,-0.011615334221694256,-0.05441080327008136,0.052810624166874334,5.0
0.491024828091433,0.24633919638669605,-0.28016063536452496,0.01166175974559003,-0.010912525187898403,0.031258707963101734,5.0
0.48409164300305046,0.24633919638669605,-0.2831420142603986,0.03447331149284228,-0.025844769950690818,0.003672257745764216,5.0
0.48062505045885895,0.25289912090633565,-0.3069932019918566,0.05635379015624208,-0.06934304828032636,-0.01787966240096366,5.0
0.491024828091433,0.25289912090633565,-0.2980490131160793,0.08428630064574097,-0.10310290914647247,-0.013569276268708595,5.0
0.5048911982682008,0.24633919638669605,-0.3099746069818083,0.1140809913715796,-0.08622297673377873,-0.02046588882304299,5.0
0.491024828091433,0.30537851526925314,-0.2980490131160793,0.14666891270518712,-0.05441080327008136,-0.015293430721610626,5.0
0.4875582355472415,0.30537851526925314,-0.2980490131160793,0.1592385583241579,-0.053112348301150004,0.013155096722177925,5.0
0.4944914206356268,0.32505828613687276,-0.31295601197176004,0.16854938001237524,-0.05700771518756475,0.017465482854432977,5.0
0.48062505045885895,0.3381781333819525,-0.3099746069818083,0.15644529364775409,-0.03818010230109468,0.026086247233032517,5.0
0.4667586802820939,0.32505828613687276,-0.28910482424030226,0.14247903840300455,-0.10050599524936839,0.02263794095586533,5.0
0.4667586802820939,0.29881859164671326,-0.3069932019918566,0.11501206445543202,-0.14335504287765466,0.03643116869317096,5.0
0.491024828091433,0.3381781333819525,-0.3099746069818083,0.1070978523929932,-0.15114578456896685,0.04246570402105433,5.0
0.5048911982682008,0.32505828613687276,-0.31295601197176004,0.08847617494792337,-0.11673669918778609,0.046776087524672536,5.0
0.4979580131798183,0.3840976059165297,-0.31891882195166343,0.07450991970317401,-0.09271525751729755,0.06919008095489614,5.0
0.4875582355472415,0.3709777586714499,-0.33084441581739243,0.040990902573290765,-0.1258258899091676,0.020913789131600163,5.0
0.4875582355472415,0.35129798062703216,-0.3397886046931695,0.012592844185654102,-0.11349055681640603,0.028672478912385575,5.0
0.4979580131798183,0.3316182097594126,-0.34873279356894676,-0.00882208090150205,-0.09076757605371084,0.005396406941392519,5.0
0.48409164300305046,0.35129798062703216,-0.3606583874346758,-0.006959912021373883,-0.08037992442453597,0.00798263862074557,5.0
0.4944914206356268,0.3316182097594126,-0.34873279356894676,-0.0041666643792875185,-0.07388764364101716,0.020051711905149167,5.0
0.491024828091433,0.35129798062703216,-0.3368071997032178,0.008402969883471641,-0.042724698651595776,-0.004086432035021199,5.0
0.48409164300305046,0.32505828613687276,-0.3368071997032178,-0.009753165341566122,-0.0024725609611722216,-0.011845121815806605,5.0
0.491024828091433,0.3381781333819525,-0.33084441581739243,-0.006028833259415664,0.0007735794305871945,0.018327560080883976,5.0
0.491024828091433,0.3578579114263702,-0.3368071997032178,-0.013943039643748585,-0.02194940182701315,0.049362317889707144,5.0
0.491024828091433,0.3709777586714499,-0.33382579471326607,-0.07120469580000108,-0.03688164634235298,0.08212123015143233,5.0
0.491024828091433,0.36441783504891,-0.34277000968312143,-0.09587841784690794,-0.03428473442486959,0.07953500110071614,5.0
0.4944914206356268,0.39721745316160934,-0.3517141985588985,-0.14429477608113112,-0.007666384796138998,0.07522461759709793,5.0
0.48409164300305046,0.3709777586714499,-0.3576769824447239,-0.1824692154113347,-0.016106349022865184,0.13125959788686087,5.0
0.491024828091433,0.32505828613687276,-0.3457513885789951,-0.205280767158587,-0.005069472878655613,0.1381562104411953,5.0
0.4875582355472415,0.3316182097594126,-0.32786301082744074,-0.19783209163807441,-0.011561753662174417,0.1174663727781921,5.0
0.491024828091433,0.34473805700449234,-0.3517141985588985,-0.19364221733589193,0.02025042178114363,0.1079835285445047,5.0
0.5048911982682008,0.32505828613687276,-0.324881605837489,-0.18665908971351722,0.046868773389494876,0.14419075102635232,5.0
0.48062505045885895,0.2922586644357744,-0.3397886046931695,-0.18665908971351722,0.0553087356366004,0.1381562104411953,5.0
0.4667586802820939,0.2791388171906946,-0.3397886046931695,-0.19736655509614823,0.050114907842392295,0.16315643949372716,5.0
0.47715845791466793,0.2594590445288755,-0.31295601197176004,-0.20015980841634043,0.01570582642045286,0.13729413847201793,5.0
