acc_x,acc_y,acc_z,gyro_x,gyro_y,gyro_z,activity
-1.4042248078558421,0.410644817124861,2.2096127179580107,-0.2315252612415893,-0.07808399782535114,0.47492313792237123,0.0
-1.4225875156272147,0.4057745586305741,2.1707930629845906,-0.21132657750407405,-0.25080037690373463,0.4879938531426626,0.0
-1.381271423141626,0.3278504160616804,2.2322572901856264,-0.05792582080383781,-0.3044020042755706,0.6859213449648099,0.0
-1.381271423141626,0.3278504160616804,2.2322572901856264,-0.05792582080383781,-0.3044020042755706,0.6859213449648099,0.0
-1.436359385740265,0.3083693807524721,2.287251801397971,0.0474348506665429,0.011847638260277444,0.797022151045731,0.0
-1.4776754782258537,0.3765530050007314,2.2613720314156915,-0.13107778639694703,-0.3115488937364077,0.8203626618835742,0.0
-1.3078207527716148,0.36194222818581007,2.1384433505067406,-0.37837509964987753,-0.769545066468401,0.6999256241383601,0.0
-1.261914144058662,0.2791478271226294,2.1449132930023103,-0.2315252612415893,-0.6093357512105557,0.8231634903891284,0.0
-1.257323467115819,0.22557497835723095,2.1934378617190857,0.022322978626212867,-0.01971777021555026,0.9025212090183578,0.0
-1.3583180384274103,0.2742775686283425,2.2322572901856264,-0.03936487371379467,0.17622598508240628,0.9977504713734329,0.0
-1.3399554913715166,0.29862886376389824,2.1804979767279455,-0.02407938826660261,0.24769483610633483,0.8595747164472629,0.0
-1.2710954979443485,0.29862886376389824,2.190202890471301,0.09056175092275306,0.40194842467496295,0.6102981098915793,0.0
-1.2710954979443485,0.29862886376389824,2.190202890471301,0.14078548168673538,0.22982762698238934,0.4207731719089842,0.0
-1.261914144058662,0.24992627082866561,2.1869679192235156,0.22594748773003281,0.4138599071096912,0.3722249312295953,0.0
-1.321592783600144,0.2645370516397686,2.2516671176723366,0.2701662090887216,0.5740692223675365,0.32367666777591,0.0
-1.3583180384274103,0.26940731013405556,2.2646070026634764,0.27671713570359335,0.7908580573981205,0.18923535085714596,0.0
-1.427178192570058,0.3034991222581852,2.2419622039289813,0.2930944389240945,1.180958852892898,0.20043879013799357,0.0
-1.427178192570058,0.3034991222581852,2.2419622039289813,0.39845511538822936,1.2059729514776802,0.22097843830883765,0.0
-1.3629087153702537,0.3375909340492997,2.2516671176723366,0.5556772476117255,1.0481459036504865,0.30873873355191556,0.0
-1.4042248078558421,0.3327206752219976,2.2063777467102255,0.6959761727218199,1.3572487348142879,0.33861460199990434,0.0
-1.4042248078558421,0.3327206752219976,2.2063777467102255,0.5305653489380395,1.1011520222772477,1.3833357049487685,0.0
-1.6062141111945036,0.4203853341134349,2.0058098691078743,-0.8838879105471689,-2.745063200639658,2.7921687040902357,0.0
-1.3170021066573014,0.318109897741046,2.2646070026634764,-0.20259202200092308,-0.23174200500816952,1.4188132304078662,0.0
-1.3170021066573014,0.318109897741046,2.2646070026634764,0.5152798801366949,0.5984877831509499,1.8193363982071962,0.0
-1.5327634408244923,0.5177905093274158,2.3648908848379326,0.7123534493089653,0.4728216943130815,1.6531519938367405,0.0
-2.1433221884988,0.7564331755474755,2.5945733904169104,0.8783100970855787,0.064853700590469,2.9508840502515095,0.0
-2.1433221884988,0.7564331755474755,2.5945733904169104,0.801336822552599,-1.0244505871775273,3.830354494977547,0.0
-1.927560854331609,0.8051357818033137,2.296956715141327,0.13587229338392048,-0.945239294363246,4.087099886450858,0.0
-1.6016235146094004,0.5177905093274158,1.9184658719245582,-0.4859194183189697,-0.13645021817107852,4.1589886835166805,0.0
-1.1333753503745327,-0.00819744002502616,2.1125635805244607,-0.36745688862509146,0.5234454583403091,3.4447692614022123,0.0
-1.1333753503745327,-0.00819744002502616,2.1125635805244607,-0.10651182823702578,0.7211759505316219,3.0731883980976105,0.0
-1.2114166976873875,-0.047159529292290496,2.1740280342323755,-0.21896932522142426,0.4013528578173,3.020905537216446,0.0
-1.3170021066573014,-0.09099182377141977,2.2128476892057956,-0.5137608364571573,-0.009593017410104751,3.2337710543597713,0.0
-1.2710954979443485,-0.1007323620729624,2.2451971751767665,-0.7037375484883,0.07378730515244167,2.9723572965370564,0.0
-1.3353648144286736,-0.05202975581712413,2.1610881492412353,-0.9537644611057995,-0.36157709090597245,2.7613592716889883,0.0
-1.4684941243401672,-0.12995393435165278,2.1610881492412353,-0.9171884475144273,-1.3478471391504145,2.8360487606145894,0.0
-1.5052194595251729,-0.16404573315517687,2.280781858902402,-0.3385236627011031,-1.6629056970034328,2.66426260813584,0.0
-1.4225875156272147,-0.139694430027258,2.4198853960502777,0.05726122727217246,-1.263275657448285,2.529821382314261,0.0
-1.206826020744544,-0.16404573315517687,2.4489999107734635,0.1888255702457602,-0.8070662143455746,2.2562705643216976,0.0
-1.0231994251772552,-0.2711913987165205,2.2646070026634764,-0.19167381097613703,-0.7903901679932489,2.036869917311188,0.0
-1.119603480261482,-0.29554270184443965,1.9605203848923236,-1.0078095058034064,-1.7010224407945633,1.8678846388865853,0.0
-1.165510088974435,-0.4513909736616217,2.0543343245712093,-0.5454236084790033,-2.325779251387575,1.3282520611106414,0.0
-0.665127427212884,-0.6462013134330988,2.2128476892057956,0.15934644042887164,-1.4365876179124784,0.09960780529570762,0.0
-0.660536750270041,-0.4952233107666886,2.1513832354978804,0.03924619239795335,-1.0786478976322023,-0.41108248221944194,0.0
-0.6513553963843546,-0.3442453081002779,1.9831650703733792,-0.45753206965452586,-1.6319358717294337,-0.8769589983772658,0.0
-0.47231931704442953,-0.4172991748580976,1.6758434813544412,-1.9025562401090679,-2.6658517916002014,-0.013360245409999631,0.0
-0.44477541610284943,-0.7289957184924611,1.6499638246256005,-1.1251802543448395,-2.2876625075964445,1.7138372946859768,0.0
-0.5733140490714997,-0.7874388630498421,1.6726085101066561,-0.7130180478343849,-3.9064321133153395,3.403689896737633,0.0
-1.0140180712915687,-0.5926285232783649,1.5949694266666954,-1.0094472441154632,-4.86054085389493,3.458773449478576,0.0
-0.8120287679529071,-0.5439259170225266,1.5820295416755552,-0.6687993264756962,-4.837909022740798,3.933052724444618,0.0
-0.47231931704442953,-0.8556224606568901,1.1420743580043116,-0.8265673892254483,-9.438716084035933,3.0517151518120635,0.0
-0.2336045981630225,-0.8020496705021563,0.8768072819531392,-1.431981811024515,-13.196190479515248,3.138541700907512,0.0
-0.33459933019009275,-0.6705526591869557,1.2100086409543571,-2.0570488795014183,-13.532690257820361,3.6576345963511674,0.0
-0.054568518823097475,-0.8799738064107473,1.7146630230744218,-3.1936339413977186,-9.63406457030324,4.556710977261864,0.0
0.07397011414555321,-1.0260815399263865,1.7373078218089166,-3.0937324370293657,-6.897998871064538,4.2560851648754605,0.0
0.13823926991439903,-1.0699138770314534,1.4299862327899788,-1.906923684319117,-6.367938149697631,2.9350125520742556,0.0
-0.0683405496516269,-0.719255265442794,0.7118240880764226,-1.3588297838417707,-6.846183828040513,1.5597898593881834,0.0
0.3126846723114814,-0.8069198544010522,0.5144912666619357,-2.0756097716601647,-8.60491295284342,-0.02736454735784621,0.0
0.2759592567687354,-1.386480775068464,0.9091569378042693,-2.1880673052654283,-8.712116265699683,-1.0216701564621737,0.0
0.11069552968829813,-1.430313026921655,0.9382716224076144,-1.6852840937327054,-5.276846881689815,-0.6650271818329754,0.0
0.09233282191692567,-0.831271200154909,0.21363958474686798,-1.6186830197981883,-3.5931601688664285,-0.5632625618677547,0.0
0.3356380570256969,-0.6705526591869557,-0.14867642346599522,-2.7432579297171245,-6.095761102947398,-3.1167139282738257,0.0
0.07397011414555321,-0.7679577864467565,-0.022512813779299153,-2.164593304703933,-4.785498906816111,-2.7329960047993787,0.0
0.46876736693719134,-0.8994547977619571,0.035716541270711395,-0.2992181296452292,-3.007711177667284,-2.156018682560634,0.0
0.8865180044430453,-0.9578979423193378,-0.045157570043754376,1.049725996858042,-1.1792998297727004,-2.0113077066700957,0.0
0.8819273275001993,-0.8897142594604143,-0.320129531524922,0.9924053690028983,-0.3603859281343525,-2.2540489100670413,0.0
0.9002900352715744,-0.8069198544010522,-0.44952809830272317,0.24832978703914957,-0.810044077690183,-2.239110975843047,0.0
1.0563727298972825,-0.8945845286111859,-0.5659868367161041,-0.2697389731949847,-1.8713564798015603,-2.2643186601360004,0.0
0.505492782479937,-1.021211270775615,-0.3848288432271823,-0.03445168208181041,-1.0619717931672887,-1.0114003152960296,0.0
0.08774214497408266,-0.8848439903096427,-0.35894912987162214,0.5327490177763526,0.7515501798916644,-0.4269540259452878,0.0
-0.004071393882780738,-0.7095147271412515,-0.333069388202702,-0.21678568301646706,0.3805077853487461,-1.8581939264227463,0.0
0.1749646854571443,-0.5585367244748407,-0.320129531524922,-1.2092503593855912,2.2285730719965575,-4.040997993477476,0.0
0.41827024199687385,-0.5487961861732982,-0.47540781165828344,-1.8468734570994045,0.6068257772708187,-4.266934316938281,0.0
0.7028915695912338,-0.841011738456452,-0.21337570685489599,-0.9461217000717713,-0.8868731030738125,-2.792747741695356,0.0
0.10151417580261209,-0.7874388630498421,-0.4657029545416482,-0.4373334125503664,0.04103075070316411,0.14815606020903185,0.0
0.10151417580261209,-0.7874388630498421,-0.4657029545416482,-0.13544507080686147,0.18992418261827024,0.6121653288952823,0.0
0.44581398222297475,-0.1494349683288006,-0.5206973525005536,0.07582217269763088,0.1470428749095426,-1.1859873418289266,0.0
0.5651715827368992,-0.33450476979873534,-0.6242162059227946,0.3433181563713987,0.4430430027544079,-3.954171444382028,0.0
0.5651715827368992,-0.33450476979873534,-0.6242162059227946,-1.4303440727124583,-0.22161725220272402,-2.6125591492485354,0.0
0.9783315432999072,-0.7728280555975282,-0.536872152112759,-0.414951086607894,0.4376828429228536,-1.5379621778516823,0.0
0.7947047870171381,-0.44652070451085,-0.6500959192783548,0.26306937858094964,1.2970956976703958,-1.3867156166080359,0.0
0.5881246460201552,-0.29067247531960605,-0.7633196864439507,-0.48864896441682726,1.1166369349142473,-1.4259276711717248,0.0
0.5973059999058413,-0.24196986906376777,-0.7115602597328303,-0.19931655869348727,0.8522021701447504,-1.2578760477975661,0.0
0.5009021055370939,-0.26145090304091567,-0.49481763914499355,-0.2986722257523288,1.0624397406847483,-1.2233320862917272,0.0
0.13823926991439903,-0.017937957013600108,-0.43658826993830285,-0.7239362322258153,2.0778929426864954,-1.162646785442491,0.0
0.05560740637418039,-0.19326726280792958,-0.22955053478046114,-0.4941080566125423,2.2863437254846217,-1.9730292160596659,0.0
-0.0683405496516269,-0.1981375319587012,-0.1454414522182103,-0.4531647852446115,3.784211719114364,-0.5221832883003629,0.0
0.3448194109113833,-0.4513909736616217,-0.1777911080693406,0.0834649204149811,2.365554902073728,1.814668214052161,0.0
1.019647635785495,0.07946721287213845,-0.4074735853349575,0.5261980645281252,-0.1298989100960515,1.857614706623256,0.0
0.7671607253600784,0.15252110094292698,-0.17455613682155563,0.26361528247384997,-0.4485308400387535,1.5271132079832328,0.0
0.6202593846200571,-0.027678495315143034,-0.025747785027084157,0.17463190923021632,-0.6009976989780988,1.5448520162613741,0.0
0.14742062380008544,-0.022808226164371403,-0.19073096474712076,-0.032813953757261975,-0.8017060835703143,1.1069841039992434,0.0
0.8681556181026293,-0.20300780110947247,-0.18102607931712558,-0.5312299474634592,-1.3538028658396315,-1.21586311917973,0.0
0.9461968047000046,-0.23222933076222518,-0.1227967101104351,-0.4215020132227656,-1.4878070069099567,-0.25890237979683284,0.0
0.9461968047000046,-0.23222933076222518,-0.1227967101104351,-0.6354987895084377,-1.4496902631188264,0.8707781215666661,0.0
0.6478034462771138,-0.4416505206119545,0.04218646960960145,0.28708941620212314,-1.4437345364296092,0.11734659079955279,0.0
0.5881246460201552,-0.16404573315517687,-0.5983364925672343,0.3072880999396384,-1.0339797731253098,-0.16460672694360914,0.0
0.6294407385057432,-0.027678495315143034,-0.5530469517249641,0.2587020941710353,0.19826222032258006,-0.08524900831437987,0.0
0.5881246460201552,-0.05690002496789576,-0.6759756326339149,-0.21896932522142426,0.5335702111457546,0.19670431796914312,0.0
0.5238554902513076,-0.22248883508662035,-0.40423861408717254,-0.3145035984465739,1.1487978357909847,0.336747360221905,0.0
0.4917207516514042,-0.2711913987165205,-0.31689458859049685,-0.07976222870443966,1.1112767460263993,-0.016161108076998592,0.0
0.5192648133084645,-0.1981375319587012,-0.3233645027727069,-0.04100260536751258,1.2631480671643758,-0.029231789135845503,0.0
0.5192648133084645,-0.1981375319587012,-0.3233645027727069,0.19155514297697357,2.4501263837758565,-0.6304832658757294,0.0
-0.3805059389030453,0.3229801575673935,-0.3654190157404723,-0.6202133207070929,2.7568469475090076,0.3544861457257501,0.0
-0.2336045981630225,0.12816979781500784,0.09071093569044689,-0.29703448744027194,1.4346732979992864,0.5104007089300617,0.0
-0.3713247457328381,-0.3052832401459826,-0.051627498382644396,-0.22715797683167488,1.3250877177123745,-0.16087224338761055,0.0
0.7625700484172362,-0.4026883674057833,-0.10662189634155,0.10202586584043949,1.010624755773313,-0.2981144115862253,0.0
0.7625700484172362,-0.4026883674057833,-0.10662189634155,-0.07921631815320036,0.8087252955783599,-0.2981144115862253,0.0
0.8497929103312573,-0.0812513280958149,-0.15191139471378046,-0.20477566420588028,0.5353569407750371,-0.02736454735784621,0.0
0.6156687076772148,-0.07151078979427193,-0.1033869250937648,-0.14745508961744822,0.42398465991513673,0.04919231145117115,0.0
0.6156687076772148,-0.07151078979427193,-0.1033869250937648,-0.14308781186587274,0.0207812446382685,0.15375777984945568,0.0
-1.1884634736886506,-0.21761856593584863,0.19746476389964285,0.2461461448341923,-0.7594203427192495,3.167484005402241,0.0
-0.4998633787014884,-0.34911557725104925,0.07453611484322174,0.02996571968522415,-0.309166597249462,3.7108510211855923,0.0
0.8084768178456693,-0.37346683775303063,-0.07427224049041962,-0.018074378861309224,-0.7433398341682929,2.079816409882283,0.0
0.8084768178456693,-0.37346683775303063,-0.07427224049041962,-0.091772253341073,-0.4515087033833621,1.7586510973579599,0.0
0.8084768178456693,-0.37346683775303063,-0.07427224049041962,0.12113271515879831,-0.33239396620496164,2.060210291503253,0.0
0.8084768178456693,-0.37346683775303063,-0.07427224049041962,0.16425962873168634,-0.29249052184084257,1.9070966934502742,0.0
0.8084768178456693,-0.5487961861732982,-0.21014076392047087,0.1653514365174871,-0.09416449184816075,1.4234813234657164,0.0
0.9140620661001027,-0.5926285232783649,-0.22631556353267598,0.15334141770690024,0.299509733848888,0.47959123098022144,0.0
0.6753475079341741,-0.4952233107666886,-0.21984564935046588,0.04579711235448605,0.5931275942631018,0.6896558285208085,0.0
0.25300619348547826,-0.5098341182190025,-0.17132116557377072,-0.07375721659419608,0.4978357928978638,0.48052488603066557,0.0
0.25300619348547826,-0.5098341182190025,-0.17132116557377072,-0.07266539632400984,0.42398465991513673,-0.9180382719446575,0.0
0.25300619348547826,-0.5098341182190025,-0.17132116557377072,-0.25063212387662587,0.6425601955187095,-0.6743634134972682,0.0
0.6432127693342715,-0.4416505206119545,-0.16161628014377546,-0.08030813925567896,1.228604782631811,-0.6024746164314434,0.0
0.4136795650540305,-0.4611315119631642,-0.15191139471378046,-0.2342548073394468,1.329852252573678,-0.7481194295667959,0.0
0.5881246460201552,-0.4611315119631642,-0.05486245547374944,-0.08795088114698263,1.2250313233732455,-0.19728344667144862,0.0
0.6661661540484888,-0.4172991748580976,0.07777107901266676,-0.04100260536751258,0.19349762734868872,-0.5529927662502031,0.0
0.8268395256170407,-0.4513909736616217,-0.0160428854404091,-0.10432818603206856,0.028523702772786735,-0.2841101324126751,0.0
0.8268395256170407,-0.4513909736616217,-0.0160428854404091,-0.5050262676373285,-0.27045431565696276,-0.34386182376005986,0.0
0.505492782479937,-0.5098341182190025,-0.05486245547374944,-0.3701864613563049,-0.438406087233308,-0.45122814628498215,0.0
0.4917207516514042,-0.4660017811139355,0.04865639794849153,-0.21351021970903125,-0.4729494008221668,-0.37747213021545456,0.0
0.41827024199687385,-0.39781818350688747,-0.022512813779299153,-0.17529651441397479,-0.4771183978821012,-0.20195153972929872,0.0
0.41827024199687385,-0.39781818350688747,-0.022512813779299153,-0.003880714516595757,-0.01733547372860462,-0.2822428906346757,0.0
0.41827024199687385,-0.39781818350688747,-0.022512813779299153,0.19100921245071745,0.2905761438150623,-0.3653350700456074,0.0
0.38613550339697195,-0.20300780110947247,-0.27484004730937134,0.13696411448639909,0.04281747170635956,-0.018028349854997863,0.0
0.7809327561886097,-0.31502373582158755,0.022776684592931275,0.39081235435420125,-0.30201970778862514,0.009046638845269654,0.0
1.0517820529544402,-0.22248883508662035,-0.11956173886265016,0.6779611045559061,0.08510320620135998,-0.06751022281053473,0.0
1.0517820529544402,-0.22248883508662035,-0.11956173886265016,0.08728628761531729,2.481691979301578,0.005312160982845117,0.0
0.4136795650540305,-0.4513909736616217,-0.22631556353267598,-0.5934637369880618,0.9332001925883144,0.28259737143422176,0.0
-0.022434101654153195,-0.4611315119631642,0.3495080869418992,-0.03881896316255538,-0.1406192297591599,0.00998025973426931,0.0
0.05560740637418039,-0.3588560729266545,0.11012072247670207,-0.16656194559414592,-0.7659716653224237,0.040789729143748385,0.0
0.4412233052801314,-0.30041297099521097,-0.022512813779299153,-0.13107778639694703,-0.9559596721389424,-0.04323609108369206,0.0
0.4412233052801314,-0.30041297099521097,-0.022512813779299153,0.3935419004520589,2.8759617137437012,0.21070861991698972,0.0
0.4412233052801314,-0.30041297099521097,-0.022512813779299153,-0.31504952897283,1.9438888016161704,0.43384386435497957,0.0
0.4412233052801314,-0.30041297099521097,-0.022512813779299153,-0.002242982862877862,-0.011379736143277253,0.1509569171824567,0.0
0.3448194109113833,-0.4319099823104115,0.13600043804424355,-0.08904270224946124,0.08450763207962358,0.05479403109159494,0.0
0.3448194109113833,-0.4319099823104115,0.13600043804424355,-0.22279069242176044,-0.0012549833378317412,0.04265696807496064,0.0
0.48253939776571964,-0.3442453081002779,0.07130115067377671,-0.07867040843425342,0.005296328369232033,0.0856035011238087,0.0
0.6294407385057432,-0.36859661122819704,0.022776684592931275,-0.004972535619074374,0.10654386368776057,0.07066557624083432,0.0
0.6294407385057432,-0.36859661122819704,0.022776684592931275,0.17299419755151518,-0.31512232393867906,0.25925687198352687,0.0
0.6294407385057432,-0.36859661122819704,0.022776684592931275,0.19264695076277435,-0.5646677429288393,0.3479507881156045,0.0
0.6294407385057432,-0.36859661122819704,0.022776684592931275,0.19264695076277435,-0.5646677429288393,0.3479507881156045,0.0
0.6294407385057432,-0.36859661122819704,0.022776684592931275,0.19264695076277435,-0.5646677429288393,0.3479507881156045,0.0
0.6294407385057432,-0.36859661122819704,0.022776684592931275,0.19264695076277435,-0.5646677429288393,0.3479507881156045,0.0
0.6294407385057432,-0.36859661122819704,0.022776684592931275,0.2035651617875604,-0.8279113158704222,0.3974326610711414,0.0
0.6432127693342715,-0.25658063389014435,-0.028982742118189204,0.44049016790860507,-1.1733441030834832,0.8026238536054326,0.0
0.6432127693342715,-0.25658063389014435,-0.028982742118189204,0.1216786323683766,0.47520399080002723,0.48332571453621986,0.0
0.8360208795027267,-0.5098341182190025,-0.24249039145824106,0.03160345133894207,0.8915100476512066,0.40956974401528484,0.0
0.7487980175887071,-0.4952233107666886,-0.21337570685489599,-0.24681074335961184,1.2726772531121584,0.09213884316558776,0.0
0.7901141100742958,-0.5585367244748407,-0.07427224049041962,-0.5716273149384898,1.1571359461360293,-0.8928304965545191,0.0
0.6294407385057432,-0.568277177524508,0.032481577101266354,-0.3832882879526922,1.1624960187987017,-0.5903375562615962,0.0
0.3999075342255014,-0.4026883674057833,0.032481577101266354,0.013042505913483667,0.9314134629590317,-0.6155453316517351,0.0
0.2392341626569492,-0.23222933076222518,0.15864518855754753,0.040883924051671273,0.4466164620129733,0.2237793009758366,0.0
0.31727534925432405,-0.22248883508662035,0.23628433393298323,0.041975745154149875,-0.09059104711774228,0.15655864251645463,0.0
0.3999075342255014,-0.36859661122819704,0.13600043804424355,-0.18894426487827945,-0.3472833119842984,-0.007758525769575833,0.0
0.4320419513944453,-0.4026883674057833,0.15217526021865743,-0.08085404897462589,-0.7403619708236843,0.0034449192048458554,0.0
0.5651715827368992,-0.2858022061688348,0.10365079413781202,0.07800581490258808,-0.681400183620294,0.2181775756418387,0.0
0.5330368441369929,-0.29554270184443965,0.10041582996836695,0.05071030065730084,-0.8469696877659875,0.3507516621697515,0.0
0.4320419513944453,-0.378337106903802,0.09394589985989192,-0.002242982862877862,-1.0643540605979402,0.3376809697237565,0.0
0.5376275210798389,-0.4026883674057833,-0.12926665260600498,-0.10869546711281348,0.05294222541981425,0.07813453908265093,0.0
0.5422181980226819,-0.4270397131596402,-0.0645673550604245,-0.18239334492174678,0.050559930748886976,-0.023630075188995764,0.0
0.5927153229629976,-0.3588560729266545,0.009836827915151156,-0.3090445062508588,0.0023184577605499753,-0.16460672694360914,0.0
0.5743529366225845,-0.30041297099521097,0.038951505440156436,0.0741844477022519,-0.3085710303917991,0.02678542434911481,0.0
0.5743529366225845,-0.30041297099521097,0.038951505440156436,0.15443325212605677,0.4347049795782452,0.13135089559418636,0.0
0.5559902288512095,-0.32963454327390174,-0.03221771336597421,-0.6142082979851217,-0.877939513039987,0.13135089559418636,0.0
0.3126846723114814,-0.36859661122819704,0.08424100735155683,-0.3030394835288874,-0.8326759088443136,0.19483707619114382,0.0
0.5009021055370939,-0.4026883674057833,-0.04839252713485939,-0.016982557758830626,-0.15610415692430663,0.28726548726636814,0.0
0.7992954639599811,-0.4952233107666886,-0.1227967101104351,1.0802969344607314,1.9546091793918665,0.10801038760313036,0.0
0.9370154508143193,-0.27606166786729214,-0.1777911080693406,0.3820777855343724,1.152966949076095,0.4133042047969872,0.0
0.44581398222297475,-0.25658063389014435,0.07777107901266676,0.07200080549729472,0.7813288714503378,0.26205773465052584,0.0
0.11069552968829813,-0.4221694440088689,0.1327654736536004,-0.4040328755831079,-0.12870776185257868,-0.11139037043207371,0.0
0.3218660261971678,-0.4319099823104115,0.09394589985989192,-0.3396154704869038,0.02018567051653209,0.0025112983158461877,0.0
0.6432127693342715,-0.39781818350688747,0.016306756254041207,-0.39420649897747834,0.3685963029140178,0.016515600263692743,0.0
0.6294407385057432,-0.30041297099521097,0.009836827915151156,-0.34234501658476146,0.4877110400924183,0.019316462930691683,0.0
0.5330368441369929,-0.24196986906376777,0.026011648762376317,-0.23753027064688267,0.3024876262497906,0.07159919712983397,0.0
0.48253939776571964,-0.28093193701806346,0.08100604318211183,-0.19167381097613703,0.2637753301291444,0.07253281801883361,0.0
0.4228609189397165,-0.3637263420774257,0.1327654736536004,-0.28611627641548587,-0.13883251465802418,0.033320764878538245,0.0
0.48713007470856196,-0.4172991748580976,0.022776684592931275,-0.4902867027288842,-0.31512232393867906,-0.08804987098137884,0.0
0.5513995519083672,-0.3637263420774257,0.00013192832847608242,-0.3887474067817633,-0.29189495498317963,-0.0030904270181516817,0.0
0.5743529366225845,-0.29554270184443965,0.022776684592931275,0.0659957960920013,-0.2883215247809081,0.15375777984945568,0.0
0.6891195387627054,-0.31015350929675395,-0.009572957101519033,0.13259683007648476,0.3018920303358337,0.27139393215337415,0.0
0.6018966768486835,-0.3929479143561162,0.016306756254041207,-0.16601603504290663,0.6270752828817097,0.1546914007384553,0.0
0.35859144173991236,-0.47574231941547845,0.08747597152100187,-0.4373334125503664,0.1321535291302058,-0.06657660192153511,0.0
0.48713007470856196,-0.36859661122819704,0.029246612931821327,-0.7321249237860995,-0.4026716689854173,-0.007758525769575833,0.0
0.6753475079341741,-0.27606166786729214,-0.006338000010413969,-0.1130627515227279,-0.10012021853737792,0.48425936958666393,0.0
0.6386220923914292,-0.31502373582158755,-0.07427224049041962,-0.04755352698862999,0.4936667958379295,0.41237059529513576,0.0
0.6386220923914292,-0.31502373582158755,-0.07427224049041962,-0.056288090814704636,0.381103352206409,0.07253281801883361,0.0
0.3356380570256969,-0.47574231941547845,0.11659065170038463,-0.2713766981903637,-0.5628810132995565,-0.12352743060192097,0.0
0.4136795650540305,-0.33450476979873534,0.06483121879571667,-0.38438012237184876,-0.6593639483801201,0.0435905889639603,0.0
0.4136795650540305,-0.33450476979873534,0.06483121879571667,-0.19003608598075802,-0.3371585591788529,0.1696293235753015,0.0
0.7487980175887071,-0.33450476979873534,-0.051627498382644396,-0.1987706548005869,0.044008619041823197,0.4917283366986613,0.0
0.5513995519083672,-0.3393750389495066,-0.08397714007709468,-0.30140177185018646,0.4043307211619086,0.22097843830883765,0.0
0.5513995519083672,-0.3393750389495066,-0.08397714007709468,-0.525224924741488,0.11369074588452402,0.08840436192260365,0.0
0.4412233052801314,-0.28093193701806346,-0.012807928349304037,-0.3794669340690341,-0.1346635030699428,0.16122674126787878,0.0
0.4366326283372887,-0.3588560729266545,0.07130115067377671,-0.25936667937977687,-0.4562732963572533,0.15002330198703118,0.0
0.4366326283372887,-0.3588560729266545,0.07130115067377671,0.1091226963482115,-0.4217300408809825,0.3274111513319085,0.0
0.46876736693719134,-0.4172991748580976,0.10688575830725704,0.1260459167782909,-0.3389452888081356,0.33114563488790716,0.0
0.5881246460201552,-0.5098341182190025,0.035716541270711395,0.21775882280310432,0.044008619041823197,0.2611241137615262,0.0
0.5881246460201552,-0.5098341182190025,0.035716541270711395,0.4541379516646046,0.11190402351931479,-0.07964728298038201,0.0
0.5468088749655242,-0.5341853787209839,0.06483121879571667,0.20465696957336119,-0.0810618611699597,-0.0142938662989993,0.0
0.35859144173991236,-0.5293151095702125,0.016306756254041207,-0.06666038421376626,-0.6057622919519902,-0.25330065446283484,0.0
0.29432196454010895,-0.4319099823104115,0.022776684592931275,-0.10869546711281348,-0.6974806921712507,-0.28877822547052523,0.0
0.5605809057940533,-0.4854827724651457,0.07777107901266676,0.41374058418957393,-0.09297334360468794,-0.2953135603063744,0.0
0.8681556181026293,-0.3832073760545736,-0.025747785027084157,0.7926022537327702,1.145820030558964,-0.13193002999006592,0.0
0.5743529366225845,-0.44652070451085,0.04218646960960145,0.5709627164130702,0.5520329871273628,0.18736810907914667,0.0
0.3218660261971678,-0.4075586365565546,0.06806618296516169,0.052348038969357656,-0.49022098497586136,-0.03483351446984338,0.0
0.2070994240570462,-0.2468401382145395,0.032481577101266354,-0.2943049280257364,-0.8386316355335308,-0.0759127994243834,0.0
0.4412233052801314,-0.1981375319587012,0.1327654736536004,-0.17147514055529967,-0.6450701694584464,-0.03296627269184411,0.0
0.6294407385057432,-0.2078780702602438,0.016306756254041207,-0.18075561326802886,-0.2615206965668431,0.06413023428801734,0.0
0.6478034462771138,-0.2078780702602438,-0.0645673550604245,-0.43569567423830974,0.32214153594672473,0.1621603621568784,0.0
0.5513995519083672,-0.22248883508662035,0.00013192832847608242,-0.4673584728935113,0.21553384806071546,0.2219120591978373,0.0
0.4412233052801314,-0.29067247531960605,0.055126326287381566,-0.4509811430396543,-0.10905382309935056,0.28353100371036954,0.0
0.4274512744516019,-0.41242890570732593,0.04542143377904649,-0.3925687606654215,-0.3431143149243641,0.24898704220453077,0.0
0.4320419513944453,-0.4854827724651457,-0.03868764170486426,-0.27574398260027805,-0.14597940411886112,0.0968069440521022,0.0
0.6432127693342715,-0.4172991748580976,-0.08721211132487966,-0.18184743437050746,-0.34251871901040715,0.19016897174614558,0.0
0.8176581717313554,-0.21761856593584863,-0.1842610505649105,0.11731134795846208,-0.49915463312227504,0.28726548726636814,0.0
0.4504046591658178,-0.2468401382145395,-0.4657029545416482,0.03214936189018138,0.3769343260901805,0.06973195677522818,0.0
0.4963114285942509,-0.5634069083737366,-0.2230806205982508,-0.12998596529446843,0.2578195889117803,0.46932143536266957,0.0
0.5284461671941499,-0.6315905912326605,-0.06780231215152958,0.09656676032804645,0.340604340984627,0.09587332387479933,0.0
0.3540007647970693,-0.6023690615799078,0.11982561586982965,0.32694085315089755,0.08510320620135998,-0.22155756701114315,0.0
0.30350331842579464,-0.568277177524508,0.10688575830725704,0.39026642382794513,-0.6784223202756854,-0.16554035921975696,0.0
0.4228609189397165,-0.4611315119631642,0.022776684592931275,0.658308351344647,-0.8958066931076385,0.1061431472485246,0.0
0.6799381848770164,-0.4172991748580976,-0.2619001906315914,0.6927006960977061,-0.5116616824146659,0.31340684938406194,0.0
0.7166636004197628,-0.29554270184443965,-0.3007197606649317,0.3416804446926976,0.3596626838238981,0.1733638071313001,0.0
0.6248500615629009,-0.30041297099521097,-0.21014076392047087,0.17463190923021632,0.6002744546676447,-0.010559382743000712,0.0
0.44581398222297475,-0.34911557725104925,0.009836827915151156,0.23140657992574806,0.12143320220302388,0.03145352310053897,0.0
0.3769541495112852,-0.33450476979873534,0.0583612904568266,0.20574880399251752,-0.4711626711928842,0.14815606020903185,0.0
0.4504046591658178,-0.31015350929675395,-0.022512813779299153,0.11785726516804032,-0.4455529766941448,0.19483707619114382,0.0
0.5330368441369929,-0.31015350929675395,-0.10015196800265982,0.04961847955482226,-0.15848645341125228,0.18176638943872284,0.0
0.5743529366225845,-0.34911557725104925,-0.09368203966376974,-5.934065792065279e-05,0.05294222541981425,0.17243018624230044,0.0
0.5284461671941499,-0.3929479143561162,-0.06133238381263953,-0.04700761810197545,0.06366255234699617,0.1640276039348777,0.0
0.46876736693719134,-0.3832073760545736,-0.06133238381263953,-0.03445168208181041,-0.06617252265469639,0.18176638943872284,0.0
0.4641766899943472,-0.3588560729266545,-0.05486245547374944,-0.028446672676517026,-0.22816857480589792,0.1546914007384553,0.0
0.5192648133084645,-0.3637263420774257,-0.10985685343265493,-0.10105272605380221,-0.2627118593384629,0.13135089559418636,0.0
0.5192648133084645,-0.3637263420774257,-0.10985685343265493,-0.19276563207861563,-0.085826454143851,0.059462132689806144,0.0
0.6294407385057432,-0.39781818350688747,-0.08074218298598967,-0.22606615572919622,0.4877110400924183,0.05386041304938233,0.0
0.4136795650540305,-0.25658063389014435,-0.16161628014377546,-0.02899257989858687,-0.1781403776363333,0.005312160982845117,0.0
0.4136795650540305,-0.25658063389014435,-0.16161628014377546,-0.5432399929074019,0.06366255234699617,0.02025008381969135,0.0
0.5100834594227792,-0.35398580377588285,-0.13897153803600024,-0.050828988631481074,0.1684835287639064,0.13975347790160914,0.0
0.5881246460201552,-0.34911557725104925,-0.16808622263934558,-0.33524818607698953,0.36800073605635486,0.03145352310053897,0.0
0.40908888811118743,-0.4952233107666886,-0.2521952768882363,-0.7195689478159009,-0.02865137477752293,-0.2103541163431474,0.0
0.4228609189397165,-0.4854827724651457,-0.07427224049041962,-0.15509783733479846,-0.1203697241482689,0.14815606020903185,0.0
0.6156687076772148,-0.1786564979815533,-0.08397714007709468,-0.4089460638859228,0.5520329871273628,0.09400608352019355,0.0
0.7258449543054474,-0.1883970362830959,-0.2230806205982508,-0.6169378440829794,0.11071287527584198,0.019316462930691683,0.0
0.46876736693719134,-0.31989400497235876,0.032481577101266354,-0.11579230094975496,-0.3186957831972446,0.28913272904436743,0.0
0.6294407385057432,-0.34911557725104925,-0.1227967101104351,-0.2610044043751559,0.3834856486933547,0.3078051240500641,0.0
0.5697622596797423,-0.5634069083737366,-0.2554302481360213,-0.5366890396591745,0.5133207055348635,0.033320764878538245,0.0
0.44581398222297475,-0.378337106903802,-0.051627498382644396,-0.15291419512984122,0.05472894596900511,-0.049771437306689585,0.0
0.4366326283372887,-0.2468401382145395,0.04542143377904649,-0.16164875729133116,-0.350261175328907,0.17896552677172392,0.0
0.4136795650540305,-0.3588560729266545,-0.17455613682155563,-0.48373577611401236,-0.34132758529508134,0.1733638071313001,0.0
0.6064873537915266,-0.4513909736616217,-0.19396593599490575,-0.40294106779730715,0.006487474796686497,0.07813453908265093,0.0
0.6661661540484888,-0.47574231941547845,-0.19720090724269065,-0.5312299474634592,0.023759112522923002,-0.18794723778145217,0.0
0.4366326283372887,-0.41242890570732593,-0.19073096474712076,-0.784532283438361,-0.829698045499705,-0.23369462718099038,0.0
0.3769541495112852,-0.37346683775303063,-0.12926665260600498,-0.6011064447553783,-1.2305191025450029,-0.2308937759011395,0.0
0.45499533610866116,-0.36859661122819704,-0.15514636596156536,-0.5454236084790033,-1.3549940576675454,-0.17861102889145566,0.0
0.44581398222297475,-0.31989400497235876,-0.19073096474712076,-0.18293925547298606,-0.9160561987185293,0.21537671297483976,0.0
0.47794872082287665,-0.34911557725104925,-0.16161628014377546,-0.29375902413283606,-1.153690193386549,0.11454572813255383,0.0
0.5651715827368992,-0.4513909736616217,-0.2942498181693616,-0.3658191769463904,-1.2882897560330673,0.009046638845269654,0.0
0.6432127693342715,-0.4416505206119545,-0.3945337003438175,-0.3658191769463904,-0.16920677307436063,-0.20661963278714882,0.0
0.5376275210798389,-0.4416505206119545,-0.27484004730937134,0.006491579298612025,-0.444361842978819,0.0631966148224112,0.0
0.5651715827368992,-0.27606166786729214,-0.35247918737605227,0.13532638949102013,-0.2901082544101909,0.1350853734566109,0.0
0.5651715827368992,-0.27606166786729214,-0.35247918737605227,-0.13762870635347974,-0.0757017013384055,-0.013360245409999631,0.0
0.3769541495112852,-0.4026883674057833,-0.21337570685489599,-0.05028307808024178,-0.6331587160800122,-0.309317862254221,0.0
0.3999075342255014,-0.4270397131596402,-0.20690579267268572,0.3291244953558548,-1.106639801449005,-0.3317247635902126,0.0
0.47794872082287665,-0.2273591042373916,-0.39129878572275245,0.715628925933079,-0.9899074188701383,0.09493970369749644,0.0
0.4136795650540305,-0.10560263122373405,-0.45276306955050816,0.34877727520046975,-0.3574080647897439,0.5318740007642014,0.0
0.3402287339685399,-0.28093193701806346,-0.29101487523493647,0.2614316402688927,-0.5890862455996647,0.24618619092467997,0.0
0.5192648133084645,-0.4854827724651457,-0.44629312705493823,0.3061962655204819,-0.262116263424506,-0.113257612210073,0.0
0.6018966768486835,-0.3929479143561162,-0.43658826993830285,0.4202914841710899,-0.3574080647897439,-0.02736454735784621,0.0
0.6018966768486835,-0.3929479143561162,-0.43658826993830285,0.3891746160421444,-0.08463530590037817,0.4767904024746669,0.0
0.3907261803398146,-0.11047285774856763,-0.5206973525005536,-0.03554350318428902,0.7497635083749695,0.634572230231274,0.0
0.4320419513944453,-0.34911557725104925,-0.35894912987162214,-0.4324201976141959,0.6002744546676447,0.20323965280499254,0.0
0.39531685728265764,-0.4806125885662498,-0.236020477276031,-0.15837329398389535,0.049368782505414155,0.2331154984786849,0.0
0.4274512744516019,-0.4026883674057833,-0.333069388202702,0.06544987888242307,-0.2329331677797893,0.2527215257605294,0.0
0.5009021055370939,-0.32476427412313014,-0.43335329869051786,0.05071030065730084,-0.060812355559068706,0.09027160245513362,0.0
0.5789432921344699,-0.3588560729266545,-0.3815938719793973,0.2106619922953324,0.17741713332587916,-0.004024042213577257,0.0
0.5100834594227792,-0.3442453081002779,-0.320129531524922,0.3056503616275815,0.1482340231530154,-0.13566449077176823,0.0
0.35859144173991236,-0.29554270184443965,-0.29748478941714657,0.41810786859948845,-0.15967760165472503,0.15002330198703118,0.0
0.34941008785422595,-0.2078780702602438,-0.342774301946057,0.1964683312797883,-0.3693195472244722,0.2704603112643745,0.0
0.44581398222297475,-0.2663211721916869,-0.42364838494716284,0.07473035159515226,-0.262116263424506,0.33114563488790716,0.0
0.5330368441369929,-0.4221694440088689,-0.4592330120460781,0.11130633855316878,-0.12751661360910585,0.2116422408059893,0.0
0.5009021055370939,-0.5293151095702125,-0.3977686715916027,0.22158020332011844,0.2596063040129159,0.09774056494110184,0.0
0.39531685728265764,-0.4562612428123929,-0.3848288432271823,0.023960703621591837,0.4621013746499731,0.13228451363639898,0.0
0.3907261803398146,-0.378337106903802,-0.3686539869882573,-0.18785244377580085,0.36144941345318093,0.06132937446780544,0.0
0.38154482645412857,-0.34911557725104925,-0.3557141586238372,-0.24681074335961184,0.33226628875217024,-0.11885933754407088,0.0
0.47794872082287665,-0.3929479143561162,-0.4657029545416482,0.04688893345696466,0.720580354617665,0.09960780529570762,0.0
0.6478034462771138,-0.43678025146118316,-0.3848288432271823,0.06217441557498725,1.8807579592402575,-0.12632830465606806,0.0
0.5881246460201552,-0.41242890570732593,-0.20367082142490073,-0.008793902819410553,1.9063677118515847,-0.37747213021545456,0.0
0.5881246460201552,-0.41242890570732593,-0.20367082142490073,-0.03499759263304972,1.5651038635858703,-0.28597737419067437,0.0
0.3907261803398146,-0.34911557725104925,-0.1227967101104351,-0.11797594315471219,0.9427293785360971,-0.07031108547753367,0.0
0.29432196454010895,-0.2858022061688348,-0.09044706841598477,-0.27192261539994195,0.10594828956602416,0.18456724641214772,0.0
0.29432196454010895,-0.24196986906376777,-0.17455613682155563,-0.29539674912821506,-0.10845825624168765,0.11641296991055311,0.0
0.6707568309913311,-0.31015350929675395,-0.2554302481360213,-0.11251684097148863,0.4257713895444193,0.08466988085754372,0.0
0.7809327561886097,-0.3588560729266545,-0.35247918737605227,-0.10760364933950438,0.8516065742307936,0.0435905889639603,0.0
0.5192648133084645,-0.3588560729266545,-0.21984564935046588,-0.08740497059574333,0.48354201397618995,0.11828021168855243,5.0
0.3402287339685399,-0.31502373582158755,-0.1454414522182103,-0.10705773878826506,0.0541333718472687,0.28259737143422176,5.0
0.22546213182841865,-0.3588560729266545,-0.10015196800265982,0.010312953157287153,-0.6474524950016861,0.574820538883889,5.0
0.5422181980226819,-0.31989400497235876,-0.0645673550604245,0.00539975819613342,-0.14836170060580675,0.18830172996814631,5.0
0.5009021055370939,-0.3832073760545736,-0.2586652193838062,-0.10760364933950438,0.20957812137149834,0.24338532825768103,5.0
0.707482246534076,-0.4708720502647072,-0.35247918737605227,-0.15728147288141672,1.179767661064984,-0.02456368469084727,5.0
0.5146741363656223,-0.36859661122819704,-0.17455613682155563,0.04142982794457164,0.8498198446015107,0.1416207196796084,5.0
0.32645670314001085,-0.3052832401459826,-0.051627498382644396,-0.005518446170313664,0.15597647947151527,0.24338532825768103,5.0
0.3356380570256969,-0.3393750389495066,-0.0160428854404091,-0.030630311552304775,-0.46937594156360146,0.1714965653533008,5.0
0.4641766899943472,-0.36859661122819704,-0.1227967101104351,-0.03554350318428902,-0.37646643668530905,0.1509569171824567,5.0
0.5743529366225845,-0.3832073760545736,-0.17455613682155563,-0.039910784265033965,0.147638449031279,0.11734659079955279,5.0
0.5789432921344699,-0.3588560729266545,-0.21337570685489599,-0.07867040843425342,0.34239104155761574,0.1378862361236098,5.0
0.5376275210798389,-0.3588560729266545,-0.16808622263934558,-0.06993584533643461,0.19826222032258006,0.12855003292718745,5.0
0.4595860130515038,-0.36859661122819704,-0.12603168135822004,-0.03881896316255538,0.016612227602131987,0.15655864251645463,5.0
0.47794872082287665,-0.4026883674057833,-0.11632679592822504,-0.04427806701036366,-0.007806295044895516,0.17896552677172392,5.0
0.505492782479937,-0.39781818350688747,-0.11632679592822504,-0.07812449788301412,0.009465343589350172,0.18830172996814631,5.0
0.5146741363656223,-0.36859661122819704,-0.15191139471378046,-0.07648676747773477,0.04639091462075966,0.18923535085714596,5.0
0.5009021055370939,-0.3832073760545736,-0.1454414522182103,-0.0650226538084869,0.06247140410352333,0.17896552677172392,5.0
0.5009021055370939,-0.4075586365565546,-0.15838130889599047,-0.04318624590788505,0.03269271844690946,0.17243018624230044,5.0
0.4963114285942509,-0.4075586365565546,-0.16485125139156043,-0.025171209369081217,0.009465343589350172,0.1733638071313001,5.0
0.5009021055370939,-0.4075586365565546,-0.17132116557377072,-0.01589073665635202,0.03567058718282257,0.15749226340545425,5.0
0.5284461671941499,-0.3880776452053449,-0.22955053478046114,-0.04919125864234791,0.04103075070316411,0.1350853734566109,5.0
0.5376275210798389,-0.4026883674057833,-0.19073096474712076,-0.04154851591875189,0.08986779554321456,0.10987762795773615,5.0
0.5513995519083672,-0.4026883674057833,-0.15514636596156536,0.019047515318777054,0.20898253998568844,0.06879833588622854,5.0
0.5009021055370939,-0.41242890570732593,-0.11956173886265016,0.04798075455944324,0.23340105718466084,0.0631966148224112,5.0
0.44581398222297475,-0.34911557725104925,-0.09691699675487482,0.016317962562580543,0.14585172666606977,0.11921382973076504,5.0
0.4412233052801314,-0.27606166786729214,-0.09044706841598477,-0.013161187229324972,-0.03937170170470486,0.1602931203788791,5.0
0.47794872082287665,-0.3052832401459826,-0.1227967101104351,-0.05410445027433216,-0.16920677307436063,0.17243018624230044,5.0
0.5146741363656223,-0.3880776452053449,-0.16161628014377546,-0.026263030471559826,-0.11739186080366033,0.17896552677172392,5.0
0.5330368441369929,-0.4416505206119545,-0.15838130889599047,-0.005518446170313664,-0.011975310265013658,0.16309398304587805,5.0
0.5100834594227792,-0.4660017811139355,-0.1777911080693406,0.0021243015470365566,0.03924402947296635,0.15375777984945568,5.0
0.5100834594227792,-0.4513909736616217,-0.16161628014377546,-0.02735485157403842,0.028523702772786735,0.09960780529570762,5.0
0.5100834594227792,-0.4416505206119545,-0.1454414522182103,-0.05192080973395968,0.008274195345877346,0.0968069440521022,5.0
0.5192648133084645,-0.4075586365565546,-0.16161628014377546,-0.08631315115784945,0.01899452227305927,0.11828021168855243,5.0
0.5146741363656223,-0.4172991748580976,-0.15191139471378046,-0.09832317496219042,0.08272090971441437,0.08933798227783073,5.0
0.5009021055370939,-0.39781818350688747,-0.1357365667882153,-0.12452686311124488,0.12441107281170595,0.11081124742334227,5.0
0.5009021055370939,-0.39781818350688747,-0.1357365667882153,-0.15127646347612334,0.05234665129807784,0.17709828499372463,5.0
0.47794872082287665,-0.3832073760545736,-0.12603168135822004,-0.20368384310340168,-0.07867956468301404,0.19390345530214423,5.0
0.5100834594227792,-0.3880776452053449,-0.15191139471378046,-0.2244284307338173,-0.062003503802541514,0.18456724641214772,5.0
0.5100834594227792,-0.3880776452053449,-0.15191139471378046,-0.24735666056919012,-0.029842523020995767,0.19483707619114382,5.0
0.48713007470856196,-0.39781818350688747,-0.15191139471378046,-0.2681012481996057,-0.05009202863188676,0.22284568008683694,5.0
0.5146741363656223,-0.4026883674057833,-0.17455613682155563,-0.2713766981903637,-0.048900880388413955,0.22751378453183518,5.0
0.505492782479937,-0.4319099823104115,-0.1842610505649105,-0.2708307942974633,-0.007806295044895516,0.25645600931652796,5.0
0.5009021055370939,-0.41242890570732593,-0.16808622263934558,-0.2604585004822555,0.03269271844690946,0.27699565748737204,5.0
0.5009021055370939,-0.4075586365565546,-0.17455613682155563,-0.2751980787073776,0.024354686644659413,0.28073012965622246,5.0
0.5009021055370939,-0.4075586365565546,-0.17455613682155563,-0.2610044043751559,-0.002446131581304571,0.24898704220453077,5.0
0.4963114285942509,-0.4319099823104115,-0.1777911080693406,-0.2730144365024206,-0.03341596775141422,0.2349827402566842,5.0
0.47794872082287665,-0.4513909736616217,-0.18102607931712558,-0.25281575276490525,-0.01018858789980443,0.22097843830883765,5.0
0.48713007470856196,-0.4708720502647072,-0.1874959934993356,-0.23097934403201104,0.06247140410352333,0.18923535085714596,5.0
0.5100834594227792,-0.4611315119631642,-0.19073096474712076,-0.2287957151437317,0.09165451790842379,0.1714965653533008,5.0
0.4917207516514042,-0.4270397131596402,-0.16161628014377546,-0.24244345894969746,0.07676517576112374,0.17896552677172392,5.0
0.47794872082287665,-0.4172991748580976,-0.15514636596156536,-0.2522698488720049,0.06128025767606889,0.19016897174614558,5.0
0.47794872082287665,-0.37346683775303063,-0.16161628014377546,-0.28666219362506407,0.0642581264687326,0.20137241102699324,5.0
0.48713007470856196,-0.3832073760545736,-0.15191139471378046,-0.31832497896358797,0.008869769467613767,0.18456724641214772,5.0
0.47794872082287665,-0.3880776452053449,-0.15191139471378046,-0.33579411660324565,-0.03222481950794143,0.18550086730114737,5.0
0.47794872082287665,-0.3832073760545736,-0.16161628014377546,-0.346712300994676,-0.05306989924056882,0.2396508447016825,5.0
0.505492782479937,-0.3929479143561162,-0.16161628014377546,-0.34016140101315995,-0.03282039362967783,0.24992066309353042,5.0
0.5100834594227792,-0.4221694440088689,-0.1842610505649105,-0.37728329186407683,0.02018567051653209,0.24618619092467997,5.0
0.5009021055370939,-0.4221694440088689,-0.19073096474712076,-0.39857378338739285,0.03328829234164358,0.24711981181367962,5.0
0.5009021055370939,-0.4270397131596402,-0.19720090724269065,-0.4204101788036091,0.005891900674950075,0.2396508447016825,5.0
0.48713007470856196,-0.4270397131596402,-0.1842610505649105,-0.4657207345814543,0.01482550705294114,0.21537671297483976,5.0
0.505492782479937,-0.4270397131596402,-0.19073096474712076,-0.4597157118594832,0.06128025767606889,0.19670431796914312,5.0
0.5146741363656223,-0.4172991748580976,-0.19720090724269065,-0.47609301507998425,0.14049155957044204,0.20043879013799357,5.0
0.48713007470856196,-0.41242890570732593,-0.17132116557377072,-0.47718484949914086,0.10475714132255136,0.23124826808783377,5.0
0.47794872082287665,-0.4270397131596402,-0.16161628014377546,-0.48100620338279915,-0.0006594092160953429,0.19670431796914312,5.0
0.4963114285942509,-0.4416505206119545,-0.1777911080693406,-0.5115771942521999,-0.009593017410104751,0.1696293235753015,5.0
0.5100834594227792,-0.4221694440088689,-0.20043585017711577,-0.48646532221187005,0.060089109432596065,0.14628881843103256,5.0
0.5100834594227792,-0.4270397131596402,-0.21014076392047087,-0.4913785105146849,0.12977123264326013,0.1696293235753015,5.0
0.4917207516514042,-0.43678025146118316,-0.20043585017711577,-0.5083017176280864,0.10058812247039646,0.1546914007384553,5.0
0.48253939776571964,-0.4416505206119545,-0.19720090724269065,-0.5268626630535449,0.08331648383615076,0.13228451363639898,5.0
0.48253939776571964,-0.4562612428123929,-0.1874959934993356,-0.48046029948989877,0.06187583179780532,0.12481555221797588,5.0
0.48713007470856196,-0.4660017811139355,-0.21337570685489599,-0.4558943579758248,0.06366255234699617,0.16589484571287702,5.0
0.4917207516514042,-0.4854827724651457,-0.19073096474712076,-0.4389711242290675,0.11845533159434182,0.17616466979829903,5.0
0.47335804388003433,-0.4854827724651457,-0.19720090724269065,-0.43678748202411044,0.08510320620135998,0.16309398304587805,5.0
0.44581398222297475,-0.4806125885662498,-0.19073096474712076,-0.4269611054184808,-0.0012549833378317412,0.16869570268630185,5.0
0.44581398222297475,-0.47574231941547845,-0.20690579267268572,-0.3663650808392907,-0.06974596012104138,0.18270000463414843,5.0
0.46876736693719134,-0.4952233107666886,-0.236020477276031,-0.28720809751796444,-0.03401154187315065,0.1808327685497232,5.0
0.46876736693719134,-0.4952233107666886,-0.22955053478046114,-0.24844848167166872,0.004105180125759224,0.18456724641214772,5.0
0.47335804388003433,-0.5195746565205454,-0.236020477276031,-0.23043344013911068,0.0035096060040228053,0.15562502162745495,5.0
0.47794872082287665,-0.5195746565205454,-0.2521952768882363,-0.17966379216555026,-0.011975310265013658,0.16309398304587805,5.0
0.46876736693719134,-0.4952233107666886,-0.23278550602824605,-0.11087910931777072,-0.014953180873695716,0.13695261523461016,5.0
0.47794872082287665,-0.5098341182190025,-0.236020477276031,-0.07321130645910295,-0.026269078290577296,0.15002330198703118,5.0
0.48713007470856196,-0.4854827724651457,-0.23278550602824605,-0.05465036082557146,-0.005423998557949883,0.14348795576403361,5.0
0.48713007470856196,-0.4854827724651457,-0.23278550602824605,-0.021349838839575568,0.010656490016804614,0.14908968109803153,5.0
0.48253939776571964,-0.4562612428123929,-0.23925542021045615,-0.01589073665635202,0.04460419316355961,0.16869570268630185,5.0
0.47794872082287665,-0.4611315119631642,-0.2489603339538112,-0.022987570493293474,-0.0006594092160953429,0.16869570268630185,5.0
0.47794872082287665,-0.4611315119631642,-0.2489603339538112,0.004307937093654827,0.00767862122414094,0.14722243932003223,5.0
0.47335804388003433,-0.4562612428123929,-0.2716050760615864,0.00485384764489413,0.0005317390273774873,0.1518905380714564,5.0
0.46876736693719134,-0.4513909736616217,-0.24572536270602627,0.002670212098275859,-0.01733547372860462,0.16309398304587805,5.0
0.5009021055370939,-0.4513909736616217,-0.22955053478046114,-0.00169707231163856,-0.0042328539465138065,0.1584258842944539,5.0
0.5009021055370939,-0.4611315119631642,-0.2554302481360213,0.013042505913483667,0.07319173103070527,0.10054142476131375,5.0
0.48253939776571964,-0.4708720502647072,-0.22955053478046114,0.025598435275309743,0.06366255234699617,0.16309398304587805,5.0
0.47335804388003433,-0.4854827724651457,-0.20690579267268572,0.040883924051671273,-0.0006594092160953429,0.14442157665303332,5.0
0.46876736693719134,-0.4708720502647072,-0.2489603339538112,0.010858863708526444,-0.03579825697428639,0.11547934902155348,5.0
0.4641766899943472,-0.47574231941547845,-0.24572536270602627,-0.004972535619074374,0.0029140318822864003,0.09587332387479933,5.0
0.47335804388003433,-0.490353041615917,-0.2586652193838062,-0.012069366126846367,-0.006615146801422706,0.11734659079955279,5.0
0.47794872082287665,-0.4806125885662498,-0.236020477276031,0.005945668747372735,0.0207812446382685,0.09774056494110184,5.0
0.46876736693719134,-0.4660017811139355,-0.26513513356601653,0.014134320357623345,0.03686173463178736,0.07626729872804516,5.0
0.46876736693719134,-0.4708720502647072,-0.2521952768882363,-0.025717119920320518,0.008869769467613767,0.09120522263243651,5.0
0.47794872082287665,-0.4611315119631642,-0.24249039145824106,-0.04045669481627328,-0.02150448894872275,0.0968069440521022,5.0
0.47794872082287665,-0.47574231941547845,-0.24249039145824106,-0.037181234838006914,0.02554583398012305,0.07066557624083432,5.0
0.4917207516514042,-0.47574231941547845,-0.22955053478046114,-0.042640337021230476,0.07378730515244167,0.06506385517701699,5.0
0.47794872082287665,-0.4660017811139355,-0.2521952768882363,-0.05465036082557146,0.06783156756711431,0.06413023428801734,5.0
0.4641766899943472,-0.4611315119631642,-0.23925542021045615,-0.06556856394358002,0.01482550705294114,0.07253281801883361,5.0
0.4504046591658178,-0.4611315119631642,-0.22955053478046114,-0.07976222870443966,-0.04056284994817768,0.09120522263243651,5.0
0.4595860130515038,-0.4660017811139355,-0.27484004730937134,-0.061747192165635824,-0.031629245386205,0.08000177943725671,5.0
0.47794872082287665,-0.4611315119631642,-0.26837010481380147,-0.07703267761282788,0.011252064138541037,0.09400608352019355,5.0
0.48713007470856196,-0.490353041615917,-0.2521952768882363,-0.07266539632400984,0.024354686644659413,0.0968069440521022,5.0
0.4595860130515038,-0.47574231941547845,-0.26837010481380147,-0.06283901326811443,0.023759112522923002,0.08933798227783073,5.0
0.45499533610866116,-0.4806125885662498,-0.2586652193838062,-0.048645348091108605,0.014229932931204715,0.08000177943725671,5.0
0.46876736693719134,-0.4854827724651457,-0.2554302481360213,-0.05028307808024178,-0.0012549833378317412,0.07159919712983397,5.0
0.46876736693719134,-0.4854827724651457,-0.2521952768882363,-0.03226804320602268,0.004105180125759224,0.06786471642062242,5.0
0.46876736693719134,-0.4611315119631642,-0.24249039145824106,-0.05028307808024178,0.01959009639479568,0.06226299535680509,5.0
0.46876736693719134,-0.4611315119631642,-0.23925542021045615,-0.05355853972309286,0.04639091462075966,0.06693109553162277,5.0
0.47794872082287665,-0.4611315119631642,-0.22955053478046114,-0.06938993509730494,0.030905997443714008,0.08840436192260365,5.0
0.4595860130515038,-0.4513909736616217,-0.19720090724269065,-0.07921631815320036,0.04281747170635956,0.07066557624083432,5.0
0.45499533610866116,-0.4562612428123929,-0.22955053478046114,-0.062293102716875125,0.013038786503750269,0.07253281801883361,5.0
0.4595860130515038,-0.4611315119631642,-0.21984564935046588,-0.05956355162526335,0.03447943967710721,0.0809353996145596,5.0
0.48253939776571964,-0.4611315119631642,-0.22955053478046114,-0.07321130645910295,0.08152976510297828,0.05386041304938233,5.0
0.46876736693719134,-0.4416505206119545,-0.22955053478046114,-0.07430312693736228,0.06664042113965986,0.07159919712983397,5.0
0.47794872082287665,-0.4513909736616217,-0.21984564935046588,-0.06338492298706136,0.03507501345834018,0.09867418440670797,5.0
0.47335804388003433,-0.47574231941547845,-0.22955053478046114,-0.04536988644825752,0.013038786503750269,0.0856035011238087,5.0
0.46876736693719134,-0.47574231941547845,-0.24249039145824106,-0.07703267761282788,0.02554583398012305,0.08373626050231664,5.0
0.46876736693719134,-0.4562612428123929,-0.2521952768882363,-0.07266539632400984,0.02971485010825037,0.032387143989538604,5.0
0.47794872082287665,-0.47574231941547845,-0.236020477276031,-0.05301262917185355,0.05353779954155066,0.0454578307419596,5.0
0.48713007470856196,-0.4513909736616217,-0.23925542021045615,-0.02244165994205418,0.07140501229753277,0.0631966148224112,5.0
0.46876736693719134,-0.4513909736616217,-0.24572536270602627,-0.03936487371379467,0.05532452009074153,0.06132937446780544,5.0
0.46876736693719134,-0.4513909736616217,-0.2554302481360213,-0.03772714538924623,0.03447943967710721,0.0529267921603827,5.0
0.47794872082287665,-0.4611315119631642,-0.2489603339538112,-0.019166196634618347,0.05175107717634143,0.040789729143748385,5.0
0.47794872082287665,-0.47574231941547845,-0.2586652193838062,-0.012069366126846367,0.07200058278723245,0.016515600263692743,5.0
0.47794872082287665,-0.4513909736616217,-0.24249039145824106,-0.004972535619074374,0.05532452009074153,0.02118370470869098,5.0
0.46876736693719134,-0.4513909736616217,-0.23925542021045615,0.01577205201134124,0.031501571111445824,0.02678542434911481,5.0
0.4641766899943472,-0.4513909736616217,-0.22955053478046114,0.040883924051671273,0.049368782505414155,0.03425438576753791,5.0
0.47794872082287665,-0.4513909736616217,-0.22955053478046114,0.03160345133894207,0.040435177035432285,0.011847501512268583,5.0
0.47794872082287665,-0.4611315119631642,-0.22955053478046114,0.009767042606047865,0.0541333718472687,0.02585180346011514,5.0
0.48253939776571964,-0.4513909736616217,-0.2521952768882363,0.007583400401090642,0.03745730835626975,0.030519907905113372,5.0
0.46876736693719134,-0.4416505206119545,-0.21984564935046588,0.03542481853927825,0.024354686644659413,0.03145352310053897,5.0
0.46876736693719134,-0.4416505206119545,-0.21984564935046588,0.019047515318777054,-0.01793104785034103,0.0529267921603827,5.0
0.47794872082287665,-0.4416505206119545,-0.2521952768882363,0.032695272441420675,-0.016144325485131793,0.04919231145117115,5.0
0.47794872082287665,-0.4416505206119545,-0.2521952768882363,0.04579711235448605,0.030905997443714008,0.0230509407931162,5.0
0.47794872082287665,-0.4513909736616217,-0.2489603339538112,0.04033801350043198,0.08212533922471467,0.02585180346011514,5.0
0.48253939776571964,-0.4513909736616217,-0.2521952768882363,0.05398576396473668,0.06961828993232352,0.030519907905113372,5.0
0.4641766899943472,-0.44652070451085,-0.22955053478046114,0.039792102949192665,0.040435177035432285,0.006245776178270714,5.0
0.4641766899943472,-0.44652070451085,-0.2230806205982508,0.035970729090517566,0.02018567051653209,0.022117325597690647,5.0
0.47794872082287665,-0.4319099823104115,-0.236020477276031,0.018501604767537764,0.030310423775982188,0.0230509407931162,5.0
0.48253939776571964,-0.43678025146118316,-0.2489603339538112,0.04142982794457164,0.08093419098124188,0.008113017956270006,5.0
0.47794872082287665,-0.4562612428123929,-0.22631556353267598,0.07254670939019506,0.1029704189573421,0.013714743290267875,5.0
0.47794872082287665,-0.44652070451085,-0.22631556353267598,0.0659957960920013,0.09880140010518723,-0.00589128399157654,5.0
0.47335804388003433,-0.4172991748580976,-0.21337570685489599,0.04252164904705024,0.0273325554373231,0.03798886932353648,5.0
0.47794872082287665,-0.4172991748580976,-0.22955053478046114,0.05616940616969386,0.005296328369232033,-0.002156806129152056,5.0
0.5100834594227792,-0.43678025146118316,-0.2586652193838062,0.05999077337003004,0.07140501229753277,-0.01989559163299718,5.0
0.48713007470856196,-0.4416505206119545,-0.24572536270602627,0.032695272441420675,0.11071287527584198,-0.018028349854997863,5.0
0.48713007470856196,-0.4172991748580976,-0.23278550602824605,0.017409783665059145,0.07378730515244167,-0.02456368469084727,5.0
0.47335804388003433,-0.4172991748580976,-0.19073096474712076,0.030511630236463465,0.05592009421247794,-0.007758525769575833,5.0
0.47794872082287665,-0.4026883674057833,-0.20043585017711577,0.04579711235448605,0.0642581264687326,0.008113017956270006,5.0
0.47794872082287665,-0.4026883674057833,-0.21984564935046588,0.02341479972869146,0.064853700590469,0.013714743290267875,5.0
0.48713007470856196,-0.4075586365565546,-0.22631556353267598,0.008129310952329933,0.06247140410352333,0.009046638845269654,5.0
0.5009021055370939,-0.4172991748580976,-0.21661067810268092,0.010312953157287153,0.08212533922471467,0.0015776774268465516,5.0
0.4963114285942509,-0.4270397131596402,-0.21014076392047087,0.016317962562580543,0.07259615690896885,-0.018961970743997532,5.0
0.48713007470856196,-0.4172991748580976,-0.20690579267268572,0.024506614172831127,0.09641910725027832,0.009046638845269654,5.0
0.48253939776571964,-0.41242890570732593,-0.19720090724269065,0.041975745154149875,0.11071287527584198,0.008113017956270006,5.0
0.4963114285942509,-0.39781818350688747,-0.21337570685489599,0.04852667176902151,0.0785518944942962,0.010913880623268946,5.0
0.48713007470856196,-0.41242890570732593,-0.20690579267268572,0.032695272441420675,0.03686173463178736,0.006245776178270714,5.0
0.5009021055370939,-0.4075586365565546,-0.21337570685489599,0.032695272441420675,0.07616960163938734,-0.007758525769575833,5.0
0.4963114285942509,-0.4172991748580976,-0.24572536270602627,0.04961847955482226,0.08986779554321456,0.01838284204169205,5.0
0.4641766899943472,-0.4172991748580976,-0.20690579267268572,0.052348038969357656,0.0642581264687326,-0.018028349854997863,5.0
0.46876736693719134,-0.4026883674057833,-0.19073096474712076,0.0812812782100239,0.004700754247495629,0.03892248736574909,5.0
0.48253939776571964,-0.3929479143561162,-0.21337570685489599,0.0670876171944799,-0.010784162021540826,0.05759489375859389,5.0
0.505492782479937,-0.3832073760545736,-0.21014076392047087,0.07254670939019506,0.026736981315586685,0.02025008381969135,5.0
0.505492782479937,-0.3832073760545736,-0.21014076392047087,0.04907257566192187,0.09165451790842379,0.006245776178270714,5.0
0.5192648133084645,-0.3880776452053449,-0.236020477276031,0.023960703621591837,0.13691812210409707,0.008113017956270006,5.0
0.5100834594227792,-0.3832073760545736,-0.2230806205982508,-0.004426625067835072,0.11845533159434182,-0.01149300363200036,5.0
0.48253939776571964,-0.378337106903802,-0.19720090724269065,0.014134320357623345,0.09165451790842379,0.01558197937469311,5.0
0.47794872082287665,-0.3588560729266545,-0.16808622263934558,0.008129310952329933,0.033883866009375395,0.0006440565378469155,5.0
0.47794872082287665,-0.3637263420774257,-0.1842610505649105,0.004307937093654827,0.028523702772786735,0.01278112240126825,5.0
0.5009021055370939,-0.36859661122819704,-0.20367082142490073,-0.004972535619074374,0.06783156756711431,0.03798886932353648,5.0
0.5009021055370939,-0.37346683775303063,-0.19073096474712076,-0.005518446170313664,0.09403681076333269,0.03518800665653755,5.0
0.505492782479937,-0.3637263420774257,-0.20690579267268572,-0.01589073665635202,0.11130844939757838,0.041723347185961004,5.0
0.4963114285942509,-0.3588560729266545,-0.17455613682155563,-0.01589073665635202,0.0005317390273774873,0.0529267921603827,5.0
0.4963114285942509,-0.3832073760545736,-0.20690579267268572,-0.020258017737096963,0.01601665348039558,0.044524209852959934,5.0
0.5009021055370939,-0.3880776452053449,-0.20690579267268572,-0.037181234838006914,0.09820582598345082,0.0043785400938454915,5.0
0.5100834594227792,-0.3880776452053449,-0.21014076392047087,-0.06938993509730494,0.11488189412799685,0.00998025973426931,5.0
0.5009021055370939,-0.3588560729266545,-0.19720090724269065,-0.07157357589776879,0.06961828993232352,0.01744922115269241,5.0
0.4963114285942509,-0.36859661122819704,-0.1842610505649105,-0.07211948608488018,0.048177635169950515,0.01558197937469311,5.0
0.5009021055370939,-0.35398580377588285,-0.20043585017711577,-0.08958861280070053,0.040435177035432285,0.07440005837343938,5.0
0.4963114285942509,-0.3588560729266545,-0.20690579267268572,-0.0945018044326848,0.040435177035432285,0.07533367783904552,5.0
0.5100834594227792,-0.36859661122819704,-0.20690579267268572,-0.09613953442181795,0.031501571111445824,0.05572765198059458,5.0
0.48713007470856196,-0.3880776452053449,-0.19073096474712076,-0.09777726441095112,0.01839894996734123,0.08466988085754372,5.0
0.47335804388003433,-0.3880776452053449,-0.19720090724269065,-0.10651182823702578,0.033883866009375395,0.0809353996145596,5.0
0.4917207516514042,-0.35398580377588285,-0.17132116557377072,-0.10269045770752011,0.02911927598651396,0.09774056494110184,5.0
0.5009021055370939,-0.3588560729266545,-0.16808622263934558,-0.08849679169822193,0.05472894596900511,0.11081124742334227,5.0
0.48253939776571964,-0.36859661122819704,-0.1777911080693406,-0.091772253341073,0.04698648783448688,0.11081124742334227,5.0
0.48713007470856196,-0.36859661122819704,-0.16485125139156043,-0.09668544497305727,-0.0036372798247773946,0.08840436192260365,5.0
0.48713007470856196,-0.3588560729266545,-0.17132116557377072,-0.11852185037678202,0.01363435880946831,0.10987762795773615,5.0
0.4963114285942509,-0.36859661122819704,-0.1842610505649105,-0.09559362387057865,0.008274195345877346,0.13881985701260946,5.0
0.505492782479937,-0.3588560729266545,-0.1777911080693406,-0.09832317496219042,0.02554583398012305,0.09587332387479933,5.0
0.5100834594227792,-0.36859661122819704,-0.18102607931712558,-0.10869546711281348,0.030310423775982188,0.10334228600491917,5.0
0.5009021055370939,-0.3637263420774257,-0.1874959934993356,-0.09723135552429656,0.023163539309195777,0.09493970369749644,5.0
0.5009021055370939,-0.3832073760545736,-0.1842610505649105,-0.09068043223859439,0.011847638260277444,0.13135089559418636,5.0
0.5100834594227792,-0.3832073760545736,-0.19073096474712076,-0.07539494720754852,0.009465343589350172,0.12855003292718745,5.0
0.5100834594227792,-0.3880776452053449,-0.19073096474712076,-0.07157357589776879,0.04103075070316411,0.08373626050231664,5.0
0.5100834594227792,-0.3929479143561162,-0.17132116557377072,-0.07648676747773477,0.033883866009375395,0.07720091890534805,5.0
0.5009021055370939,-0.378337106903802,-0.16808622263934558,-0.07157357589776879,0.0005317390273774873,0.09213884316558776,5.0
0.5009021055370939,-0.37346683775303063,-0.1874959934993356,-0.07812449788301412,0.021972391065722952,0.10801038760313036,5.0
0.5009021055370939,-0.36859661122819704,-0.1874959934993356,-0.06938993509730494,0.02911927598651396,0.11267848920134156,5.0
0.48713007470856196,-0.3929479143561162,-0.1842610505649105,-0.06338492298706136,0.02495025985838664,0.08000177943725671,5.0
0.47335804388003433,-0.3880776452053449,-0.19720090724269065,-0.05956355162526335,0.013038786503750269,0.09027160245513362,5.0
0.4963114285942509,-0.37346683775303063,-0.20690579267268572,-0.04536988644825752,-0.02150448894872275,0.11921382973076504,5.0
0.5100834594227792,-0.36859661122819704,-0.19396593599490575,-0.02462529881784191,-0.038776127582968445,0.13228451363639898,5.0
0.5009021055370939,-0.378337106903802,-0.21014076392047087,-0.015344826105112718,-0.001850557459568146,0.11641296991055311,5.0
0.5009021055370939,-0.378337106903802,-0.19720090724269065,-0.04373215645912436,0.03507501345834018,0.12201469239776395,5.0
0.5009021055370939,-0.378337106903802,-0.19720090724269065,-0.06065537189544959,0.015421081174677541,0.10801038760313036,5.0
0.48713007470856196,-0.3832073760545736,-0.1777911080693406,-0.037181234838006914,-0.02150448894872275,0.1257491731069755,5.0
0.505492782479937,-0.3588560729266545,-0.21984564935046588,-0.03608941373552833,-0.013762032630222892,0.10520952635952496,5.0
0.505492782479937,-0.3588560729266545,-0.21984564935046588,-0.050828988631481074,0.005296328369232033,0.12108107150876433,5.0
0.5192648133084645,-0.3832073760545736,-0.22631556353267598,-0.05737991108489087,0.030310423775982188,0.12855003292718745,5.0
0.505492782479937,-0.3880776452053449,-0.21014076392047087,-0.05683400136594394,0.03567058718282257,0.1014750456503134,5.0
0.505492782479937,-0.3880776452053449,-0.21014076392047087,-0.061747192165635824,0.03567058718282257,0.09587332387479933,5.0
0.47794872082287665,-0.378337106903802,-0.20690579267268572,-0.05683400136594394,0.016612227602131987,0.1014750456503134,5.0
0.4963114285942509,-0.3832073760545736,-0.21337570685489599,-0.061747192165635824,0.017207801723868408,0.12761641203818777,5.0
0.4963114285942509,-0.3832073760545736,-0.21337570685489599,-0.048645348091108605,0.02495025985838664,0.10054142476131375,5.0
0.48713007470856196,-0.3880776452053449,-0.20690579267268572,-0.05301262917185355,0.01601665348039558,0.12855003292718745,5.0
0.48713007470856196,-0.3880776452053449,-0.20043585017711577,-0.06993584533643461,0.0005317390273774873,0.10801038760313036,5.0
0.48713007470856196,-0.3880776452053449,-0.20043585017711577,-0.07430312693736228,-0.015548751363395393,0.10334228600491917,5.0
0.4917207516514042,-0.3929479143561162,-0.19720090724269065,-0.07375721659419608,0.0005317390273774873,0.13601899434561052,5.0
0.4917207516514042,-0.3637263420774257,-0.21337570685489599,-0.07375721659419608,0.017207801723868408,0.14908968109803153,5.0
0.4917207516514042,-0.3637263420774257,-0.21337570685489599,-0.07703267761282788,0.008274195345877346,0.12761641203818777,5.0
0.48713007470856196,-0.378337106903802,-0.20043585017711577,-0.06829811482711871,-0.00601957267968628,0.12294831043997659,5.0
0.48713007470856196,-0.378337106903802,-0.20367082142490073,-0.061747192165635824,0.00767862122414094,0.1350853734566109,5.0
0.48253939776571964,-0.36859661122819704,-0.19720090724269065,-0.06611447407867314,0.021376817851995727,0.12668279399597518,5.0
0.47794872082287665,-0.378337106903802,-0.20043585017711577,-0.0945018044326848,0.01899452227305927,0.12761641203818777,5.0
0.5100834594227792,-0.3588560729266545,-0.24572536270602627,-0.09395589388144548,0.02018567051653209,0.142554334875034,5.0
0.48713007470856196,-0.3832073760545736,-0.20690579267268572,-0.08467542033642392,0.041626324370895924,0.12388193132897622,5.0
0.5009021055370939,-0.3929479143561162,-0.21014076392047087,-0.08958861280070053,0.03983960336770047,0.1378862361236098,5.0
0.4963114285942509,-0.37346683775303063,-0.19073096474712076,-0.10323636825875941,0.015421081174677541,0.14815606020903185,5.0
0.5009021055370939,-0.36859661122819704,-0.21661067810268092,-0.08030813925567896,0.0005317390273774873,0.16309398304587805,5.0
0.48253939776571964,-0.4026883674057833,-0.236020477276031,-0.07375721659419608,0.04579534049902324,0.14722243932003223,5.0
0.5009021055370939,-0.39781818350688747,-0.24572536270602627,-0.08030813925567896,0.05770681476166879,0.1696293235753015,5.0
0.48713007470856196,-0.3929479143561162,-0.21984564935046588,-0.06829811482711871,0.03805288213750272,0.15655864251645463,5.0
0.47335804388003433,-0.378337106903802,-0.21337570685489599,-0.07211948608488018,0.00767862122414094,0.1640276039348777,5.0
0.48713007470856196,-0.378337106903802,-0.24572536270602627,-0.09122634278983371,-0.0012549833378317412,0.14722243932003223,5.0
0.4917207516514042,-0.3929479143561162,-0.23925542021045615,-0.1256186842137235,0.03209714477917765,0.14442157665303332,5.0
0.5146741363656223,-0.39781818350688747,-0.19073096474712076,-0.11688412205223359,0.07795632037255983,0.14068709879060876,5.0
0.5009021055370939,-0.4172991748580976,-0.20367082142490073,-0.09832317496219042,0.09582353312854193,0.12761641203818777,5.0
0.48713007470856196,-0.41242890570732593,-0.21984564935046588,-0.09832317496219042,0.07200058278723245,0.14442157665303332,5.0
0.46876736693719134,-0.378337106903802,-0.21014076392047087,-0.12780232308951123,-0.0012549833378317412,0.1696293235753015,5.0
0.48713007470856196,-0.39781818350688747,-0.236020477276031,-0.1321696074994256,0.0029140318822864003,0.16309398304587805,5.0
0.505492782479937,-0.4416505206119545,-0.21337570685489599,-0.13053187584570772,0.06783156756711431,0.1453551975420329,5.0
0.505492782479937,-0.4416505206119545,-0.21337570685489599,-0.14308781186587274,0.08927222142147812,0.13228451363639898,5.0
0.46876736693719134,-0.4172991748580976,-0.21984564935046588,-0.12343504533793574,0.07557402751765091,0.12761641203818777,5.0
0.46876736693719134,-0.4270397131596402,-0.1842610505649105,-0.11633821150099428,0.031501571111445824,0.14348795576403361,5.0
0.46876736693719134,-0.4270397131596402,-0.1842610505649105,-0.10378227548082926,0.023163539309195777,0.17429742802029974,5.0
0.46876736693719134,-0.4270397131596402,-0.1842610505649105,-0.11033319876653143,0.017207801723868408,0.14348795576403361,5.0
0.47794872082287665,-0.4221694440088689,-0.22955053478046114,-0.11524639039851567,0.045199766377286836,0.13135089559418636,5.0
0.48253939776571964,-0.4319099823104115,-0.23925542021045615,-0.10323636825875941,0.04877320929168693,0.142554334875034,5.0
0.48253939776571964,-0.4319099823104115,-0.23925542021045615,-0.10596591768578645,0.03686173463178736,0.11174486831234191,5.0
0.48253939776571964,-0.4319099823104115,-0.23925542021045615,-0.10705773878826506,0.005296328369232033,0.11641296991055311,5.0
0.48253939776571964,-0.4172991748580976,-0.21984564935046588,-0.08904270224946124,0.045199766377286836,0.14442157665303332,5.0
0.48253939776571964,-0.4172991748580976,-0.21984564935046588,-0.08467542033642392,0.06306697822525975,0.1061431472485246,5.0
0.48253939776571964,-0.4172991748580976,-0.21984564935046588,-0.07539494720754852,0.04341304582809597,0.12761641203818777,5.0
0.46876736693719134,-0.4270397131596402,-0.20367082142490073,-0.07484903707245541,0.004700754247495629,0.12388193132897622,5.0
0.47794872082287665,-0.4416505206119545,-0.20367082142490073,-0.07430312693736228,0.006487474796686497,0.11547934902155348,5.0
0.48253939776571964,-0.4270397131596402,-0.23278550602824605,-0.08030813925567896,0.031501571111445824,0.11267848920134156,5.0
0.48713007470856196,-0.43678025146118316,-0.21337570685489599,-0.06611447407867314,0.05532452009074153,0.09027160245513362,5.0
0.48713007470856196,-0.4270397131596402,-0.20043585017711577,-0.0644767432572476,0.050559930748886976,0.11734659079955279,5.0
0.48713007470856196,-0.4270397131596402,-0.20043585017711577,-0.06393083353830066,0.0273325554373231,0.10987762795773615,5.0
0.48713007470856196,-0.4270397131596402,-0.20043585017711577,-0.04209442646999118,-0.0006594092160953429,0.1378862361236098,5.0
0.46876736693719134,-0.41242890570732593,-0.21661067810268092,-0.03554350318428902,0.0511555039626142,0.10801038760313036,5.0
0.46876736693719134,-0.41242890570732593,-0.21661067810268092,-0.03936487371379467,0.06306697822525975,0.09400608352019355,5.0
0.46876736693719134,-0.41242890570732593,-0.21661067810268092,-0.02899257989858687,0.01780337584560482,0.11361211009034121,5.0
0.46876736693719134,-0.41242890570732593,-0.21661067810268092,-0.016982557758830626,-0.00840186916663194,0.10427590689391882,5.0
0.46876736693719134,-0.41242890570732593,-0.21661067810268092,-0.032813953757261975,-0.003041705703040976,0.1257491731069755,5.0
0.46876736693719134,-0.41242890570732593,-0.21661067810268092,-0.05956355162526335,0.03745730835626975,0.12201469239776395,5.0
0.46876736693719134,-0.41242890570732593,-0.21661067810268092,-0.06065537189544959,0.045199766377286836,0.11641296991055311,5.0
0.4963114285942509,-0.4221694440088689,-0.2230806205982508,-0.03008440100106546,0.048177635169950515,0.0809353996145596,5.0
0.4963114285942509,-0.4221694440088689,-0.2230806205982508,-0.031176222103544073,0.033883866009375395,0.10054142476131375,5.0
0.4963114285942509,-0.4221694440088689,-0.2230806205982508,-0.044823975897018226,0.0273325554373231,0.11828021168855243,5.0
0.4963114285942509,-0.4221694440088689,-0.2230806205982508,-0.02899257989858687,0.06664042113965986,0.11734659079955279,5.0
0.47794872082287665,-0.41242890570732593,-0.21337570685489599,-0.05847173135507711,0.07795632037255983,0.07626729872804516,5.0
0.47794872082287665,-0.41242890570732593,-0.21337570685489599,-0.0677522044839525,0.045199766377286836,0.09867418440670797,5.0
0.47335804388003433,-0.3832073760545736,-0.236020477276031,-0.05792582080383781,0.05770681476166879,0.09120522263243651,5.0
0.4917207516514042,-0.43678025146118316,-0.21984564935046588,-0.05410445027433216,0.09641910725027832,0.08186902014771087,5.0
0.48253939776571964,-0.4270397131596402,-0.21337570685489599,-0.03881896316255538,0.07616960163938734,0.09493970369749644,5.0
0.47794872082287665,-0.4221694440088689,-0.21014076392047087,-0.05956355162526335,0.03507501345834018,0.09774056494110184,5.0
0.47794872082287665,-0.4172991748580976,-0.21661067810268092,-0.06065537189544959,0.05353779954155066,0.1061431472485246,5.0
0.48713007470856196,-0.4270397131596402,-0.21661067810268092,-0.08795088114698263,0.08629435444483283,0.07813453908265093,5.0
0.47794872082287665,-0.4270397131596402,-0.21337570685489599,-0.07157357589776879,0.07080943817579637,0.09307246334289065,5.0
0.505492782479937,-0.4172991748580976,-0.23925542021045615,-0.07812449788301412,0.07616960163938734,0.13135089559418636,5.0
0.4917207516514042,-0.4172991748580976,-0.20690579267268572,-0.08412951061747698,0.07438287927417807,0.07626729872804516,5.0
0.48253939776571964,-0.43678025146118316,-0.20043585017711577,-0.08849679169822193,0.06902271581058712,0.09307246334289065,5.0
0.4917207516514042,-0.4270397131596402,-0.21337570685489599,-0.11688412205223359,0.0511555039626142,0.08186902014771087,5.0
0.4917207516514042,-0.4416505206119545,-0.21984564935046588,-0.11797594315471219,0.0684271416888507,0.11267848920134156,5.0
0.4917207516514042,-0.4319099823104115,-0.23925542021045615,-0.1130627515227279,0.10416156720081493,0.05572765198059458,5.0
0.4917207516514042,-0.4172991748580976,-0.20690579267268572,-0.11470047984727637,0.10713943054542349,0.06973195677522818,5.0
0.47794872082287665,-0.4075586365565546,-0.20690579267268572,-0.10323636825875941,0.07557402751765091,0.08186902014771087,5.0
0.47794872082287665,-0.43678025146118316,-0.19073096474712076,-0.09668544497305727,0.07736074625082338,0.06413023428801734,5.0
0.4917207516514042,-0.44652070451085,-0.19720090724269065,-0.0677522044839525,0.09880140010518723,0.07720091890534805,5.0
0.46876736693719134,-0.4319099823104115,-0.21337570685489599,-0.061747192165635824,0.08748550268830564,0.05386041304938233,5.0
0.46876736693719134,-0.4172991748580976,-0.19720090724269065,-0.044823975897018226,0.08033861685950544,0.07066557624083432,5.0
0.46876736693719134,-0.4513909736616217,-0.19073096474712076,-0.05301262917185355,0.07616960163938734,0.05572765198059458,5.0
0.46876736693719134,-0.4270397131596402,-0.16161628014377546,-0.03335986430850129,0.01839894996734123,0.07626729872804516,5.0
0.47335804388003433,-0.4416505206119545,-0.1842610505649105,-0.03499759263304972,0.01482550705294114,0.08186902014771087,5.0
0.5009021055370939,-0.47574231941547845,-0.20043585017711577,-0.027900762125277735,0.06128025767606889,0.0510595503823834,5.0
0.4917207516514042,-0.4416505206119545,-0.20367082142490073,-0.04154851591875189,0.09820582598345082,0.0454578307419596,5.0
0.47335804388003433,-0.44652070451085,-0.20043585017711577,-0.03554350318428902,0.07914746861603264,0.0435905889639603,5.0
0.46876736693719134,-0.44652070451085,-0.18102607931712558,-0.026263030471559826,0.0642581264687326,0.037055248434536836,5.0
0.47794872082287665,-0.4270397131596402,-0.19396593599490575,-0.014798918883042878,0.08688992856656926,0.04639144878417218,5.0
0.4917207516514042,-0.4270397131596402,-0.20367082142490073,-0.03335986430850129,0.08927222142147812,0.05386041304938233,5.0
0.48253939776571964,-0.4270397131596402,-0.19396593599490575,-0.025171209369081217,0.07676517576112374,0.05852851464759353,5.0
0.48713007470856196,-0.4513909736616217,-0.17455613682155563,-0.023533481044532765,0.07080943817579637,0.05852851464759353,5.0
0.48713007470856196,-0.43678025146118316,-0.1777911080693406,-0.022987570493293474,0.08212533922471467,0.037055248434536836,5.0
0.48713007470856196,-0.4172991748580976,-0.18102607931712558,-0.011523455575607076,0.08093419098124188,0.0529267921603827,5.0
0.4917207516514042,-0.41242890570732593,-0.19073096474712076,-0.0011511617603992452,0.0785518944942962,0.05572765198059458,5.0
0.5009021055370939,-0.4221694440088689,-0.19073096474712076,-0.005518446170313664,0.08688992856656926,0.04919231145117115,5.0
0.48713007470856196,-0.4270397131596402,-0.15514636596156536,0.009767042606047865,0.04460419316355961,0.07346643748443973,5.0
0.48713007470856196,-0.43678025146118316,-0.17455613682155563,-0.003880714516595757,0.044008619041823197,0.05386041304938233,5.0
0.48253939776571964,-0.4270397131596402,-0.1777911080693406,-0.005518446170313664,0.03686173463178736,0.06973195677522818,5.0
0.48713007470856196,-0.4172991748580976,-0.19073096474712076,0.012496595362244376,0.04639091462075966,0.040789729143748385,5.0
0.48713007470856196,-0.39781818350688747,-0.1842610505649105,-0.017528468310069916,0.07021386405405997,0.06693109553162277,5.0
0.48253939776571964,-0.4026883674057833,-0.20690579267268572,-0.023533481044532765,0.06306697822525975,0.07253281801883361,5.0
0.48713007470856196,-0.4172991748580976,-0.20690579267268572,-0.03226804320602268,0.04222189803862774,0.07626729872804516,5.0
0.4963114285942509,-0.4270397131596402,-0.1842610505649105,-0.042640337021230476,0.033883866009375395,0.05199317127138303,5.0
0.5009021055370939,-0.3929479143561162,-0.19720090724269065,-0.04536988644825752,0.04222189803862774,0.06506385517701699,5.0
0.4917207516514042,-0.3929479143561162,-0.19720090724269065,-0.04100260536751258,0.048177635169950515,0.04265696807496064,5.0
0.4963114285942509,-0.4026883674057833,-0.19073096474712076,-0.056288090814704636,0.033883866009375395,0.06506385517701699,5.0
0.47794872082287665,-0.4416505206119545,-0.19073096474712076,-0.05847173135507711,0.01482550705294114,0.07066557624083432,5.0
0.48713007470856196,-0.4319099823104115,-0.16808622263934558,-0.06829811482711871,0.010656490016804614,0.06599747606601664,5.0
0.47794872082287665,-0.4270397131596402,-0.16485125139156043,-0.0677522044839525,0.007083048918422898,0.08000177943725671,5.0
0.4917207516514042,-0.41242890570732593,-0.1842610505649105,-0.048099437539869304,0.017207801723868408,0.06226299535680509,5.0
0.4917207516514042,-0.4270397131596402,-0.19396593599490575,-0.04045669481627328,0.026141407193850275,0.0856035011238087,5.0
0.48713007470856196,-0.4416505206119545,-0.16161628014377546,-0.05192080973395968,0.004105180125759224,0.08933798227783073,5.0
0.4917207516514042,-0.4270397131596402,-0.17132116557377072,-0.025717119920320518,-0.0363938310960228,0.10334228600491917,5.0
0.5100834594227792,-0.4416505206119545,-0.1842610505649105,-0.03499759263304972,0.010656490016804614,0.06226299535680509,5.0
0.4963114285942509,-0.4172991748580976,-0.19073096474712076,-0.021895749390814866,0.04460419316355961,0.0809353996145596,5.0
0.5009021055370939,-0.4075586365565546,-0.17455613682155563,-0.042640337021230476,0.02554583398012305,0.05199317127138303,5.0
0.4917207516514042,-0.4075586365565546,-0.16808622263934558,-0.03390577153057111,-0.0012549833378317412,0.06879833588622854,5.0
0.48713007470856196,-0.41242890570732593,-0.19073096474712076,-0.028446672676517026,0.005891900674950075,0.08373626050231664,5.0
0.48713007470856196,-0.41242890570732593,-0.19073096474712076,-0.026263030471559826,0.017207801723868408,0.06599747606601664,5.0
0.505492782479937,-0.41242890570732593,-0.20690579267268572,-0.048099437539869304,0.01363435880946831,0.07253281801883361,5.0
0.505492782479937,-0.4075586365565546,-0.19720090724269065,-0.04427806701036366,0.03507501345834018,0.05852851464759353,5.0
0.5100834594227792,-0.4026883674057833,-0.20367082142490073,-0.04154851591875189,0.041626324370895924,0.05199317127138303,5.0
0.47794872082287665,-0.4172991748580976,-0.16808622263934558,-0.05246671862061426,0.04103075070316411,0.05666127286959424,5.0
0.48713007470856196,-0.4026883674057833,-0.19073096474712076,-0.04154851591875189,0.03209714477917765,0.08466988085754372,5.0
0.48253939776571964,-0.39781818350688747,-0.18102607931712558,-0.02899257989858687,0.03924402947296635,0.08466988085754372,5.0
0.47794872082287665,-0.4075586365565546,-0.19073096474712076,-0.03772714538924623,0.01959009639479568,0.0809353996145596,5.0
0.47794872082287665,-0.39781818350688747,-0.19073096474712076,-0.04591579699949683,-0.0012549833378317412,0.06506385517701699,5.0
0.47794872082287665,-0.4026883674057833,-0.19720090724269065,-0.04536988644825752,0.02911927598651396,0.06506385517701699,5.0
0.48713007470856196,-0.4026883674057833,-0.19720090724269065,-0.05246671862061426,0.023163539309195777,0.07720091890534805,5.0
0.5009021055370939,-0.3880776452053449,-0.18102607931712558,-0.056288090814704636,0.01780337584560482,0.09493970369749644,5.0
0.48713007470856196,-0.3832073760545736,-0.19720090724269065,-0.05465036082557146,0.01363435880946831,0.07906815925995382,5.0
0.48713007470856196,-0.3929479143561162,-0.19396593599490575,-0.07921631815320036,0.009465343589350172,0.08186902014771087,5.0
0.4917207516514042,-0.3929479143561162,-0.19720090724269065,-0.08849679169822193,-6.383509435891768e-05,0.08840436192260365,5.0
0.4963114285942509,-0.39781818350688747,-0.1842610505649105,-0.09941499440008432,0.007083048918422898,0.07440005837343938,5.0
0.48713007470856196,-0.3880776452053449,-0.19073096474712076,-0.091772253341073,0.03745730835626975,0.06039575357880579,5.0
0.5009021055370939,-0.3832073760545736,-0.20367082142490073,-0.09777726441095112,0.04996435662715057,0.07813453908265093,5.0
0.47794872082287665,-0.41242890570732593,-0.17455613682155563,-0.10214454715628082,0.0207812446382685,0.07346643748443973,5.0
0.48253939776571964,-0.4026883674057833,-0.20367082142490073,-0.0945018044326848,-0.013166458508486481,0.08933798227783073,5.0
0.48713007470856196,-0.4075586365565546,-0.20690579267268572,-0.09559362387057865,-0.018526621972077432,0.11641296991055311,5.0
0.4963114285942509,-0.4172991748580976,-0.21337570685489599,-0.08249177979605143,0.0011273095170771653,0.10707676671413072,5.0
0.505492782479937,-0.4075586365565546,-0.21984564935046588,-0.06556856394358002,0.05234665129807784,0.09493970369749644,5.0
0.505492782479937,-0.4075586365565546,-0.21984564935046588,-0.08522133005537084,0.06902271581058712,0.09120522263243651,5.0
0.46876736693719134,-0.37346683775303063,-0.1842610505649105,-0.06829811482711871,-0.004828424436213457,0.09400608352019355,5.0
0.505492782479937,-0.4026883674057833,-0.19720090724269065,-0.06120128244668889,-0.001850557459568146,0.0968069440521022,5.0
0.4963114285942509,-0.3832073760545736,-0.21337570685489599,-0.07812449788301412,0.00767862122414094,0.07720091890534805,5.0
0.5009021055370939,-0.3880776452053449,-0.21337570685489599,-0.09777726441095112,0.0475820619562233,0.08466988085754372,5.0
0.5009021055370939,-0.3880776452053449,-0.21337570685489599,-0.10432818603206856,0.010060917711086597,0.08280264032501375,5.0
0.4963114285942509,-0.4075586365565546,-0.20043585017711577,-0.07976222870443966,0.010656490016804614,0.08000177943725671,5.0
0.5009021055370939,-0.4075586365565546,-0.21337570685489599,-0.04919125864234791,0.05889796300514162,0.09307246334289065,5.0
0.5009021055370939,-0.4075586365565546,-0.21337570685489599,-0.05465036082557146,0.0785518944942962,0.09867418440670797,5.0
0.48713007470856196,-0.3832073760545736,-0.19720090724269065,-0.06065537189544959,0.05234665129807784,0.10520952635952496,5.0
0.4963114285942509,-0.3880776452053449,-0.20043585017711577,-0.056288090814704636,0.0511555039626142,0.05666127286959424,5.0
0.5009021055370939,-0.39781818350688747,-0.20367082142490073,-0.03936487371379467,0.060089109432596065,0.0435905889639603,5.0
0.5009021055370939,-0.39781818350688747,-0.20367082142490073,-0.03335986430850129,0.11905090571607824,0.033320764878538245,5.0
0.4917207516514042,-0.3832073760545736,-0.21661067810268092,-0.044823975897018226,0.1470428749095426,0.05852851464759353,5.0
0.47794872082287665,-0.36859661122819704,-0.1842610505649105,-0.03445168208181041,0.05770681476166879,0.08280264032501375,5.0
0.47794872082287665,-0.36859661122819704,-0.1842610505649105,-0.026263030471559826,-0.016739899606868197,0.09774056494110184,5.0
0.5009021055370939,-0.39781818350688747,-0.21014076392047087,-0.039910784265033965,0.01839894996734123,0.09774056494110184,5.0
0.4963114285942509,-0.3929479143561162,-0.21984564935046588,-0.06993584533643461,0.08510320620135998,0.1061431472485246,5.0
0.4963114285942509,-0.3929479143561162,-0.21984564935046588,-0.08303768951499838,0.07914746861603264,0.08186902014771087,5.0
0.48713007470856196,-0.3929479143561162,-0.19396593599490575,-0.11579230094975496,0.06544927289618703,0.09867418440670797,5.0
0.48253939776571964,-0.3832073760545736,-0.1874959934993356,-0.11524639039851567,0.05234665129807784,0.10707676671413072,5.0
0.48713007470856196,-0.3832073760545736,-0.1842610505649105,-0.09340998333020618,0.03864845580523454,0.10987762795773615,5.0
0.4917207516514042,-0.3832073760545736,-0.19073096474712076,-0.10269045770752011,0.031501571111445824,0.10801038760313036,5.0
0.4917207516514042,-0.3637263420774257,-0.19720090724269065,-0.10869546711281348,0.04639091462075966,0.0809353996145596,5.0
0.5009021055370939,-0.3588560729266545,-0.17455613682155563,-0.11142501986901,0.031501571111445824,0.09307246334289065,5.0
0.5100834594227792,-0.378337106903802,-0.19073096474712076,-0.1196136714792606,0.04222189803862774,0.10240866653931306,5.0
0.5009021055370939,-0.378337106903802,-0.16485125139156043,-0.10269045770752011,0.03447943967710721,0.10801038760313036,5.0
0.48713007470856196,-0.3832073760545736,-0.18102607931712558,-0.08412951061747698,-0.008997443288368346,0.10334228600491917,5.0
0.48713007470856196,-0.4026883674057833,-0.22631556353267598,-0.11906776092802132,-0.02031334433728669,0.11174486831234191,5.0
0.5146741363656223,-0.39781818350688747,-0.19073096474712076,-0.10705773878826506,0.004105180125759224,0.09027160245513362,5.0
0.5192648133084645,-0.3880776452053449,-0.20690579267268572,-0.09777726441095112,0.07319173103070527,0.06973195677522818,5.0
0.5009021055370939,-0.3929479143561162,-0.1842610505649105,-0.09286407277896687,0.09522795900680549,0.1014750456503134,5.0
0.4917207516514042,-0.378337106903802,-0.18102607931712558,-0.06993584533643461,0.021972391065722952,0.14348795576403361,5.0
0.4641766899943472,-0.4026883674057833,-0.16808622263934558,-0.1015986366050415,-0.014953180873695716,0.16122674126787878,5.0
0.47794872082287665,-0.4221694440088689,-0.18102607931712558,-0.11197093042024933,-0.06379022616775075,0.13228451363639898,5.0
0.47794872082287665,-0.4172991748580976,-0.19073096474712076,-0.11743003260347289,0.006487474796686497,0.10334228600491917,5.0
0.5100834594227792,-0.4221694440088689,-0.21984564935046588,-0.08958861280070053,0.07914746861603264,0.07626729872804516,5.0
0.5009021055370939,-0.3929479143561162,-0.21661067810268092,-0.04536988644825752,0.10773500466715992,0.10520952635952496,5.0
0.47794872082287665,-0.378337106903802,-0.19073096474712076,-0.028446672676517026,0.07140501229753277,0.12108107150876433,5.0
0.48713007470856196,-0.4075586365565546,-0.19396593599490575,-0.055742180263465335,-0.001850557459568146,0.12014745061976467,5.0
0.48713007470856196,-0.4172991748580976,-0.19073096474712076,-0.05465036082557146,-0.011379736143277253,0.10894400849213001,5.0
0.505492782479937,-0.4221694440088689,-0.19720090724269065,-0.028446672676517026,0.06247140410352333,0.09960780529570762,5.0
0.4963114285942509,-0.4075586365565546,-0.21337570685489599,-0.021349838839575568,0.09165451790842379,0.09774056494110184,5.0
0.48713007470856196,-0.4075586365565546,-0.1842610505649105,-0.012069366126846367,0.03805288213750272,0.12014745061976467,5.0
0.46876736693719134,-0.4172991748580976,-0.17132116557377072,-0.023533481044532765,-0.009593017410104751,0.12388193132897622,5.0
0.47335804388003433,-0.4075586365565546,-0.19396593599490575,-0.025171209369081217,-0.01733547372860462,0.1257491731069755,5.0
0.5009021055370939,-0.4075586365565546,-0.236020477276031,0.001032480444557952,0.014229932931204715,0.11547934902155348,5.0
0.5100834594227792,-0.41242890570732593,-0.21661067810268092,-0.015344826105112718,0.060089109432596065,0.11361211009034121,5.0
0.5009021055370939,-0.41242890570732593,-0.1842610505649105,-0.01643664720759131,0.07080943817579637,0.09493970369749644,5.0
0.4917207516514042,-0.3929479143561162,-0.19073096474712076,-0.01589073665635202,0.03567058718282257,0.09493970369749644,5.0
0.47794872082287665,-0.3929479143561162,-0.17132116557377072,-0.019166196634618347,0.0029140318822864003,0.11734659079955279,5.0
0.48253939776571964,-0.39781818350688747,-0.19073096474712076,-0.021349838839575568,-0.02329121131393199,0.1332181345253986,5.0
0.48713007470856196,-0.4075586365565546,-0.21337570685489599,-0.019712107185857662,-0.03282039362967783,0.11734659079955279,5.0
0.5100834594227792,-0.39781818350688747,-0.22631556353267598,-0.025171209369081217,0.021972391065722952,0.11828021168855243,5.0
0.5100834594227792,-0.39781818350688747,-0.22631556353267598,-0.030630311552304775,0.08093419098124188,0.11267848920134156,5.0
0.5009021055370939,-0.3929479143561162,-0.20367082142490073,-0.03390577153057111,0.05532452009074153,0.10894400849213001,5.0
0.4963114285942509,-0.3880776452053449,-0.20690579267268572,-0.04373215645912436,-0.0012549833378317412,0.11547934902155348,5.0
0.4963114285942509,-0.3880776452053449,-0.20690579267268572,-0.05028307808024178,0.005891900674950075,0.1014750456503134,5.0
0.48713007470856196,-0.4026883674057833,-0.20367082142490073,-0.06611447407867314,0.01899452227305927,0.13228451363639898,5.0
0.5009021055370939,-0.4172991748580976,-0.21661067810268092,-0.06120128244668889,0.03269271844690946,0.09307246334289065,5.0
0.5009021055370939,-0.4172991748580976,-0.21661067810268092,-0.07211948608488018,0.05592009421247794,0.10520952635952496,5.0
0.4917207516514042,-0.4075586365565546,-0.2230806205982508,-0.09122634278983371,0.04579534049902324,0.10894400849213001,5.0
0.47335804388003433,-0.4026883674057833,-0.21014076392047087,-0.07539494720754852,-0.0036372798247773946,0.12014745061976467,5.0
0.47335804388003433,-0.4026883674057833,-0.21014076392047087,-0.0677522044839525,0.01363435880946831,0.11267848920134156,5.0
0.48713007470856196,-0.4172991748580976,-0.19720090724269065,-0.08249177979605143,-0.02210006307045917,0.10054142476131375,5.0
0.5009021055370939,-0.4270397131596402,-0.22955053478046114,-0.1097872882152921,0.015421081174677541,0.11454572813255383,5.0
0.505492782479937,-0.4270397131596402,-0.21337570685489599,-0.08412951061747698,0.040435177035432285,0.10427590689391882,5.0
0.48253939776571964,-0.44652070451085,-0.21984564935046588,-0.07484903707245541,0.06723599344537791,0.11361211009034121,5.0
0.4917207516514042,-0.4270397131596402,-0.20690579267268572,-0.08522133005537084,0.04103075070316411,0.11361211009034121,5.0
0.48253939776571964,-0.4270397131596402,-0.20367082142490073,-0.10432818603206856,0.0011273095170771653,0.10427590689391882,5.0
0.48713007470856196,-0.4416505206119545,-0.2230806205982508,-0.07812449788301412,0.011847638260277444,0.11267848920134156,5.0
0.5009021055370939,-0.4270397131596402,-0.20690579267268572,-0.07157357589776879,0.0475820619562233,0.12761641203818777,5.0
0.5100834594227792,-0.4270397131596402,-0.20043585017711577,-0.08030813925567896,0.05651566833421435,0.08373626050231664,5.0
0.48713007470856196,-0.4319099823104115,-0.21661067810268092,-0.061747192165635824,0.04996435662715057,0.10427590689391882,5.0
0.4917207516514042,-0.4026883674057833,-0.20690579267268572,-0.06720629434885937,0.04639091462075966,0.09587332387479933,5.0
0.47794872082287665,-0.4172991748580976,-0.20367082142490073,-0.0677522044839525,0.0023184577605499753,0.11267848920134156,5.0
0.48253939776571964,-0.4270397131596402,-0.21984564935046588,-0.04700761810197545,-0.02388678543566839,0.11081124742334227,5.0
0.48713007470856196,-0.4319099823104115,-0.21984564935046588,-0.03827305594048553,0.011847638260277444,0.11361211009034121,5.0
0.4917207516514042,-0.4221694440088689,-0.21337570685489599,-0.04045669481627328,0.03209714477917765,0.11734659079955279,5.0
0.48713007470856196,-0.4270397131596402,-0.236020477276031,-0.05355853972309286,0.044008619041823197,0.0856035011238087,5.0
0.48713007470856196,-0.4270397131596402,-0.2230806205982508,-0.05137489918272039,0.04222189803862774,0.11828021168855243,5.0
0.48253939776571964,-0.4026883674057833,-0.21014076392047087,-0.04318624590788505,0.028523702772786735,0.11454572813255383,5.0
0.48253939776571964,-0.4172991748580976,-0.19720090724269065,-0.04700761810197545,0.026141407193850275,0.11547934902155348,5.0
0.48713007470856196,-0.41242890570732593,-0.2230806205982508,-0.048645348091108605,0.026141407193850275,0.1061431472485246,5.0
0.48713007470856196,-0.4172991748580976,-0.21984564935046588,-0.05137489918272039,0.04698648783448688,0.09587332387479933,5.0
0.48253939776571964,-0.4172991748580976,-0.21984564935046588,-0.06120128244668889,0.02911927598651396,0.10520952635952496,5.0
0.47794872082287665,-0.4270397131596402,-0.21014076392047087,-0.06666038421376626,0.01959009639479568,0.1014750456503134,5.0
0.48253939776571964,-0.4172991748580976,-0.236020477276031,-0.070481755523546,0.01780337584560482,0.08747074165633867,5.0
0.47794872082287665,-0.4026883674057833,-0.21984564935046588,-0.07648676747773477,0.023759112522923002,0.10894400849213001,5.0
0.47335804388003433,-0.4270397131596402,-0.20690579267268572,-0.06338492298706136,0.0207812446382685,0.09493970369749644,5.0
0.47794872082287665,-0.4270397131596402,-0.22955053478046114,-0.07157357589776879,0.03209714477917765,0.10427590689391882,5.0
0.48713007470856196,-0.4172991748580976,-0.22955053478046114,-0.07266539632400984,0.03745730835626975,0.07720091890534805,5.0
0.47794872082287665,-0.4075586365565546,-0.23278550602824605,-0.08030813925567896,0.024354686644659413,0.09493970369749644,5.0
0.47794872082287665,-0.4075586365565546,-0.23278550602824605,-0.061747192165635824,-0.003041705703040976,0.09120522263243651,5.0
0.4917207516514042,-0.4026883674057833,-0.21337570685489599,-0.07539494720754852,0.014229932931204715,0.07906815925995382,5.0
0.48253939776571964,-0.43678025146118316,-0.22955053478046114,-0.09723135552429656,-0.0006594092160953429,0.09307246334289065,5.0
0.47794872082287665,-0.4270397131596402,-0.23278550602824605,-0.11743003260347289,0.0035096060040228053,0.07906815925995382,5.0
0.48253939776571964,-0.4172991748580976,-0.22955053478046114,-0.08085404897462589,0.02971485010825037,0.07253281801883361,5.0
0.47794872082287665,-0.43678025146118316,-0.236020477276031,-0.05956355162526335,0.045199766377286836,0.08747074165633867,5.0
0.4595860130515038,-0.4270397131596402,-0.21014076392047087,-0.04755352698862999,0.02792812865105032,0.08933798227783073,5.0
0.48713007470856196,-0.4416505206119545,-0.2230806205982508,-0.062293102716875125,0.011252064138541037,0.08933798227783073,5.0
0.4963114285942509,-0.4319099823104115,-0.22631556353267598,-0.062293102716875125,0.024354686644659413,0.06973195677522818,5.0
0.48253939776571964,-0.4075586365565546,-0.24572536270602627,-0.04318624590788505,0.048177635169950515,0.05386041304938233,5.0
0.47794872082287665,-0.4172991748580976,-0.22955053478046114,-0.05792582080383781,0.04877320929168693,0.06599747606601664,5.0
0.48713007470856196,-0.41242890570732593,-0.21984564935046588,-0.046461707550736135,0.06128025767606889,0.08373626050231664,5.0
0.47335804388003433,-0.4026883674057833,-0.22955053478046114,-0.046461707550736135,0.03745730835626975,0.09493970369749644,5.0
0.47794872082287665,-0.4270397131596402,-0.21014076392047087,-0.04536988644825752,-0.00601957267968628,0.09307246334289065,5.0
0.5009021055370939,-0.4026883674057833,-0.21014076392047087,-0.05137489918272039,-0.013762032630222892,0.1014750456503134,5.0
0.5009021055370939,-0.4270397131596402,-0.22631556353267598,-0.031722132654783367,0.010656490016804614,0.06786471642062242,5.0
0.5009021055370939,-0.4319099823104115,-0.21014076392047087,-0.03226804320602268,0.06128025767606889,0.06973195677522818,5.0
0.48253939776571964,-0.4026883674057833,-0.19720090724269065,-0.04209442646999118,0.05175107717634143,0.06599747606601664,5.0
0.47335804388003433,-0.4026883674057833,-0.19720090724269065,-0.03335986430850129,0.02971485010825037,0.08280264032501375,5.0
0.48713007470856196,-0.4075586365565546,-0.20367082142490073,-0.03772714538924623,0.02911927598651396,0.07159919712983397,5.0
0.5009021055370939,-0.4075586365565546,-0.22631556353267598,-0.027900762125277735,0.03328829234164358,0.06039575357880579,5.0
0.4963114285942509,-0.4026883674057833,-0.23278550602824605,-0.016982557758830626,0.04222189803862774,0.05572765198059458,5.0
0.4917207516514042,-0.4172991748580976,-0.24572536270602627,-0.010431634473128459,0.03864845580523454,0.0510595503823834,5.0
0.48713007470856196,-0.4221694440088689,-0.21337570685489599,-0.02080392828833627,0.03209714477917765,0.05666127286959424,5.0
0.47335804388003433,-0.4221694440088689,-0.19396593599490575,-0.004972535619074374,0.04222189803862774,0.07346643748443973,5.0
0.48253939776571964,-0.4270397131596402,-0.22631556353267598,-0.0011511617603992452,0.0273325554373231,0.05759489375859389,5.0
0.5009021055370939,-0.4270397131596402,-0.21661067810268092,0.00485384764489413,0.04341304582809597,0.05199317127138303,5.0
0.4963114285942509,-0.4221694440088689,-0.20690579267268572,-0.004426625067835072,0.05651566833421435,0.06039575357880579,5.0
0.4917207516514042,-0.3929479143561162,-0.23925542021045615,0.00539975819613342,0.08450763207962358,0.059462132689806144,5.0
0.47794872082287665,-0.4026883674057833,-0.20367082142490073,-0.0011511617603992452,0.12083762808128745,0.07626729872804516,5.0
0.46876736693719134,-0.3929479143561162,-0.18102607931712558,-0.008247992268171238,0.05532452009074153,0.0856035011238087,5.0
0.48713007470856196,-0.4026883674057833,-0.19396593599490575,-0.018074378861309224,0.00172288363881357,0.06413023428801734,5.0
0.5100834594227792,-0.3929479143561162,-0.19073096474712076,-0.02735485157403842,0.03269271844690946,0.06506385517701699,5.0
0.5192648133084645,-0.4026883674057833,-0.2230806205982508,-0.032813953757261975,0.058302388883405214,0.07066557624083432,5.0
0.505492782479937,-0.4026883674057833,-0.20690579267268572,-0.055742180263465335,0.10713943054542349,0.07906815925995382,5.0
0.5009021055370939,-0.41242890570732593,-0.19073096474712076,-0.03881896316255538,0.11249959764105122,0.04919231145117115,5.0
0.48713007470856196,-0.4075586365565546,-0.18102607931712558,-0.027900762125277735,0.07736074625082338,0.06413023428801734,5.0
0.48713007470856196,-0.3929479143561162,-0.19720090724269065,-0.03772714538924623,0.0642581264687326,0.09400608352019355,5.0
0.48713007470856196,-0.4026883674057833,-0.19073096474712076,-0.04536988644825752,0.07676517576112374,0.07906815925995382,5.0
0.4963114285942509,-0.39781818350688747,-0.22955053478046114,-0.025717119920320518,0.06961828993232352,0.05012593234017077,5.0
0.48253939776571964,-0.4026883674057833,-0.2230806205982508,-0.016982557758830626,0.09939697422692365,0.07346643748443973,5.0
0.4917207516514042,-0.4319099823104115,-0.20690579267268572,-0.005518446170313664,0.05949353531085966,0.059462132689806144,5.0
0.48713007470856196,-0.4270397131596402,-0.19720090724269065,-0.003334803965356467,0.05175107717634143,0.06599747606601664,5.0
0.47794872082287665,-0.41242890570732593,-0.19073096474712076,0.02068524697249496,0.05889796300514162,0.0809353996145596,5.0
0.48713007470856196,-0.4221694440088689,-0.19720090724269065,0.021777068074973566,0.057111240639932385,0.0809353996145596,5.0
0.48713007470856196,-0.4221694440088689,-0.19720090724269065,0.01522614146010195,0.04341304582809597,0.07066557624083432,5.0
0.4641766899943472,-0.4026883674057833,-0.20690579267268572,0.025052524724070442,0.04341304582809597,0.05386041304938233,5.0
0.48253939776571964,-0.4172991748580976,-0.21337570685489599,-0.00169707231163856,0.049368782505414155,0.06786471642062242,5.0
0.48253939776571964,-0.4172991748580976,-0.21337570685489599,0.00539975819613342,0.021972391065722952,0.09120522263243651,5.0
0.47794872082287665,-0.3880776452053449,-0.21661067810268092,0.021777068074973566,0.00767862122414094,0.09960780529570762,5.0
0.5009021055370939,-0.3929479143561162,-0.20043585017711577,-0.003334803965356467,0.0023184577605499753,0.08747074165633867,5.0
0.5009021055370939,-0.3929479143561162,-0.20043585017711577,-0.013707097780564274,0.011252064138541037,0.07440005837343938,5.0
0.5100834594227792,-0.4026883674057833,-0.24572536270602627,-0.03554350318428902,0.02018567051653209,0.09307246334289065,5.0
0.5009021055370939,-0.3929479143561162,-0.21984564935046588,-0.03390577153057111,0.0035096060040228053,0.08466988085754372,5.0
0.48713007470856196,-0.3929479143561162,-0.18102607931712558,-0.03390577153057111,-0.001850557459568146,0.10427590689391882,5.0
0.48713007470856196,-0.3832073760545736,-0.20043585017711577,-0.04973716919358721,0.0029140318822864003,0.07626729872804516,5.0
0.48713007470856196,-0.3880776452053449,-0.20043585017711577,-0.06338492298706136,0.017207801723868408,0.08280264032501375,5.0
0.5009021055370939,-0.3832073760545736,-0.19720090724269065,-0.05683400136594394,0.02018567051653209,0.07346643748443973,5.0
0.4917207516514042,-0.3929479143561162,-0.20690579267268572,-0.05792582080383781,0.045199766377286836,0.06132937446780544,5.0
0.48713007470856196,-0.3929479143561162,-0.20690579267268572,-0.07648676747773477,0.04281747170635956,0.06786471642062242,5.0
0.47794872082287665,-0.39781818350688747,-0.1777911080693406,-0.06829811482711871,-0.010784162021540826,0.08000177943725671,5.0
0.4963114285942509,-0.41242890570732593,-0.20690579267268572,-0.0644767432572476,-0.016739899606868197,0.08186902014771087,5.0
0.505492782479937,-0.4172991748580976,-0.23278550602824605,-0.08358360006623768,0.060684683554332486,0.059462132689806144,5.0
0.5009021055370939,-0.4026883674057833,-0.20690579267268572,-0.09068043223859439,0.05949353531085966,0.0529267921603827,5.0
0.5009021055370939,-0.3832073760545736,-0.20367082142490073,-0.10214454715628082,0.0273325554373231,0.05759489375859389,5.0
0.46876736693719134,-0.3832073760545736,-0.21014076392047087,-0.09122634278983371,0.023759112522923002,0.07440005837343938,5.0
0.4963114285942509,-0.3880776452053449,-0.21014076392047087,-0.08904270224946124,0.04996435662715057,0.05012593234017077,5.0
0.5192648133084645,-0.4221694440088689,-0.2230806205982508,-0.0945018044326848,0.09344124027363301,0.05666127286959424,5.0
0.4963114285942509,-0.4172991748580976,-0.21984564935046588,-0.10214454715628082,0.11666861649320609,0.023984561682115848,5.0
0.48713007470856196,-0.4026883674057833,-0.20690579267268572,-0.10869546711281348,0.10713943054542349,0.0361216275455372,5.0
0.48253939776571964,-0.3832073760545736,-0.21984564935046588,-0.0945018044326848,0.08927222142147812,0.033320764878538245,5.0
0.47794872082287665,-0.3880776452053449,-0.21661067810268092,-0.09340998333020618,0.07557402751765091,0.027719045238114443,5.0
0.4917207516514042,-0.3880776452053449,-0.21337570685489599,-0.07867040843425342,0.08748550268830564,0.03518800665653755,5.0
0.4917207516514042,-0.37346683775303063,-0.19720090724269065,-0.05355853972309286,0.12500664693344235,0.059462132689806144,5.0
0.4963114285942509,-0.4026883674057833,-0.19396593599490575,-0.03335986430850129,0.12977123264326013,0.07346643748443973,5.0
0.47335804388003433,-0.4075586365565546,-0.23925542021045615,-0.048099437539869304,0.11071287527584198,0.06879833588622854,5.0
0.47794872082287665,-0.4026883674057833,-0.20367082142490073,-0.06338492298706136,0.08808107317800533,0.08373626050231664,5.0
0.47794872082287665,-0.3929479143561162,-0.20043585017711577,-0.08085404897462589,0.040435177035432285,0.09213884316558776,5.0
0.48253939776571964,-0.3588560729266545,-0.19720090724269065,-0.08795088114698263,0.010060917711086597,0.12014745061976467,5.0
0.48713007470856196,-0.37346683775303063,-0.20690579267268572,-0.08685906170908875,-0.015548751363395393,0.1257491731069755,5.0
0.47794872082287665,-0.3588560729266545,-0.1842610505649105,-0.08795088114698263,-0.052474325118832425,0.16496122482387734,5.0
0.46876736693719134,-0.3929479143561162,-0.1777911080693406,-0.08631315115784945,-0.06319465204601434,0.1584258842944539,5.0
0.47335804388003433,-0.3832073760545736,-0.20690579267268572,-0.09504771331933934,-0.10369366326779636,0.15375777984945568,5.0
0.48253939776571964,-0.3880776452053449,-0.20690579267268572,-0.09231816222772757,-0.10845825624168765,0.17429742802029974,5.0
0.4963114285942509,-0.3929479143561162,-0.18102607931712558,-0.1097872882152921,-0.10428924465360627,0.1733638071313001,5.0
0.5009021055370939,-0.4026883674057833,-0.1842610505649105,-0.09832317496219042,-0.07927513880475047,0.18176638943872284,5.0
0.505492782479937,-0.4026883674057833,-0.20043585017711577,-0.09231816222772757,-0.07748842370361474,0.15655864251645463,5.0
0.505492782479937,-0.4026883674057833,-0.19720090724269065,-0.08412951061747698,-0.07272383072972342,0.1416207196796084,5.0
0.5146741363656223,-0.3929479143561162,-0.21337570685489599,-0.07812449788301412,-0.016739899606868197,0.13135089559418636,5.0
0.5009021055370939,-0.3929479143561162,-0.19073096474712076,-0.08194586924481213,0.01482550705294114,0.12481555221797588,5.0
0.4963114285942509,-0.3929479143561162,-0.16808622263934558,-0.08249177979605143,-0.03282039362967783,0.13601899434561052,5.0
0.5100834594227792,-0.3929479143561162,-0.1874959934993356,-0.07867040843425342,-0.020908918459023085,0.08747074165633867,5.0
0.5192648133084645,-0.39781818350688747,-0.22955053478046114,-0.08412951061747698,0.026141407193850275,0.07906815925995382,5.0
0.505492782479937,-0.3929479143561162,-0.21661067810268092,-0.1256186842137235,0.05651566833421435,0.07626729872804516,5.0
0.505492782479937,-0.3929479143561162,-0.21661067810268092,-0.10705773878826506,0.06664042113965986,0.05572765198059458,5.0
0.5009021055370939,-0.39781818350688747,-0.21337570685489599,-0.08685906170908875,0.07974304273776904,0.030519907905113372,5.0
0.48253939776571964,-0.3832073760545736,-0.20690579267268572,-0.08030813925567896,0.08748550268830564,0.05386041304938233,5.0
0.48713007470856196,-0.3929479143561162,-0.21661067810268092,-0.07539494720754852,0.10594828956602416,0.06786471642062242,5.0
0.47794872082287665,-0.39781818350688747,-0.20690579267268572,-0.07484903707245541,0.1172641906149425,0.06973195677522818,5.0
0.48253939776571964,-0.41242890570732593,-0.21984564935046588,-0.06120128244668889,0.12619779517691515,0.05199317127138303,5.0
0.46876736693719134,-0.4075586365565546,-0.20690579267268572,-0.05792582080383781,0.10177927071386929,0.0631966148224112,5.0
0.46876736693719134,-0.41242890570732593,-0.20043585017711577,-0.05847173135507711,0.03567058718282257,0.08933798227783073,5.0
0.46876736693719134,-0.41242890570732593,-0.20043585017711577,-0.05465036082557146,0.010656490016804614,0.10801038760313036,5.0
0.4641766899943472,-0.41242890570732593,-0.2230806205982508,-0.04700761810197545,0.007083048918422898,0.10240866653931306,5.0
0.47794872082287665,-0.4172991748580976,-0.23278550602824605,-0.03881896316255538,-0.020908918459023085,0.1378862361236098,5.0
0.47794872082287665,-0.4270397131596402,-0.21661067810268092,-0.055742180263465335,-0.0244823595574048,0.11828021168855243,5.0
0.46876736693719134,-0.4026883674057833,-0.22955053478046114,-0.03663532428676763,-0.06140792968080512,0.14908968109803153,5.0
0.47335804388003433,-0.4026883674057833,-0.236020477276031,-0.02407938826660261,-0.08463530590037817,0.14068709879060876,5.0
0.47335804388003433,-0.3880776452053449,-0.2586652193838062,-0.011523455575607076,-0.0810618611699597,0.12294831043997659,5.0
0.4963114285942509,-0.4221694440088689,-0.2230806205982508,-0.008247992268171238,-0.06974596012104138,0.1332181345253986,5.0
0.505492782479937,-0.4172991748580976,-0.21661067810268092,-0.019712107185857662,-0.062003503802541514,0.1453551975420329,5.0
0.5009021055370939,-0.4172991748580976,-0.22955053478046114,-0.014253008331803577,-0.043540720556859744,0.11547934902155348,5.0
0.5009021055370939,-0.41242890570732593,-0.23925542021045615,-0.031722132654783367,-0.02805580065578653,0.11267848920134156,5.0
0.4917207516514042,-0.3929479143561162,-0.236020477276031,-0.04209442646999118,0.00172288363881357,0.07066557624083432,5.0
0.5100834594227792,-0.3880776452053449,-0.21984564935046588,-0.05792582080383781,0.021972391065722952,0.06879833588622854,5.0
0.5100834594227792,-0.3929479143561162,-0.21984564935046588,-0.055196269712226034,0.05294222541981425,0.06506385517701699,5.0
0.5009021055370939,-0.3929479143561162,-0.21984564935046588,-0.06065537189544959,0.07140501229753277,0.07440005837343938,5.0
0.4963114285942509,-0.41242890570732593,-0.23925542021045615,-0.07211948608488018,0.08152976510297828,0.05852851464759353,5.0
0.48253939776571964,-0.3929479143561162,-0.2489603339538112,-0.08467542033642392,0.08688992856656926,0.0529267921603827,5.0
0.4917207516514042,-0.3929479143561162,-0.21337570685489599,-0.1015986366050415,0.09105894378668736,0.05666127286959424,5.0
0.48253939776571964,-0.3832073760545736,-0.21337570685489599,-0.08631315115784945,0.08450763207962358,0.0529267921603827,5.0
0.47794872082287665,-0.3929479143561162,-0.2230806205982508,-0.08795088114698263,0.09582353312854193,0.03425438576753791,5.0
0.46876736693719134,-0.3880776452053449,-0.2586652193838062,-0.09613953442181795,0.08629435444483283,0.06599747606601664,5.0
0.45499533610866116,-0.39781818350688747,-0.22631556353267598,-0.12070549258173922,0.08688992856656926,0.0454578307419596,5.0
0.47335804388003433,-0.4026883674057833,-0.236020477276031,-0.10814955989074368,0.07140501229753277,0.09400608352019355,5.0
0.5009021055370939,-0.3929479143561162,-0.21984564935046588,-0.09504771331933934,0.0684271416888507,0.09493970369749644,5.0
0.5009021055370939,-0.3929479143561162,-0.21984564935046588,-0.08303768951499838,0.07140501229753277,0.09213884316558776,5.0
0.48253939776571964,-0.4026883674057833,-0.22631556353267598,-0.08030813925567896,0.04103075070316411,0.11174486831234191,5.0
0.48253939776571964,-0.4026883674057833,-0.22631556353267598,-0.08412951061747698,0.023163539309195777,0.1014750456503134,5.0
0.47794872082287665,-0.39781818350688747,-0.21661067810268092,-0.10269045770752011,-0.01018858789980443,0.10987762795773615,5.0
0.47794872082287665,-0.39781818350688747,-0.21337570685489599,-0.1196136714792606,-0.031629245386205,0.12294831043997659,5.0
0.47794872082287665,-0.39781818350688747,-0.21337570685489599,-0.10214454715628082,-0.03996727582644129,0.12201469239776395,5.0
0.5009021055370939,-0.3880776452053449,-0.22631556353267598,-0.1015986366050415,0.01959009639479568,0.11081124742334227,5.0
0.48713007470856196,-0.4026883674057833,-0.23925542021045615,-0.08249177979605143,0.01601665348039558,0.10801038760313036,5.0
0.47794872082287665,-0.3832073760545736,-0.21661067810268092,-0.08740497059574333,0.008869769467613767,0.12388193132897622,5.0
0.48253939776571964,-0.39781818350688747,-0.22955053478046114,-0.10542000713454716,0.004700754247495629,0.11734659079955279,5.0
0.5009021055370939,-0.3832073760545736,-0.21984564935046588,-0.09559362387057865,0.014229932931204715,0.07253281801883361,5.0
0.5009021055370939,-0.3880776452053449,-0.21984564935046588,-0.08631315115784945,0.05353779954155066,0.07533367783904552,5.0
0.5284461671941499,-0.378337106903802,-0.20367082142490073,-0.07211948608488018,0.08152976510297828,0.08000177943725671,5.0
0.505492782479937,-0.378337106903802,-0.2230806205982508,-0.07539494720754852,0.07736074625082338,0.08466988085754372,5.0
0.4917207516514042,-0.378337106903802,-0.21984564935046588,-0.06829811482711871,0.08510320620135998,0.06039575357880579,5.0
0.48713007470856196,-0.36859661122819704,-0.21014076392047087,-0.08303768951499838,0.06783156756711431,0.08373626050231664,5.0
0.48253939776571964,-0.37346683775303063,-0.23278550602824605,-0.08194586924481213,0.06902271581058712,0.06879833588622854,5.0
0.48713007470856196,-0.3929479143561162,-0.22955053478046114,-0.07703267761282788,0.06604484701792343,0.07253281801883361,5.0
0.48253939776571964,-0.39781818350688747,-0.22955053478046114,-0.08194586924481213,0.06902271581058712,0.06879833588622854,5.0
0.48713007470856196,-0.4026883674057833,-0.22955053478046114,-0.08085404897462589,0.060684683554332486,0.09400608352019355,5.0
0.48253939776571964,-0.4026883674057833,-0.2230806205982508,-0.056288090814704636,0.06664042113965986,0.1014750456503134,5.0
0.5009021055370939,-0.39781818350688747,-0.22955053478046114,-0.04755352698862999,0.07616960163938734,0.08186902014771087,5.0
0.5009021055370939,-0.4026883674057833,-0.21661067810268092,-0.06010946217650265,0.09046336966495096,0.08280264032501375,5.0
0.4963114285942509,-0.3832073760545736,-0.20690579267268572,-0.05683400136594394,0.02971485010825037,0.08466988085754372,5.0
0.48253939776571964,-0.3929479143561162,-0.21337570685489599,-0.05355853972309286,0.02792812865105032,0.10520952635952496,5.0
0.47335804388003433,-0.378337106903802,-0.236020477276031,-0.048099437539869304,0.03924402947296635,0.11828021168855243,5.0
0.4917207516514042,-0.4026883674057833,-0.23925542021045615,-0.05465036082557146,0.04698648783448688,0.09307246334289065,5.0
0.48713007470856196,-0.4172991748580976,-0.22631556353267598,-0.04919125864234791,0.03983960336770047,0.08747074165633867,5.0
0.48253939776571964,-0.41242890570732593,-0.21337570685489599,-0.039910784265033965,0.028523702772786735,0.11081124742334227,5.0
0.4963114285942509,-0.3929479143561162,-0.2230806205982508,-0.03554350318428902,0.0475820619562233,0.07533367783904552,5.0
0.505492782479937,-0.37346683775303063,-0.22631556353267598,-0.04536988644825752,0.04103075070316411,0.07346643748443973,5.0
0.5009021055370939,-0.378337106903802,-0.22955053478046114,-0.03881896316255538,0.0207812446382685,0.08373626050231664,5.0
0.5009021055370939,-0.4172991748580976,-0.23278550602824605,-0.03008440100106546,0.04222189803862774,0.08373626050231664,5.0
0.5009021055370939,-0.4026883674057833,-0.236020477276031,-0.021349838839575568,0.07378730515244167,0.07159919712983397,5.0
0.4963114285942509,-0.39781818350688747,-0.21984564935046588,-0.014253008331803577,0.10177927071386929,0.08840436192260365,5.0
0.47794872082287665,-0.3832073760545736,-0.19073096474712076,-0.010431634473128459,0.06306697822525975,0.09027160245513362,5.0
0.47794872082287665,-0.3880776452053449,-0.20367082142490073,-0.018074378861309224,0.05949353531085966,0.0631966148224112,5.0
0.48713007470856196,-0.3880776452053449,-0.21337570685489599,-0.021895749390814866,0.05949353531085966,0.09120522263243651,5.0
0.5009021055370939,-0.3832073760545736,-0.21984564935046588,-0.014798918883042878,0.08510320620135998,0.08186902014771087,5.0
0.505492782479937,-0.3832073760545736,-0.2230806205982508,-0.014253008331803577,0.0976102518617144,0.0510595503823834,5.0
0.48253939776571964,-0.378337106903802,-0.23278550602824605,-0.012069366126846367,0.11190402351931479,0.06879833588622854,5.0
0.48253939776571964,-0.378337106903802,-0.21337570685489599,-0.007702081716931947,0.08688992856656926,0.06413023428801734,5.0
0.4917207516514042,-0.37346683775303063,-0.20043585017711577,-0.01643664720759131,0.06664042113965986,0.07720091890534805,5.0
0.48713007470856196,-0.37346683775303063,-0.21014076392047087,-0.021895749390814866,0.07914746861603264,0.07253281801883361,5.0
0.4917207516514042,-0.3880776452053449,-0.19073096474712076,-0.03499759263304972,0.08510320620135998,0.05479403109159494,5.0
0.48713007470856196,-0.3929479143561162,-0.1842610505649105,-0.017528468310069916,0.08212533922471467,0.07533367783904552,5.0
0.48253939776571964,-0.3832073760545736,-0.20367082142490073,-0.014798918883042878,0.06128025767606889,0.0809353996145596,5.0
0.4917207516514042,-0.3832073760545736,-0.19396593599490575,-0.013161187229324972,0.06664042113965986,0.09027160245513362,5.0
0.48713007470856196,-0.3880776452053449,-0.21337570685489599,-0.015344826105112718,0.07616960163938734,0.0856035011238087,5.0
0.48713007470856196,-0.3880776452053449,-0.21337570685489599,-0.020258017737096963,0.0511555039626142,0.11641296991055311,5.0
0.48253939776571964,-0.36859661122819704,-0.21984564935046588,-5.934065792065279e-05,0.0541333718472687,0.11454572813255383,5.0
0.48713007470856196,-0.36859661122819704,-0.21337570685489599,-0.008247992268171238,0.10713943054542349,0.11081124742334227,5.0
0.48713007470856196,-0.36859661122819704,-0.21337570685489599,-0.020258017737096963,0.0642581264687326,0.13415175541439828,5.0
0.48713007470856196,-0.36859661122819704,-0.19073096474712076,-0.02407938826660261,-0.02865137477752293,0.13695261523461016,5.0
0.47794872082287665,-0.3832073760545736,-0.19073096474712076,-0.03390577153057111,-0.02031334433728669,0.11734659079955279,5.0
0.4963114285942509,-0.3637263420774257,-0.21661067810268092,-0.042640337021230476,0.07974304273776904,0.10334228600491917,5.0
0.4963114285942509,-0.3588560729266545,-0.20367082142490073,-0.04100260536751258,0.0684271416888507,0.09587332387479933,5.0
0.48713007470856196,-0.35398580377588285,-0.19720090724269065,-0.04373215645912436,0.03507501345834018,0.10987762795773615,5.0
0.47335804388003433,-0.378337106903802,-0.21014076392047087,-0.05137489918272039,0.03567058718282257,0.11454572813255383,5.0
0.4963114285942509,-0.3880776452053449,-0.20690579267268572,-0.05246671862061426,0.03567058718282257,0.11267848920134156,5.0
0.4963114285942509,-0.37346683775303063,-0.19720090724269065,-0.055742180263465335,0.06306697822525975,0.0856035011238087,5.0
0.5009021055370939,-0.4026883674057833,-0.19073096474712076,-0.04318624590788505,0.08927222142147812,0.05852851464759353,5.0
0.5009021055370939,-0.41242890570732593,-0.19720090724269065,-0.04318624590788505,0.09999254834866003,0.0809353996145596,5.0
0.47794872082287665,-0.41242890570732593,-0.20690579267268572,-0.04919125864234791,0.08033861685950544,0.1014750456503134,5.0
0.46876736693719134,-0.39781818350688747,-0.19396593599490575,-0.048645348091108605,0.05472894596900511,0.10707676671413072,5.0
0.48713007470856196,-0.3832073760545736,-0.21661067810268092,-0.04154851591875189,0.064853700590469,0.08933798227783073,5.0
0.47794872082287665,-0.4075586365565546,-0.19073096474712076,-0.05901764190631641,0.050559930748886976,0.11081124742334227,5.0
0.47794872082287665,-0.3880776452053449,-0.1874959934993356,-0.05792582080383781,0.03686173463178736,0.13415175541439828,5.0
0.48713007470856196,-0.3832073760545736,-0.16808622263934558,-0.07266539632400984,0.03209714477917765,0.13881985701260946,5.0
0.48713007470856196,-0.3929479143561162,-0.19396593599490575,-0.09122634278983371,0.031501571111445824,0.13041727470518674,5.0
0.47794872082287665,-0.35398580377588285,-0.17455613682155563,-0.10596591768578645,0.017207801723868408,0.13228451363639898,5.0
0.48713007470856196,-0.34911557725104925,-0.21984564935046588,-0.10105272605380221,0.01363435880946831,0.16122674126787878,5.0
0.47794872082287665,-0.37346683775303063,-0.20367082142490073,-0.10814955989074368,0.010656490016804614,0.1584258842944539,5.0
0.5146741363656223,-0.3929479143561162,-0.20367082142490073,-0.11470047984727637,0.014229932931204715,0.13881985701260946,5.0
0.5009021055370939,-0.378337106903802,-0.19073096474712076,-0.13380733915314355,0.014229932931204715,0.13135089559418636,5.0
