acc_x,acc_y,acc_z,gyro_x,gyro_y,gyro_z,activity
-1.5958241069864818,-0.04941503507289349,5.168267296940169,-0.47737056933203253,0.20981295203063233,-0.100408067708543,0.0
-1.5881989901073272,-0.05249566294388327,4.961016600402196,-0.5505729751017938,0.37775306738913994,0.11634434122744337,0.0
-1.5157605132296061,-0.15415639279750704,5.418695347890255,-0.375285577066356,2.0802360427459172,0.19343201388029435,0.0
-1.5157605132296061,-0.15415639279750704,5.418695347890255,-0.375285577066356,2.0802360427459172,0.19343201388029435,0.0
-1.5157605132296061,-0.15415639279750704,5.418695347890255,-0.375285577066356,2.0802360427459172,0.19343201388029435,0.0
-1.5157605132296061,-0.15415639279750704,5.418695347890255,-0.6730749463847947,2.8140786133610804,-0.025134221183512835,0.0
-1.92370343205033,-0.1110275975481696,5.487779114949635,-1.329406676603422,2.4654635014075588,-0.7207371177791169,0.0
-1.858890072051763,-0.15415639279750704,5.427330818772677,-1.445434968057306,2.6341996099434457,-1.4988692926173197,0.0
-1.7864515951740418,-0.24349460779685128,5.0646416463511,-1.174536306174836,1.9839290615880179,-0.7016919254621969,0.0
-1.8970155563418503,-0.15415639279750704,4.822849066283438,-1.086394613097367,-3.319317100552699,-0.7996385972023106,0.0
-2.1600815380914127,-0.17880141576542524,4.926474716872507,-1.306001781817124,-4.462264983609414,-1.2494678972356892,0.0
-2.1562689963361166,-0.09870508606421048,5.4791436440672125,-1.2806050079708788,-1.4377512314481562,-2.8329394369585637,0.0
-1.8703277140019332,-0.21576895021730255,5.522320998479321,-1.5216251924169872,1.3495771341936365,-3.0451572183545323,0.0
-1.5576985893278323,-0.2927846537326877,5.332341243706195,-1.0694633981401858,3.1022033695032487,-1.9822542391303593,0.0
-1.5576985893278323,-0.3852034898623809,5.125089942528057,-0.7866133647189817,3.7254124020158867,-1.1406382521365266,0.0
-1.656824908545471,-0.37288097837842193,5.185538238705014,-0.5739778212985652,2.343687068423285,-1.33018322767489,0.0
-1.7673888363447172,-0.40984851283029927,5.332341243706195,-0.27469451839040326,2.0189498102496755,-1.797243824763517,0.0
-1.8055143540033665,-0.3605584668944628,5.271892947529238,-0.21941924281303318,1.264413203240802,-1.8589139628857978,0.0
-1.6148868324472445,-0.3297522016658465,5.030100367461577,0.08334986059741731,-0.3942938751197329,-1.1696595144273243,0.0
-1.2145690638742375,-0.2342527174432412,4.891932833342818,0.6032363081974546,0.5082847263696579,0.04923271366028396,0.0
-1.2221941807533923,-0.209607694475323,4.9437456586373525,0.6540298073004179,1.4013122251779135,0.4564370153465754,0.0
-1.4433221030890089,-0.206527073344974,5.228715593117127,0.13663324496745904,0.6825922435155889,0.5026896189382857,0.0
-1.6148868324472445,-0.25889774041115937,5.418695347890255,-0.07500634677560251,0.4286922428576965,0.31677230118627225,0.0
-1.5958241069864818,-0.33591344392654465,5.384153464360563,0.043511823871669,-0.15551648283009317,0.4437402352171833,0.0
-1.5081354630875758,-0.3605584668944628,5.366882522595717,0.3119206187081331,-0.4054368476631385,0.5444076613584755,0.0
-1.4890726708896886,-0.3574778322828323,5.315070301941351,0.4523496958887618,-0.5646217758562315,0.7239766111686256,0.0
-1.6377621163475844,-0.31742969018188755,5.315070301941351,0.23622833981867508,-0.644214259368193,0.8373408174393092,0.0
-1.809326912442944,-0.28354277686035917,5.315070301941351,0.014629243449444716,-0.8630935501952569,0.39113921943794466,0.0
-1.8207645543931141,-0.29586528834431824,5.375517993478141,0.16949963817279443,-0.36723243693859875,-0.021506563397163104,0.0
-1.7368884355652228,-0.34207471314980564,5.453237231419941,0.37267361028988355,0.3061198555268724,-0.03148261677891677,0.0
-1.5958241069864818,-0.35439722463376483,5.548227411126592,0.23423643646396505,1.1712899618074442,0.1453655813954089,0.0
-1.5996366654260594,-0.31126842095862634,5.496414585832056,0.06741464590711799,1.4936395122647215,0.4718545498771456,0.0
-1.7368884355652228,-0.28662339799070813,5.271892947529238,-0.10189702384311668,0.4326718592671287,0.9298460246227304,0.0
-1.858890072051763,-0.2927846537326877,5.056006175468676,0.10824864038391219,-1.1520141830223178,1.0277927406085083,0.0
-1.9656414747799942,-0.2927846537326877,5.107819000763211,0.3796452841787507,-0.7198270488090627,0.8055988892386619,0.0
-1.8779528308810876,-0.2619783750227899,5.133725413410478,0.6112039216162951,-0.20008825651122647,0.3494211991405875,0.0
-1.8283896712722687,-0.25889774041115937,5.090548058998367,0.6341107737533165,-0.16665941654266908,0.04651197308587568,0.0
-1.8855779143916804,-0.2712202518951185,5.125089942528057,0.7620904367459344,0.6252856662596088,0.41290516615604295,0.0
-1.9656414747799942,-0.25889774041115937,5.107819000763211,0.42496104298257026,0.04664839620357039,0.6450750874997674,0.0
-2.1295811373119182,-0.2219302059592821,5.125089942528057,-0.11285248622033153,-1.775223293196612,0.32946908131566394,0.0
-2.171519196725864,-0.206527073344974,5.004193954814309,-0.7542449169838695,-4.880921282239613,0.39113921943794466,0.0
-1.843639871662016,-0.17880141576542524,4.969652071284621,-0.9504472395068552,-4.941411638050962,-0.3008360276673717,0.0
-1.5920115485469046,-0.20036581760299443,4.840120008048283,-0.5112329020673413,-2.532147530260158,-0.1738680936364604,0.0
-1.435696986209854,-0.15415639279750704,4.745130432981803,-0.29560949146747784,-0.5781524949467987,0.40837060498452205,0.0
-1.2336317893349997,-0.08946320118737101,4.5724210153333535,-0.5017713550587773,-1.0143192067386562,1.468552918298845,0.0
-1.1916937132367733,-0.003205613637726476,4.416983144089917,-0.8687793234375567,0.14534305747150866,3.5544545968516803,0.0
-1.2069439469950827,-0.006286241508716263,4.7624013747466485,-0.9006497771129188,3.1762242502510207,5.020934316763185,0.0
-1.3975714685512048,-0.01244749725069579,4.727859491216958,-1.40161314284321,4.281763754591404,6.9118499534319415,0.0
-1.5157605132296061,-0.07097943269756223,4.701953078569692,-1.9937059716513632,5.153301223828568,7.863202533155773,0.0
-1.6682625171270786,-0.4468160472821765,4.5724210153333535,-1.9971917843010332,8.521654517187367,9.157368397601505,0.0
-2.190581938870907,-0.7025082077588134,3.795230449835835,-2.4438758868682178,11.453045416223564,11.658636693585894,0.0
-2.4574604707179066,-0.6070086965736449,3.518895986238483,-3.5140250349115347,8.867881999086215,11.375679651724601,0.0
-2.5908997408124765,-0.7887657611839639,3.7088757410116098,-4.708668519193065,3.13961174821958,9.979032333138912,0.0
-2.529898922569206,-1.0629417023678212,3.890220327222398,-5.025380885349578,1.4570270102332825,9.180948151089947,0.0
-3.364847485671416,-1.6544222535978577,4.494701777391551,-2.8855801460169563,-1.366117980755059,6.18722560926682,0.0
-3.364847485671416,-1.6544222535978577,4.494701777391551,-0.1596621786138744,-11.113012228659237,5.247662906287209,0.0
-2.6900260433458336,-1.1707636980743854,5.910915978907996,2.344656570946159,-13.589133084447246,2.2566609418826036,0.0
-2.7129013606147354,-1.4757458775242953,6.066354454791607,1.224211723501523,-5.551885711665433,-1.6303716550827587,0.0
-2.23633254838229,-1.562003430949446,6.722649032575377,0.39607850507618175,-10.061595134711165,-4.093549743415966,0.0
-2.23633254838229,-1.562003430949446,6.722649032575377,-0.5660102078797247,-15.921988681435609,-7.711228893543269,0.0
-1.3785087430904426,-1.3956494854721533,6.420408156330759,-2.416985082253197,-17.075284203982456,-9.870590763945263,0.0
-0.9858160913965902,-1.334036901089795,5.867739229136053,-1.7970056550686273,-14.202791907387828,-9.499663430037387,0.0
-0.7685006607634266,-1.5281165580717624,4.883297362460396,0.4533456840082619,-10.368026297192372,-7.308559365960758,0.0
-0.46730921140805814,-1.3771657856526227,3.7002402701291874,1.022531660679394,-10.48184287606451,-4.903423802209149,0.0
-0.12799217765691592,-1.0598610677561904,3.156206813816907,0.3647060454605698,-11.7457720920372,-2.744968790946663,0.0
-0.21186832985336945,-1.0290547216398847,3.164842284699329,0.022596850794594375,-14.121607515182767,-2.2797220891197076,0.0
0.032134876382587184,-0.8226526879867736,2.551725363647753,-0.5361316818538362,-17.713614582861382,-3.910353224310793,0.0
0.26470040729981176,-0.5607992852494389,1.4032100036861936,-1.055520147541505,-21.700402580563377,-6.008044779607848,0.0
0.1579490379401429,-0.4622191933777662,0.8073637220793787,0.46430111601702256,-18.465764647078814,-7.877194027101862,0.0
-0.4291836270122844,-0.4437354396331091,1.0318855115422372,0.9742280346961275,-11.684485238247683,-7.635048478240906,0.0
-0.21949344673252397,-0.43449353579821737,-0.3066096031924494,0.5384994613167572,-13.133069028393994,-6.7353897011914885,0.0
0.3142636670143173,-0.4067679051812318,-0.31524503628486134,0.6614994266595081,-10.559843761530008,-3.592933411356347,0.0
0.2837631994976989,-0.3451553207988731,-0.23752594950310094,0.47326466896583663,-8.691808728008521,0.4600646731329249,0.0
0.07026046077836094,-0.2712202518951185,-0.23752594950310094,-0.5371276213838095,-12.000467542240855,1.7061643484449265,0.0
-0.2995569070151514,0.0368425486851406,-0.8592785540059086,-2.0156169328479376,-8.438705031174644,1.1030665622453526,0.0
0.03594743482216474,0.12001950794250532,-1.4723956781787912,-2.6744384390072087,-2.2129818748507404,-0.7624551601993064,0.0
-0.06317881765834929,-0.0001249857667366892,-2.068241884205585,-2.308426555926983,-4.649307187837704,-0.0042752013560950555,0.0
0.024509759503432673,-0.13259199433025823,-2.1200545583400783,-1.1989370919015807,-9.19244560617531,0.740301049084367,0.0
0.26470040729981176,-0.12643073858827863,-1.9559810650541771,-0.1930265415841965,-7.856087884117904,2.8198544481866663,0.0
0.8022700794862309,-0.006286241508716263,-2.3100346154332887,-0.5520668601019905,-6.019889781871877,3.8147390983293534,0.0
0.8861460982084365,-0.030931267846954835,-2.776348984963809,-1.0490464677123883,-3.394930045316887,4.245523029063153,0.0
0.7565193782113032,0.00911689784623264,-3.0785898612084277,-2.3412929005427903,-3.690218002269712,4.49855194949414,0.0
0.09313581141582508,-0.03401189571794461,-3.8298743163787634,-2.586794788579016,-7.724760154298347,4.733442625239042,0.0
0.06644790233878368,-0.1110275975481696,-4.348001360043776,-2.124673599002481,-6.654241398619619,4.721652748494822,0.0
0.1922620638963394,-0.018608752992675365,-4.373907772691044,-1.6764955628455736,-1.700406380440633,5.338354129717631,0.0
0.09313581141582508,-0.2558171192808104,-4.296188534749241,-0.9967589864301747,2.685138824242834,3.641518383724074,0.0
-0.03267835014173064,-0.2927846537326877,-4.399814185338311,0.08633771562948249,3.4691245771491714,1.2608696095830685,0.0
0.05882278545962887,-0.24349460779685128,-5.038837519037155,0.8880783178576589,2.2879722833679166,-0.5765378424472929,0.0
0.07026046077836094,-0.4190904166651907,-4.6070648818762825,1.2421388293991507,1.2572498471068285,-1.203215337889643,0.0
0.10076092829497989,-0.4375741704098478,-4.840222293381606,0.7267342190104289,-1.8237745667946885,-1.0426915361507487,0.0
0.013072084184700605,-0.548476800728043,-4.0975733090936926,1.1037016312784689,3.4842471661020102,0.7094659800232267,0.0
-0.03267835014173064,-0.6593793771211118,-3.7176134972273553,0.5375035217867837,3.854352191134132,2.536897406325375,0.0
-0.3109945823338835,-0.7487176190830193,-3.57944626542868,0.7944589330705731,4.134517559134118,2.0997649306670523,0.0
-0.16993032049226695,-0.9458778028263649,-3.1044962738556943,1.217738043672406,5.729550736112911,0.740301049084367,0.0
0.17319927169845223,-0.6439762579880851,-3.518997969251722,1.2570781652963852,5.329200533175113,1.7288370658112027,0.0
0.2265750898525359,-0.2989459094746673,-4.08893783821127,0.36769386405049004,2.4742187662346327,1.42230027046147,0.0
0.17319927169845223,-0.5700411890843305,-3.225392563889526,-0.08148002812314228,4.43935665759891,2.0145150390563304,0.0
-0.30336946545472865,-0.6593793771211118,-2.646817224047555,-0.7437874304453324,4.252314453370621,2.467065004999559,0.0
0.7527068197717265,-0.542315531504782,-3.4240080918651588,-1.7377466456661272,0.4867947356293967,-3.247399195250611,0.0
1.0500858441617655,-0.8904264876672671,-3.968041548177439,-0.41263374674609854,1.2413313814691,-2.4801499937714557,0.0
0.3180762254538954,-0.6224118696317976,-3.57944626542868,0.795952769481243,5.3196493916631455,-1.414526260146105,0.0
0.020697201063855114,-0.5638799198610696,-2.9663290420570196,0.695361759394817,5.413568432119737,-2.0511797813166686,0.0
-0.005990708013186275,-0.43141292814914994,-3.3462888539233564,0.7376896996087164,4.886666380765003,-2.95265209966244,0.0
0.7527068197717265,-0.43449353579821737,-3.0440481288387797,-0.9843096694212174,2.4606879306515763,-2.687833302487232,0.0
0.7717696119696122,-0.43449353579821737,-2.7331717817117385,-0.0356662813332636,2.48934135518747,-1.4625926262624938,0.0
0.49726593821703724,-0.3636391015060933,-2.3013991445508664,-0.15269052901977068,1.9759698287691532,-0.3126259044115921,0.0
-0.13180473609649318,-0.6100893311852753,-1.7832719497258112,-0.17758929665888387,2.010990577430811,0.036535921086799025,0.0
0.039759993261742,-0.6778631847908954,-1.1183421277996795,-0.004293826272919793,2.4758105196044142,-0.4794980740923505,0.0
0.4438903870114502,-0.43449353579821737,-1.7919074206082335,0.45135375635878844,1.1092078526263114,-4.4418045369402215,0.0
0.9318967994833635,-0.17264016002344568,-2.5431918757785694,0.13663324496745904,1.765845802769163,-0.9148166987346659,0.0
0.3295139007726272,-0.2927846537326877,-2.042335547138339,0.2800501893275345,2.188481795470454,1.1121357730797234,0.0
0.2913883163768534,-0.4375741704098478,-0.7383822167345648,0.09181544378124447,2.2529516900295774,0.7539047768445947,0.0
0.5010784966566145,-0.6378149887648242,-0.807465837948123,-1.1566091030981547,-0.25500706780463,-1.4961485382161412,0.0
0.2113248560942266,-0.3451553207988731,-1.161519406631771,0.34777485479815207,0.20981295203063233,2.3527938510980393,0.0
0.9013963319667443,-0.4529773165054375,-1.9473455941717548,0.6206654200353322,-0.07512808380241127,0.89901095556159,0.0
0.7031438270057162,-0.2897040326023387,-1.921439257104508,0.26311902295988016,-0.17780236967065985,1.319818993304171,0.0
0.11601089510479189,-0.31434905557025683,-1.6796465258768047,0.2745724490283909,0.5417135663382152,2.170504191132375,0.0
0.2837631994976989,-0.39752600134634003,-1.5501147649605518,0.1834429373610019,-0.019413352139433526,2.816226834645981,0.0
0.9852726176374476,-0.690185669312291,-1.9128037862220857,0.5683779873426457,0.4605292517948128,0.5226417588860416,0.0
0.9852726176374476,-0.690185669312291,-1.9128037862220857,0.02060494743988426,1.1856165964137313,0.1426448380556466,0.0
0.4477029454510275,-0.6070086965736449,-1.4896666199436361,-0.8274473227536309,3.5590639235346693,-0.40966567276653454,0.0
0.3066385501351628,-0.48378360869661685,-0.8938203666793288,0.00018795627517800205,-0.47309044311597376,0.3231206912509679,0.0
0.3066385501351628,-0.48378360869661685,-0.8938203666793288,-0.13874721161049064,-0.4388656488008661,-0.06231768860541121,0.0
0.40957736105525433,-0.6070086965736449,-1.316957542405281,-0.033176403658298666,-0.6561531085964892,-0.027854961757921078,0.0
0.45151550389060413,-0.5638799198610696,-1.541479294078129,-0.13028162842666344,0.05142394420711343,-0.11491868779252574,0.0
0.45151550389060413,-0.5638799198610696,-1.541479294078129,0.010147466975037777,-0.3027625423794751,-0.06503842641446546,0.0
0.4210150363739849,-0.5453961661164125,-1.3083220715228585,-0.013755361134102036,-0.12208764286153577,-0.21286538165547153,0.0
0.4248275948135652,-0.5238317507975616,-1.463760207296369,-0.06952861634620644,0.3069157710425929,-0.26002491075518563,0.0
0.4248275948135652,-0.5238317507975616,-1.463760207296369,-0.5485810474523201,1.8048460901785937,-0.5366336067974458,0.0
0.31045110857474,-0.5299930200208228,-1.77463655442341,-0.20647188315479906,1.0686157341854399,-0.5783516492176356,0.0
0.37145177665948087,-0.5330736546324533,-1.02335215593809,-0.11584034125239671,0.7566132019250177,-0.620069691637825,0.0
0.37145177665948087,-0.5330736546324533,-1.02335215593809,-0.13924518744916817,0.20901703651491182,-1.727411423437701,0.0
0.34095157609135895,-0.5115092393136027,-1.0838003198500106,-0.27021274191599626,0.46450886820424503,-2.003113238217622,0.0
0.49345337977746057,-0.4899448509573148,-1.3946766291870414,-0.29511152170249116,0.7876542565155841,-1.7854539480192964,0.0
0.4133899194948316,-0.5207511431484941,-1.4723956781787912,-0.5764676944182621,1.3766384947131114,-1.9913233614734014,0.0
0.3066385501351628,-0.4622191933777662,-1.386041158304619,-0.2732006090954432,1.4785169233118838,-1.9115149786650365,0.0
0.48964108828638037,-0.366719736117724,-1.1442485026569365,-0.026204747990504058,1.2381476417445585,-1.1760078823691882,0.0
0.5353915226128104,-0.30818779982827743,-1.057893963887759,-0.09741524433186431,0.7534295398621357,-0.9783006436272893,0.0
0.4629531792093383,-0.33591344392654465,-0.9283621746289977,-0.010767506102036858,0.7351232888464161,-1.3691805599395657,0.0
0.36001436828924616,-0.31126842095862634,-0.8592785540059086,-0.08944763698671465,0.3483038632454295,-1.091664938389302,0.0
0.41720247793440823,-0.27738150763709807,-0.9197267226415806,-0.1606581302912295,0.5655913036256377,-1.1351967433341699,0.0
0.4057648026156777,-0.3698003437667915,-1.0060812519632556,0.026580657504014626,0.6977148324684262,-1.591374411309412,0.0
0.3333264592122048,-0.2219302059592821,-0.6952049520737273,0.15057656845042988,0.44938627925140723,-1.633092409483937,0.0
0.1922620638963394,-0.2219302059592821,-0.6692985961114757,-0.09641929265450926,-0.5009477968128284,-0.683553680776113,0.0
0.6726433594890976,-0.26505899615313894,-1.2306030225311086,-0.5201964550161552,0.084852781748744,-1.6757174437806268,0.0
0.5773296654481602,-0.1572370206684968,-0.9715394440135866,-0.3459050208054543,0.6189182644721853,-0.8730987005601408,0.0
0.5811422238877374,-0.206527073344974,-1.0665294158751761,-0.10886867951091128,1.2978420432093594,-0.5030778275807917,0.0
0.05119766858047406,-0.21576895021730255,-0.8506431020184915,0.22328098016044098,1.5079660692093497,0.987888549204326,0.0
-0.15849264517353487,-0.1572370206684968,-0.36705774820936476,0.4304387832817138,0.9213696163898134,2.011794284655152,0.0
-0.15849264517353487,-0.1572370206684968,-0.36705774820936476,0.14659274959362784,0.4056104210859946,1.4241140772318126,0.0
0.4477029454510275,-0.18804329937839456,-0.591579518777218,0.17099354746775436,-0.11174061495697293,2.190456331080131,0.0
0.6192675413350136,-0.17880141576542524,-0.7729240270461094,0.0783701143580237,0.19707816787120058,1.9065922530966746,0.0
0.5239538472940792,-0.2989459094746673,-0.7901949327923505,0.13563729329010396,0.5114684272633696,1.745161592218273,0.0
0.4286401532531424,-0.34207471314980564,-0.6779340480988929,0.31042668511840965,1.0439420037206375,1.610938298368998,0.0
0.48201597140722646,-0.35131659002213433,-0.6779340480988929,0.3193902623619869,1.3957407777370405,1.1991994714607879,0.0
0.6116426914043567,-0.39752600134634003,-0.807465837948123,0.19589232725424924,1.4100673346816688,0.744835610255888,0.0
0.4591406207697611,-0.3821228822133135,-0.5743086148023835,-0.03168247766068878,1.6599876800992992,0.39204616706878054,0.0
0.7145815023244504,-0.41600978205356026,-0.47931864294079396,0.00466973274958493,1.402904133871014,0.07916087104019096,0.0
0.7222066192036043,-0.4283322935375194,-0.3497868442345303,-0.010269530263359326,1.0805545834137362,-0.20923772386912182,0.0
0.6612056841703664,-0.3574778322828323,-0.49658954691562845,0.009649491136360246,1.1935759068942553,-0.13215005121627085,0.0
0.4705782960884922,-0.32359093244258547,-0.20298414155343214,0.016621146804154854,0.8752059728464096,0.0156769028148929,0.0
0.5582668732502751,-0.3636391015060933,-0.3497868442345303,-0.07201849326196003,0.8370016397835294,-0.04508632518166616,0.0
0.4362652701322963,-0.366719736117724,-0.16844233360376284,-0.10936665534958881,1.0192683509174947,0.16169003037256657,0.0
0.38288945197821295,-0.4406548050214786,-0.1252650925616822,0.053969304336515485,0.7422865673187301,0.21157029175062686,0.0
0.4324527116927197,-0.3882841244740116,-0.09072328461201307,0.02110292327856178,0.7502458001375942,0.06555716540279562,0.0
0.49345337977746057,-0.35131659002213433,-0.09072328461201307,0.017617098481509892,0.6157345635784739,-0.04236558184190388,0.0
0.47820341296764673,-0.40984851283029927,-0.10799415079683757,0.06044299631301424,0.6117549471690417,-0.11763943113228804,0.0
0.49726593821703724,-0.4437354396331091,-0.11662962167925987,0.053969304336515485,0.5608157328696555,-0.14847450019342848,0.0
0.4362652701322963,-0.4067679051812318,-0.038910534897499294,0.06791262781948637,0.32124240564888046,-0.10857029772782988,0.0
0.39432712729694475,-0.3605584668944628,0.056079418069085014,0.1754753239421614,-0.3728039232103014,0.19433892832688182,0.0
0.4629531792093383,-0.35439722463376483,-0.013004197830253084,0.042515872194313936,-0.501743712328549,0.13901718026929688,0.0
0.5201412888544995,-0.3852034898623809,-0.1252650925616822,-0.014253333935934157,0.00048476388470311955,-0.10766338328124245,0.0
0.48201597140722646,-0.3451553207988731,-0.20298414155343214,0.04052396883960383,0.33318129370800653,-0.23735206065191605,0.0
0.48964108828638037,-0.3297522016658465,-0.16844233360376284,-0.08944763698671465,0.7597969416495591,0.031094438555305484,0.0
0.40957736105525433,-0.33591344392654465,0.08198575513633113,-0.012261433618069447,0.5807138537476457,0.19887350055981898,0.0
0.40957736105525433,-0.33591344392654465,0.08198575513633113,0.0016818837912105852,0.11668976884351871,-0.08136287539162308,0.0
0.3905145688573678,-0.3944453936972726,0.10789216778359888,-0.07799420028924499,-0.06239328993527214,-0.22737601280087044,0.0
0.4629531792093383,-0.3882841244740116,-0.06481694754476694,-0.18854476510978957,-0.2621703851077739,-0.32169504887746664,0.0
0.4324527116927197,-0.3451553207988731,-0.047546005779921616,-0.17758929665888387,-0.1929249392080827,-0.19744784712490135,0.0
0.4019522441761004,-0.31126842095862634,-0.02163966871267549,-0.07102254310302768,-0.03771961771671433,0.011142333520144402,0.0
0.48201597140722646,-0.366719736117724,-0.13390056344410453,-0.07002659142567262,0.03311767620290576,0.02293221337538817,0.0
0.4858285298468037,-0.3636391015060933,-0.18571323757859762,-0.19999820332568194,-0.013841880429291853,-0.00699594331318033,0.0
0.4705782960884922,-0.34207471314980564,0.021537610119415965,-0.09890917184789691,-0.3775794551354541,-0.07320065643375233,0.0
0.4362652701322963,-0.32359093244258547,0.14243397573326722,-0.21692936969333632,-0.9904415082820631,-0.12489474670498753,0.0
0.4362652701322963,-0.32359093244258547,0.14243397573326722,-0.21692936969333632,-0.9904415082820631,-0.12489474670498753,0.0
0.6078301329647801,-0.4375741704098478,0.1597048419180918,-0.2732006090954432,-2.0291231773620155,-0.2836046642436266,0.0
0.5963924576460483,-0.31434905557025683,0.06471488895150741,-0.1750994235391871,-2.0561846932048087,-0.100408067708543,0.0
0.6612056841703664,-0.25889774041115937,-2.3100346154332887,0.5514468209749913,5.1063417036002745,0.3684663914575072,0.0
0.466765737648915,-0.3389940785381752,-1.057893963887759,0.14858466509571971,3.1618975379830725,0.8164818183520468,0.0
0.4019522441761004,-0.2496558635388309,-1.4464893411115445,-0.5012733609990273,1.6034770183590397,0.05104654255345882,0.0
0.13888624574225633,-0.41600978205356026,0.8332701347266465,-0.17709132689389717,-0.3735998387260219,0.06646407984938305,0.0
0.5620794316898524,-0.41600978205356026,-0.02163966871267549,-0.11683628685606093,0.15489415044493615,-0.22646908729286688,0.0
0.5430166394919649,-0.41600978205356026,0.16834031280051404,-0.08297395412075217,-0.3051503277574663,0.05195345700004624,0.0
0.2837631994976989,-0.3605584668944628,0.3065075445991899,-0.027698672469691245,0.011627709731913299,0.04741888753246313,0.0
0.4591406207697611,-0.4036872705696011,-0.09072328461201307,-0.07002659142567262,0.08166908328195921,0.02293221337538817,0.0
0.48201597140722646,-0.3913647590856421,0.056079418069085014,-0.059569106215755174,0.03709729989311846,-0.049620891883895256,0.0
0.4553280623301814,-0.37288097837842193,0.08198575513633113,0.023592802471949437,0.23130292335547847,0.021118385864890316,0.0
0.4362652701322963,-0.3759616129900525,0.056079418069085014,0.043511823871669,0.04505654674265361,-0.04508632518166616,0.0
0.466765737648915,-0.320510297830955,-0.07345234284716842,0.10177496055479511,-0.0034948573785827334,0.12541347463190158,0.0
0.38288945197821295,-0.366719736117724,-0.08208781372959074,-0.2248969709647952,0.010831784508485393,0.05920876704203762,0.0
0.3905145688573678,-0.37288097837842193,0.09925669690117594,-0.06853266542806273,-0.04329109428070971,0.01295616128989419,0.0
0.4553280623301814,-0.3759616129900525,0.06471488895150741,-0.01524928561328922,0.07609760914489067,0.044698146958054866,0.0
0.4705782960884922,-0.3636391015060933,-0.02163966871267549,-0.04114401252187103,0.16126155223235944,-0.012437427227350884,0.0
0.4553280623301814,-0.34207471314980564,0.3237784863640345,-0.0018039470795321354,0.08644462976867294,-0.11219794445276347,0.0
0.39432712729694475,-0.30510716521664677,-0.11662962167925987,-0.23983623397773943,-0.015433730876147682,0.029280611044807645,0.0
0.4248275948135652,-0.34207471314980564,0.012902139236993558,-0.19501844493890663,0.2527928946803247,-0.017878908376167412,0.0
0.4133899194948316,-0.366719736117724,0.09062122601875354,-0.11882819021077107,0.05062801959041723,0.09367149112417372,0.0
0.3905145688573678,-0.4529773165054375,0.2115175916326055,0.1326494382580387,0.47724367177909155,-0.15391598687295302,0.0
0.4210150363739849,-0.379042247601683,0.07335035983392965,-0.13227353178137358,0.19469039220091688,-0.0360171862464999,0.0
0.34857669297051375,-0.33591344392654465,0.133798504850845,-0.23386053606099075,-0.24625190005463052,0.06918481765843727,0.0
0.49345337977746057,-0.3482359554105036,-0.047546005779921616,-0.163148015558308,0.4549577655231101,0.04107048917170513,0.0
0.4057648026156777,-0.43141292814914994,0.07335035983392965,-0.04911162062623205,0.21060888696176763,0.06192950761644589,0.0
0.4286401532531424,-0.332832809314914,0.09062122601875354,0.04400979971034654,0.2798543328614587,0.007514678153479457,0.0
0.4553280623301814,-0.33591344392654465,0.021537610119415965,-0.06604278775309778,0.3443242274205824,-0.07954904649844821,0.0
0.4743908545280689,-0.35131659002213433,-0.013004197830253084,-0.2966054552922146,0.5297746782790891,-0.21105155276229667,0.0
0.4743908545280689,-0.35131659002213433,-0.013004197830253084,-0.22639090455451852,0.6388163853501758,-0.19744784712490135,0.0
0.5125161719753456,-0.4252516589258889,0.11652756308600036,-0.013257385295424516,0.4557536810388306,0.009328506009646556,0.0
0.2608878488602348,-0.3821228822133135,0.23742392869985163,0.11024054373862237,-0.36643652142287825,0.15806237258621683,0.0
0.2608878488602348,-0.3821228822133135,0.23742392869985163,0.11322839877068747,-0.35927320411973435,0.03381517912971375,0.0
0.45151550389060413,-0.4190904166651907,-0.19434870846102012,-0.009273578586004264,-0.009066333942578107,-0.1647989491705861,0.0
0.49345337977746057,-0.34207471314980564,-0.08208781372959074,0.08334986059741731,-0.20963935919236137,0.16169003037256657,0.0
0.4438903870114502,-0.332832809314914,0.133798504850845,-0.04263793851948092,-0.3688243068008694,0.32130686235779327,0.0
0.3295139007726272,-0.32359093244258547,0.26333026576709845,0.13912311808715574,-0.7858888520612867,0.40202219279699375,0.0
0.48964108828638037,-0.366719736117724,0.3496848234312813,0.39707444460615515,-0.8646853812266979,0.132668790204601,0.0
0.5277664057336559,-0.3482359554105036,-0.08208781372959074,0.4100218042643892,-0.8622975958487068,0.0628364220630333,0.0
0.5849547823273171,-0.28046214224872856,0.09062122601875354,0.10775065847154382,-1.3151787664556727,0.20703573057910585,0.0
0.5010784966566145,-0.2712202518951185,0.17697578368293646,-0.2323666024712673,-1.6128546641098074,0.47276149750798113,0.0
0.5201412888544995,-0.3451553207988731,-0.3584223151169527,-0.32548801749336626,-1.2363822372902618,0.42288123612992096,0.0
0.48201597140722646,-0.4067679051812318,-0.40159955615903364,-0.1606581302912295,-0.481049675934838,0.1907112705405321,0.0
0.3562018098496686,-0.4468160472821765,-0.3843286521841992,-0.032678429338043845,-0.40862050972602043,0.014769988973226662,0.0
0.37526433509905843,-0.4036872705696011,-0.14253595874650601,-0.01724118896799934,-0.8304605869115905,-0.1584505591058902,0.0
0.5353915226128104,-0.4252516589258889,-0.40159955615903364,0.05745514128094905,-0.4627434249191184,-0.3298572678353372,0.0
0.4553280623301814,-0.3821228822133135,-0.47931864294079396,0.007159611942972587,-0.3903142587103007,-0.15119524353319075,0.0
0.3371390176517817,-0.3574778322828323,-0.03027513959509781,0.2690947330240105,-0.9832781521480898,0.3503281025257588,0.0
0.40957736105525433,-0.332832809314914,-0.3325159402596957,0.3069408724687396,-0.9586044993449468,0.365745637056329,0.0
0.48201597140722646,-0.3821228822133135,-0.643392240149224,0.18941864742513223,-0.4882129932379819,0.07009173210502473,0.0
0.5620794316898524,-0.3882841244740116,-0.7729240270461094,-0.09641929265450926,-0.056821813371276765,-0.2137723071634751,0.0
0.5163287304149229,-0.35439722463376483,-0.643392240149224,-0.08197800396181981,0.184343364296354,0.018397644253474295,0.0
0.4591406207697611,-0.35131659002213433,-0.3929641230666217,0.0858397458644958,0.1907107660837773,0.21338412064380174,0.0
0.4438903870114502,-0.326671567054216,-0.453412268083537,0.021600899117239322,0.12624086181694621,0.18073522268948647,5.0
0.4286401532531424,-0.3636391015060933,-0.513860450890463,-0.033176403658298666,0.37218158111743704,-0.16570586361717352,5.0
0.5277664057336559,-0.3821228822133135,-0.8420076500310743,-0.15368647462343488,0.6802044581375976,-0.2854184931368015,5.0
0.6078301329647801,-0.3944453936972726,-0.6606631441240585,-0.1820710852806725,2.556994911809476,-0.3325780222365157,5.0
0.3562018098496686,-0.35131659002213433,-0.03027513959509781,-0.25328157554834185,1.527068352233279,-0.009716683887588591,5.0
0.3790768935386354,-0.3605584668944628,-0.27206779524278046,-0.34988882751487466,1.3129645545005377,-0.20923772386912182,5.0
0.39813968573652225,-0.33591344392654465,0.332413881666436,-0.2682208385612861,0.08326093130188818,-0.07047991309399003,5.0
0.6002050160856249,-0.35131659002213433,-0.23752594950310094,-0.14721279479431781,0.8513282743898168,0.005700850642981608,5.0
0.5468291979315415,-0.46838046260102717,-0.13390056344410453,-0.2069698529197857,1.2954542578313684,-0.015158167801759145,5.0
0.3638269267288231,-0.4468160472821765,0.26333026576709845,0.22128907680573082,0.6491634035470313,-0.053248549670244956,5.0
0.27613808261854383,-0.3451553207988731,0.07335035983392965,0.07139845261653824,0.3443242274205824,-0.07320065643375233,5.0
0.3295139007726272,-0.3605584668944628,-0.047546005779921616,-0.09094156450274725,-0.39588574498200363,0.0156769028148929,5.0
0.4057648026156777,-0.4529773165054375,-0.038910534897499294,0.023592802471949437,-0.4953763105411255,-0.09405966658243098,5.0
0.4057648026156777,-0.3913647590856421,-0.06481694754476694,0.10376686390950528,-0.247047815570351,-0.2935807120946724,5.0
0.4438903870114502,-0.32359093244258547,-0.03027513959509781,0.0803620055653521,-0.04647479517442135,0.05376728312786706,5.0
0.5239538472940792,-0.3297522016658465,0.133798504850845,0.1087466101488989,0.1827515138494982,0.3058893278272229,5.0
0.5544543148106948,-0.3759616129900525,0.09925669690117594,0.04799360641976679,0.14454713224808075,0.132668790204601,5.0
0.5544543148106948,-0.3759616129900525,0.09925669690117594,0.0699045311741965,0.06336281527775153,0.011142333520144402,5.0
0.466765737648915,-0.35439722463376483,-0.32388050716728384,-0.2901317754630976,0.21379258785547928,-0.006089028866592899,5.0
0.466765737648915,-0.332832809314914,-0.09072328461201307,-0.29859735864692477,1.1028404508388883,0.24059153191859242,5.0
0.466765737648915,-0.332832809314914,-0.09072328461201307,0.11173446518096414,-0.08786287766955045,0.14355175250223404,5.0
0.4019522441761004,-0.3821228822133135,0.004266668354571323,-0.05209947376026885,0.0768935343683186,0.0011662811753984886,5.0
0.39432712729694475,-0.20036581760299443,-0.41023502704145615,0.06193691775535601,0.20105778428063273,0.044698146958054866,5.0
0.39432712729694475,-0.20036581760299443,-0.41023502704145615,-0.035168307013008805,0.15728192611521988,-0.10857029772782988,5.0
0.41720247793440823,-0.37288097837842193,-0.047546005779921616,-0.013755361134102036,0.01879103188891079,-0.03420335735332504,5.0
0.4362652701322963,-0.3605584668944628,-0.02163966871267549,-0.01176345777939192,0.05221986882380963,0.007514678153479457,5.0
0.4362652701322963,-0.3605584668944628,-0.02163966871267549,-0.03965008652426115,0.048240245436962786,0.031094438555305484,5.0
0.45151550389060413,-0.35131659002213433,-0.02163966871267549,-0.06853266542806273,0.04585247143519127,-0.0006475463350993602,5.0
0.4286401532531424,-0.3482359554105036,0.004266668354571323,-0.08048407796420994,0.03709729989311846,0.02293221337538817,5.0
0.4286401532531424,-0.3482359554105036,0.004266668354571323,-0.07749622445056746,0.04744432082026659,0.031094438555305484,5.0
0.4400778285718736,-0.3821228822133135,-0.004368726947830159,-0.07102254310302768,0.056995417130718526,0.006607764398230534,5.0
0.4438903870114502,-0.3944453936972726,0.004266668354571323,-0.07102254310302768,0.06256689005432362,0.02293221337538817,5.0
0.4438903870114502,-0.3882841244740116,-0.047546005779921616,-0.07500634677560251,0.05858726636411092,0.012049247448227952,5.0
0.4438903870114502,-0.3821228822133135,-0.047546005779921616,-0.06952861634620644,0.04266877266504062,0.01295616128989419,5.0
0.4400778285718736,-0.379042247601683,-0.038910534897499294,-0.07102254310302768,0.031525826969513365,0.031094438555305484,5.0
0.45151550389060413,-0.4067679051812318,-0.038910534897499294,-0.0525974492193407,0.038689149126510856,0.04016357749047173,5.0
0.4477029454510275,-0.39752600134634003,-0.02163966871267549,-0.034670331174331256,0.040280998663269105,-0.002461373845597204,5.0
0.4324527116927197,-0.3821228822133135,0.012902139236993558,-0.01176345777939192,0.02834212850272858,0.027466782151632778,5.0
0.4362652701322963,-0.3821228822133135,0.038808551884260606,-0.03218045349936632,0.030729901746085458,0.022025299620139244,5.0
0.4477029454510275,-0.3636391015060933,-0.004368726947830159,-0.033674379496976194,0.04346469735757828,0.02837369659822021,5.0
0.4362652701322963,-0.3636391015060933,0.004266668354571323,-0.03915211068558363,0.036301375276422264,0.0392566630438843,5.0
0.4362652701322963,-0.3698003437667915,0.004266668354571323,-0.06205898370091728,0.0418728478966615,0.042884318064879995,5.0
0.45151550389060413,-0.366719736117724,-0.013004197830253084,-0.061561008241845426,0.025954354045908276,0.027466782151632778,5.0
0.4477029454510275,-0.3574778322828323,-0.02163966871267549,-0.05508732670450281,0.05460764267389822,0.04379123251146744,5.0
0.4477029454510275,-0.3605584668944628,-0.02163966871267549,-0.05807517974363819,0.039485073743207054,0.03744283415070944,5.0
0.4438903870114502,-0.366719736117724,-0.038910534897499294,-0.0456257920331234,0.035505450659726066,0.045605058639288265,5.0
0.4553280623301814,-0.35439722463376483,-0.056181476662344625,-0.0466217429512671,0.06813836176446528,0.006607764398230534,5.0
0.4438903870114502,-0.379042247601683,-0.038910534897499294,-0.03915211068558363,0.0410769232799653,0.018397644253474295,5.0
0.4438903870114502,-0.379042247601683,-0.038910534897499294,-0.03616425717194114,0.013219560178769121,0.030187524108718056,5.0
0.4438903870114502,-0.3698003437667915,0.038808551884260606,-0.03616425717194114,0.04346469735757828,0.006607764398230534,5.0
0.45151550389060413,-0.3698003437667915,-0.038910534897499294,-0.04164198836054857,0.029933977736120974,0.03381517912971375,5.0
0.45151550389060413,-0.3698003437667915,-0.038910534897499294,-0.046123767871800926,0.035505450659726066,0.026559869087722364,5.0
0.4438903870114502,-0.379042247601683,-0.02163966871267549,-0.04363389019683598,0.03311767620290576,0.02293221337538817,5.0
0.4477029454510275,-0.3759616129900525,0.012902139236993558,-0.04263793851948092,0.03789322450981466,0.024746041577224515,5.0
0.4477029454510275,-0.3759616129900525,0.012902139236993558,-0.0456257920331234,0.03789322450981466,0.04016357749047173,5.0
0.4438903870114502,-0.3821228822133135,0.012902139236993558,-0.0466217429512671,0.014811408198698082,0.026559869087722364,5.0
0.4362652701322963,-0.366719736117724,-0.004368726947830159,-0.042139964199226096,0.026750279269336187,0.027466782151632778,5.0
0.4362652701322963,-0.366719736117724,0.012902139236993558,-0.0466217429512671,0.021178805132267668,0.024746041577224515,5.0
0.4438903870114502,-0.366719736117724,0.012902139236993558,-0.04512781619444586,0.014015482975270182,0.019304558354392473,5.0
0.4438903870114502,-0.37288097837842193,-0.013004197830253084,-0.04911162062623205,0.03391360142633367,0.02293221337538817,5.0
0.4400778285718736,-0.37288097837842193,-0.013004197830253084,-0.04512781619444586,0.031525826969513365,0.03834974859729687,5.0
0.4324527116927197,-0.37288097837842193,0.03017308100183837,-0.04114401252187103,0.02038288233576661,0.0047939368877326855,5.0
0.45151550389060413,-0.3759616129900525,-0.02163966871267549,-0.051601498301196994,0.031525826969513365,0.00842159190872838,5.0
0.45151550389060413,-0.37288097837842193,-0.038910534897499294,-0.048115669708088345,0.026750279269336187,-0.0033682882921846373,5.0
0.4438903870114502,-0.366719736117724,-0.03027513959509781,-0.047119718789944635,0.02277065557912349,0.01658381674297645,5.0
0.4438903870114502,-0.37288097837842193,-0.02163966871267549,-0.07102254310302768,0.029933977736120974,0.02293221337538817,5.0
0.4438903870114502,-0.3605584668944628,0.038808551884260606,-0.06903064126674027,0.025954354045908276,0.012049247448227952,5.0
0.4400778285718736,-0.37288097837842193,-0.004368726947830159,-0.07948812628685487,0.04744432082026659,0.04016357749047173,5.0
0.4362652701322963,-0.37288097837842193,-0.047546005779921616,-0.06355291007813284,0.04266877266504062,0.03562900802288861,5.0
0.4477029454510275,-0.379042247601683,-0.047546005779921616,-0.06554481267363162,0.029138052512693063,0.019304558354392473,5.0
0.45151550389060413,-0.3913647590856421,-0.047546005779921616,-0.07102254310302768,0.02754620327930067,0.032001351619215905,5.0
0.45151550389060413,-0.379042247601683,-0.03027513959509781,-0.06903064126674027,0.02436250481251588,0.026559869087722364,5.0
0.4362652701322963,-0.3759616129900525,-0.056181476662344625,-0.0730144449393151,0.02436250481251588,0.0038870231324837634,5.0
0.4362652701322963,-0.37288097837842193,-0.004368726947830159,-0.07650027277321239,0.02197473035569558,-0.002461373845597204,5.0
0.4477029454510275,-0.37288097837842193,-0.013004197830253084,-0.0864597849914949,0.039485073743207054,-0.00699594331318033,5.0
0.4591406207697611,-0.37288097837842193,0.012902139236993558,-0.09592131681583173,0.038689149126510856,0.030187524108718056,5.0
0.4553280623301814,-0.3821228822133135,-0.047546005779921616,-0.086957757793327,0.040280998663269105,0.010235419764895478,5.0
0.4362652701322963,-0.3944453936972726,-0.03027513959509781,-0.07998610212553241,0.021178805132267668,0.02837369659822021,5.0
0.4362652701322963,-0.4067679051812318,0.03017308100183837,-0.06006708186462987,0.025954354045908276,0.009328506009646556,5.0
0.4477029454510275,-0.40984851283029927,0.012902139236993558,-0.031184503340433954,0.059383191587538825,0.03381517912971375,5.0
0.4477029454510275,-0.4036872705696011,0.038808551884260606,-0.014751309774611683,0.0418728478966615,0.032001351619215905,5.0
0.45151550389060413,-0.39752600134634003,-0.03027513959509781,-0.005289777950274856,0.04585247143519127,0.0392566630438843,5.0
0.4438903870114502,-0.3852034898623809,-0.02163966871267549,-0.013755361134102036,0.023566580802551397,-0.00790285775976776,5.0
0.4438903870114502,-0.3852034898623809,-0.02163966871267549,-0.013755361134102036,0.05858726636411092,0.03381517912971375,5.0
0.45151550389060413,-0.3852034898623809,-0.02163966871267549,-0.013755361134102036,0.08803648021552876,0.014769988973226662,5.0
0.4591406207697611,-0.3759616129900525,-0.07345234284716842,-0.021224992640574168,0.10873052146309331,-0.002461373845597204,5.0
0.4591406207697611,-0.3759616129900525,-0.07345234284716842,-0.02919259998572384,0.09599572759595418,-0.002461373845597204,5.0
0.4591406207697611,-0.366719736117724,-0.07345234284716842,-0.0406460366831935,0.08087315805853128,0.0029801086858963323,5.0
0.4324527116927197,-0.3482359554105036,-0.02163966871267549,-0.03716020884929621,0.07609760914489067,-0.024227306736925396,5.0
0.4248275948135652,-0.3482359554105036,0.03017308100183837,-0.05807517974363819,0.053811718663933736,0.017490730498225374,5.0
0.4629531792093383,-0.366719736117724,-0.038910534897499294,-0.05060554738305329,0.06813836176446528,0.024746041577224515,5.0
0.4629531792093383,-0.366719736117724,-0.038910534897499294,-0.03815615900822856,0.07450576112496171,-0.013344338908584285,5.0
0.4553280623301814,-0.3759616129900525,-0.07345234284716842,-0.028694624147046297,0.07928130761167546,0.0047939368877326855,5.0
0.4438903870114502,-0.379042247601683,-0.02163966871267549,-0.03765818468797374,0.06813836176446528,0.010235419764895478,5.0
0.4400778285718736,-0.35131659002213433,0.004266668354571323,-0.04363389019683598,0.061770964830895704,-0.017878908376167412,5.0
0.4362652701322963,-0.34207471314980564,-0.02163966871267549,-0.06205898370091728,0.05221986882380963,0.0029801086858963323,5.0
0.4477029454510275,-0.3451553207988731,-0.02163966871267549,-0.06205898370091728,0.05779134235414644,-0.024227306736925396,5.0
0.4438903870114502,-0.3451553207988731,-0.004368726947830159,-0.09542334401399961,0.06654651374453631,-0.022413477843750522,5.0
0.4553280623301814,-0.3389940785381752,-0.06481694754476694,-0.12281199692019132,0.06336281527775153,-0.04417941073507871,5.0
0.45151550389060413,-0.31434905557025683,0.038808551884260606,-0.163148015558308,0.034709525436298155,-0.07954904649844821,5.0
0.45151550389060413,-0.320510297830955,-0.02163966871267549,-0.21045568986421925,0.05062801959041723,-0.09043201985749741,5.0
0.4362652701322963,-0.31434905557025683,-0.06481694754476694,-0.23834231253539764,0.06813836176446528,-0.04327249628849129,5.0
0.4400778285718736,-0.33591344392654465,0.012902139236993558,-0.23684839109305586,0.038689149126510856,-0.06594534086105287,5.0
0.4362652701322963,-0.3451553207988731,0.021537610119415965,-0.2273868562318736,0.036301375276422264,-0.054155464116832405,5.0
0.4438903870114502,-0.366719736117724,-0.038910534897499294,-0.216431387780968,0.02754620327930067,-0.04236558184190388,5.0
0.4362652701322963,-0.379042247601683,-0.07345234284716842,-0.20995770795185084,0.05858726636411092,-0.08317670428479791,5.0
0.4477029454510275,-0.3944453936972726,-0.004368726947830159,-0.21543543610361288,0.04585247143519127,-0.08317670428479791,5.0
0.4438903870114502,-0.3852034898623809,-0.004368726947830159,-0.1790832302486073,0.0768935343683186,-0.09678040992219328,5.0
0.4362652701322963,-0.3882841244740116,0.012902139236993558,-0.18256905504565918,0.04744432082026659,-0.09768732436878073,5.0
0.4362652701322963,-0.366719736117724,-0.02163966871267549,-0.16414396723566305,0.04585247143519127,-0.08136287539162308,5.0
0.4553280623301814,-0.35131659002213433,-0.013004197830253084,-0.1651399189130181,0.0697302122113211,-0.08317670428479791,5.0
0.4362652701322963,-0.3636391015060933,0.056079418069085014,-0.17161359874213516,0.06097504082093122,-0.04508632518166616,5.0
0.4324527116927197,-0.379042247601683,-0.056181476662344625,-0.1651399189130181,0.038689149126510856,-0.04145866739531643,5.0
0.4477029454510275,-0.37288097837842193,-0.07345234284716842,-0.15567837797814502,0.035505450659726066,-0.018785822822754827,5.0
0.4591406207697611,-0.366719736117724,-0.02163966871267549,-0.1596621786138744,0.039485073743207054,-0.01969273726934228,5.0
0.4553280623301814,-0.3605584668944628,-0.038910534897499294,-0.15567837797814502,0.04664839620357039,0.0038870231324837634,5.0
0.4438903870114502,-0.366719736117724,-0.004368726947830159,-0.1437269639235751,0.05062801959041723,0.0029801086858963323,5.0
0.4477029454510275,-0.3759616129900525,-0.056181476662344625,-0.14472291560093017,0.059383191587538825,-0.021506563397163104,5.0
0.4438903870114502,-0.3759616129900525,-0.013004197830253084,-0.11882819021077107,0.0410769232799653,-0.04780706852142846,5.0
0.4362652701322963,-0.3759616129900525,-0.047546005779921616,-0.11135855870429893,0.0657505885211084,-0.026041132864746207,5.0
0.4362652701322963,-0.3821228822133135,-0.047546005779921616,-0.10787273087040164,0.029933977736120974,0.005700850642981608,5.0
0.4362652701322963,-0.3821228822133135,-0.038910534897499294,-0.09990512352525198,0.053015793440505825,-0.006089028866592899,5.0
0.4438903870114502,-0.379042247601683,-0.004368726947830159,-0.07401039661667017,0.04744432082026659,0.03744283415070944,5.0
0.4438903870114502,-0.3852034898623809,-0.047546005779921616,-0.05209947376026885,0.034709525436298155,0.05286037144663369,5.0
0.45151550389060413,-0.3821228822133135,-0.047546005779921616,-0.030188551663078902,0.048240245436962786,0.06646407984938305,5.0
0.4324527116927197,-0.37288097837842193,-0.02163966871267549,-0.026204747990504058,0.03391360142633367,0.06102259316985847,5.0
0.4362652701322963,-0.3698003437667915,-0.08208781372959074,-0.01724118896799934,0.049832094973721035,0.029280611044807645,5.0
0.4477029454510275,-0.379042247601683,-0.047546005779921616,-0.0018039470795321354,0.032321752192941276,0.04923271366028396,5.0
0.4553280623301814,-0.3821228822133135,-0.004368726947830159,0.017617098481509892,0.04664839620357039,0.05467419757445451,5.0
0.4438903870114502,-0.366719736117724,0.038808551884260606,0.010645442813715319,0.025158428822480365,0.029280611044807645,5.0
0.4553280623301814,-0.3451553207988731,-0.004368726947830159,0.00018795627517800205,0.05858726636411092,0.0773470421470161,5.0
0.45151550389060413,-0.35439722463376483,-0.06481694754476694,-0.013755361134102036,0.02834212850272858,0.03381517912971375,5.0
0.4438903870114502,-0.3605584668944628,-0.038910534897499294,-0.01624523729064429,0.025954354045908276,0.041977403618292566,5.0
0.4362652701322963,-0.366719736117724,-0.03027513959509781,-0.014253333935934157,0.031525826969513365,0.018397644253474295,5.0
0.45151550389060413,-0.3821228822133135,0.021537610119415965,-0.01524928561328922,0.048240245436962786,0.04107048917170513,5.0
0.4438903870114502,-0.3821228822133135,-0.07345234284716842,-0.0057877537889523874,0.05858726636411092,0.027466782151632778,5.0
0.4362652701322963,-0.3698003437667915,-0.09072328461201307,-0.00329787459556473,0.06495466329768049,0.034722093576301176,5.0
0.4438903870114502,-0.3605584668944628,-0.09072328461201307,-0.016743213129321814,0.0689342869878932,0.027466782151632778,5.0
0.4362652701322963,-0.3574778322828323,-0.09072328461201307,-0.023216892958438873,0.0657505885211084,0.034722093576301176,5.0
0.45151550389060413,-0.35131659002213433,-0.038910534897499294,-0.021722968479251713,0.07132206265817694,0.006607764398230534,5.0
0.4477029454510275,-0.3605584668944628,-0.047546005779921616,-0.023216892958438873,0.06495466329768049,0.006607764398230534,5.0
0.4438903870114502,-0.3451553207988731,-0.03027513959509781,-0.028196648308368773,0.04744432082026659,0.00842159190872838,5.0
0.4477029454510275,-0.3297522016658465,-0.004368726947830159,-0.0525974492193407,0.040280998663269105,-0.014251253355171715,5.0
0.4477029454510275,-0.3297522016658465,-0.013004197830253084,-0.06903064126674027,0.06097504082093122,-0.011530512780763454,5.0
0.4477029454510275,-0.3451553207988731,-0.013004197830253084,-0.07948812628685487,0.06097504082093122,-0.0015544607816867935,5.0
0.45151550389060413,-0.3451553207988731,-0.004368726947830159,-0.08894966114803712,0.0697302122113211,0.018397644253474295,5.0
0.4629531792093383,-0.332832809314914,-0.02163966871267549,-0.09243548898193442,0.04585247143519127,-0.00790285775976776,5.0
0.45151550389060413,-0.3574778322828323,-0.038910534897499294,-0.086957757793327,0.056199491907290615,0.02837369659822021,5.0
0.4477029454510275,-0.379042247601683,-0.07345234284716842,-0.08546383331413983,0.07211798545467799,0.021118385864890316,5.0
0.4324527116927197,-0.3759616129900525,0.06471488895150741,-0.07550432261428004,0.061770964830895704,0.007514678153479457,5.0
0.4400778285718736,-0.37288097837842193,0.03017308100183837,-0.0565812532240705,0.06415873928771601,-0.0033682882921846373,5.0
0.4400778285718736,-0.3574778322828323,-0.06481694754476694,-0.05409137559655627,0.059383191587538825,0.007514678153479457,5.0
0.45151550389060413,-0.3636391015060933,-0.06481694754476694,-0.03616425717194114,0.05779134235414644,0.00025936811148807073,5.0
0.4438903870114502,-0.3605584668944628,0.012902139236993558,-0.03965008652426115,0.049036170357024844,0.019304558354392473,5.0
0.4438903870114502,-0.35131659002213433,-0.004368726947830159,-0.04861364478755452,0.04585247143519127,0.025652954641134932,5.0
0.4438903870114502,-0.35131659002213433,-0.004368726947830159,-0.046123767871800926,0.04266877266504062,0.04651197308587568,5.0
0.4400778285718736,-0.3636391015060933,0.004266668354571323,-0.06056505732370172,0.038689149126510856,0.032001351619215905,5.0
0.4400778285718736,-0.3636391015060933,0.004266668354571323,-0.061561008241845426,0.035505450659726066,0.05376728312786706,5.0
0.4438903870114502,-0.3574778322828323,-0.047546005779921616,-0.0670387386712415,0.040280998663269105,0.05286037144663369,5.0
0.4438903870114502,-0.3759616129900525,-0.004368726947830159,-0.06106303278277357,0.04744432082026659,0.027466782151632778,5.0
0.4438903870114502,-0.3759616129900525,-0.004368726947830159,-0.027200699667859124,0.04266877266504062,0.02837369659822021,5.0
0.4400778285718736,-0.379042247601683,0.021537610119415965,-0.01574726145196675,0.02834212850272858,0.02293221337538817,5.0
0.4400778285718736,-0.379042247601683,0.021537610119415965,-0.0037958504342422727,0.0689342869878932,0.019304558354392473,5.0
0.4591406207697611,-0.3574778322828323,0.021537610119415965,-0.010767506102036858,0.056199491907290615,0.03562900802288861,5.0
0.4438903870114502,-0.3605584668944628,0.021537610119415965,-0.01873511344718652,0.053015793440505825,0.04923271366028396,5.0
0.4477029454510275,-0.3698003437667915,-0.02163966871267549,-0.010269530263359326,0.040280998663269105,0.0573949409142168,5.0
0.4400778285718736,-0.366719736117724,-0.02163966871267549,-0.01873511344718652,0.031525826969513365,0.03562900802288861,5.0
0.4629531792093383,-0.37288097837842193,-0.03027513959509781,-0.023714868797116404,0.08326093130188818,0.03562900802288861,5.0
0.466765737648915,-0.366719736117724,-0.004368726947830159,-0.019731065124541574,0.06495466329768049,0.009328506009646556,5.0
0.4629531792093383,-0.37288097837842193,-0.09072328461201307,-0.03765818468797374,0.061770964830895704,0.01658381674297645,5.0
0.4362652701322963,-0.37288097837842193,-0.06481694754476694,-0.026204747990504058,0.06256689005432362,0.009328506009646556,5.0
0.4248275948135652,-0.3698003437667915,-0.03027513959509781,-0.028694624147046297,0.06017911559750331,0.005700850642981608,5.0
0.4362652701322963,-0.37288097837842193,0.004266668354571323,-0.025208796313149012,0.053811718663933736,0.024746041577224515,5.0
0.4553280623301814,-0.3605584668944628,0.021537610119415965,-0.022718920156606776,0.04346469735757828,-0.006089028866592899,5.0
0.4438903870114502,-0.366719736117724,-0.038910534897499294,-0.017739164806676883,0.049036170357024844,0.0156769028148929,5.0
0.4400778285718736,-0.366719736117724,-0.02163966871267549,-0.024212844635793943,0.026750279269336187,0.032908266065803334,5.0
0.4438903870114502,-0.366719736117724,-0.03027513959509781,-0.032678429338043845,0.031525826969513365,0.005700850642981608,5.0
0.4400778285718736,-0.3605584668944628,-0.07345234284716842,-0.027200699667859124,0.040280998663269105,0.011142333520144402,5.0
0.4324527116927197,-0.3574778322828323,-0.047546005779921616,-0.028196648308368773,0.03789322450981466,0.044698146958054866,5.0
0.4438903870114502,-0.35439722463376483,-0.02163966871267549,-0.03915211068558363,0.048240245436962786,0.021118385864890316,5.0
0.4438903870114502,-0.3482359554105036,-0.03027513959509781,-0.05807517974363819,0.03391360142633367,0.02293221337538817,5.0
0.4362652701322963,-0.3605584668944628,-0.004368726947830159,-0.06903064126674027,0.02197473035569558,0.02293221337538817,5.0
0.4553280623301814,-0.35131659002213433,-0.004368726947830159,-0.07251646910063757,0.05858726636411092,0.0011662811753984886,5.0
0.4438903870114502,-0.366719736117724,-0.004368726947830159,-0.08745573363200453,0.056199491907290615,-0.009716683887588591,5.0
0.4553280623301814,-0.366719736117724,-0.06481694754476694,-0.086957757793327,0.053811718663933736,-0.02876187620450853,5.0
0.45151550389060413,-0.37288097837842193,0.012902139236993558,-0.086957757793327,0.04585247143519127,-0.009716683887588591,5.0
0.4286401532531424,-0.366719736117724,-0.004368726947830159,-0.06903064126674027,0.05221986882380963,-0.011530512780763454,5.0
0.4324527116927197,-0.37288097837842193,0.03017308100183837,-0.07201849326196003,0.032321752192941276,-0.009716683887588591,5.0
0.4400778285718736,-0.3605584668944628,-0.03027513959509781,-0.07500634677560251,0.025158428822480365,0.00842159190872838,5.0
0.4438903870114502,-0.3605584668944628,0.004266668354571323,-0.07450837093692497,0.025954354045908276,0.027466782151632778,5.0
0.4553280623301814,-0.3636391015060933,0.021537610119415965,-0.0884516853093596,0.035505450659726066,0.0392566630438843,5.0
0.4553280623301814,-0.3698003437667915,-0.038910534897499294,-0.07450837093692497,0.030729901746085458,0.0392566630438843,5.0
0.45151550389060413,-0.37288097837842193,-0.06481694754476694,-0.07201849326196003,0.031525826969513365,0.05286037144663369,5.0
0.4438903870114502,-0.366719736117724,-0.004368726947830159,-0.07948812628685487,0.04266877266504062,0.032908266065803334,5.0
0.4438903870114502,-0.3605584668944628,-0.02163966871267549,-0.07699824861188992,0.0418728478966615,0.03834974859729687,5.0
0.4248275948135652,-0.3574778322828323,-0.004368726947830159,-0.0680346895893852,0.010035859285057468,0.042884318064879995,5.0
0.4248275948135652,-0.3574778322828323,-0.004368726947830159,-0.06405088591681038,0.01640325864555391,0.026559869087722364,5.0
0.4400778285718736,-0.35131659002213433,-0.013004197830253084,-0.05608327771754794,0.031525826969513365,0.0047939368877326855,5.0
0.4362652701322963,-0.3574778322828323,-0.038910534897499294,-0.06056505732370172,0.02834212850272858,0.026559869087722364,5.0
0.4553280623301814,-0.35131659002213433,0.012902139236993558,-0.08596180915281736,0.0418728478966615,0.025652954641134932,5.0
0.4400778285718736,-0.3451553207988731,-0.02163966871267549,-0.09143953730457936,0.038689149126510856,0.022025299620139244,5.0
0.4438903870114502,-0.3451553207988731,-0.02163966871267549,-0.09044358866406972,0.0195869571123387,0.0392566630438843,5.0
0.4438903870114502,-0.3451553207988731,-0.02163966871267549,-0.0864597849914949,0.021178805132267668,0.04923271366028396,5.0
0.4553280623301814,-0.35131659002213433,-0.03027513959509781,-0.08197800396181981,0.006852160818272686,0.06465025095620817,5.0
0.4438903870114502,-0.37288097837842193,-0.03027513959509781,-0.0834719299594297,0.014015482975270182,0.06465025095620817,5.0
0.4477029454510275,-0.366719736117724,0.021537610119415965,-0.09691726849318678,0.02754620327930067,0.02837369659822021,5.0
0.4438903870114502,-0.37288097837842193,-0.02163966871267549,-0.07002659142567262,0.010035859285057468,0.027466782151632778,5.0
0.4553280623301814,-0.3605584668944628,-0.02163966871267549,-0.06853266542806273,-0.0011070865621527104,0.027466782151632778,5.0
0.4591406207697611,-0.3605584668944628,-0.038910534897499294,-0.08247597980049735,0.032321752192941276,0.0047939368877326855,5.0
0.4553280623301814,-0.3605584668944628,-0.047546005779921616,-0.08197800396181981,0.036301375276422264,-0.0033682882921846373,5.0
0.4362652701322963,-0.3389940785381752,0.004266668354571323,-0.0849658574754623,0.05460764267389822,-0.011530512780763454,5.0
0.4438903870114502,-0.3482359554105036,0.03017308100183837,-0.07699824861188992,0.0418728478966615,-0.013344338908584285,5.0
0.4438903870114502,-0.366719736117724,-0.013004197830253084,-0.0849658574754623,0.026750279269336187,-0.009716683887588591,5.0
0.4438903870114502,-0.366719736117724,-0.013004197830253084,-0.06554481267363162,0.05540356789732613,0.010235419764895478,5.0
0.4477029454510275,-0.3698003437667915,-0.03027513959509781,-0.06753671450991902,0.04266877266504062,-0.016065082248346588,5.0
0.4362652701322963,-0.3821228822133135,-0.047546005779921616,-0.05807517974363819,0.049832094973721035,-0.014251253355171715,5.0
0.4362652701322963,-0.3821228822133135,-0.047546005779921616,-0.03417235533565373,0.05779134235414644,-0.012437427227350884,5.0
0.4477029454510275,-0.379042247601683,-0.10799415079683757,-0.021722968479251713,0.032321752192941276,0.006607764398230534,5.0
0.4477029454510275,-0.366719736117724,0.012902139236993558,-0.020727016801896644,0.05142394420711343,-0.006089028866592899,5.0
0.4477029454510275,-0.366719736117724,0.012902139236993558,-0.021722968479251713,0.049036170357024844,0.021118385864890316,5.0
0.45151550389060413,-0.3698003437667915,-0.038910534897499294,-0.04114401252187103,0.05540356789732613,-0.0006475463350993602,5.0
0.4438903870114502,-0.3605584668944628,0.004266668354571323,-0.0406460366831935,0.038689149126510856,-0.016065082248346588,5.0
0.4438903870114502,-0.3605584668944628,0.004266668354571323,-0.04114401252187103,0.034709525436298155,0.0156769028148929,5.0
0.4438903870114502,-0.3605584668944628,-0.047546005779921616,-0.029690575824401367,0.026750279269336187,0.022025299620139244,5.0
0.4477029454510275,-0.366719736117724,-0.03027513959509781,-0.0356662813332636,0.025954354045908276,0.011142333520144402,5.0
0.4477029454510275,-0.366719736117724,-0.03027513959509781,-0.05359340013748441,0.02834212850272858,0.017490730498225374,5.0
0.45151550389060413,-0.37288097837842193,0.038808551884260606,-0.05807517974363819,0.030729901746085458,0.036535921086799025,5.0
0.45151550389060413,-0.3605584668944628,-0.03027513959509781,-0.06205898370091728,0.029138052512693063,0.020211472109641394,5.0
0.4477029454510275,-0.3605584668944628,0.012902139236993558,-0.04911162062623205,0.023566580802551397,0.03834974859729687,5.0
0.4438903870114502,-0.366719736117724,-0.07345234284716842,-0.046123767871800926,0.05221986882380963,-0.006089028866592899,5.0
0.4553280623301814,-0.366719736117724,-0.09072328461201307,-0.03168247766068878,0.049036170357024844,0.029280611044807645,5.0
0.45151550389060413,-0.3698003437667915,-0.047546005779921616,-0.033674379496976194,0.034709525436298155,0.018397644253474295,5.0
0.4477029454510275,-0.3636391015060933,-0.08208781372959074,-0.026204747990504058,0.05460764267389822,-0.0015544607816867935,5.0
0.4438903870114502,-0.3605584668944628,-0.03027513959509781,-0.034670331174331256,0.049832094973721035,0.007514678153479457,5.0
0.4362652701322963,-0.37288097837842193,0.004266668354571323,-0.04462984111497969,0.05062801959041723,0.022025299620139244,5.0
0.4477029454510275,-0.3821228822133135,-0.06481694754476694,-0.033176403658298666,0.05858726636411092,0.005700850642981608,5.0
0.4553280623301814,-0.37288097837842193,-0.038910534897499294,-0.03068652750175643,0.06734243896796423,0.0047939368877326855,5.0
0.4477029454510275,-0.379042247601683,-0.004368726947830159,-0.028694624147046297,0.05221986882380963,-0.014251253355171715,5.0
0.4400778285718736,-0.3605584668944628,0.038808551884260606,-0.033674379496976194,0.06813836176446528,-0.026948047311333656,5.0
0.4438903870114502,-0.3451553207988731,-0.02163966871267549,-0.05060554738305329,0.0657505885211084,-0.016065082248346588,5.0
0.4553280623301814,-0.3636391015060933,-0.047546005779921616,-0.046123767871800926,0.048240245436962786,-0.002461373845597204,5.0
0.45151550389060413,-0.366719736117724,-0.08208781372959074,-0.047119718789944635,0.05460764267389822,0.011142333520144402,5.0
0.4553280623301814,-0.37288097837842193,-0.047546005779921616,-0.04462984111497969,0.04664839620357039,0.005700850642981608,5.0
0.4400778285718736,-0.3698003437667915,-0.07345234284716842,-0.04263793851948092,0.08166908328195921,-0.006089028866592899,5.0
0.4438903870114502,-0.3605584668944628,-0.02163966871267549,-0.030188551663078902,0.0768935343683186,-0.009716683887588591,5.0
0.4438903870114502,-0.3636391015060933,-0.047546005779921616,-0.03068652750175643,0.08405685652531607,-0.03238953122550421,5.0
0.45151550389060413,-0.366719736117724,-0.004368726947830159,-0.027200699667859124,0.06495466329768049,-0.036924100693087325,5.0
0.45151550389060413,-0.3636391015060933,-0.02163966871267549,-0.02222094431792923,0.0697302122113211,-0.011530512780763454,5.0
0.45151550389060413,-0.3636391015060933,-0.02163966871267549,-0.021224992640574168,0.06495466329768049,-0.014251253355171715,5.0
0.4400778285718736,-0.3574778322828323,-0.038910534897499294,-0.0406460366831935,0.0776894595917465,-0.008809770823678174,5.0
0.45151550389060413,-0.35439722463376483,0.012902139236993558,-0.04512781619444586,0.07370983590153381,-0.012437427227350884,5.0
0.45151550389060413,-0.35439722463376483,0.012902139236993558,-0.058573155297611465,0.07291391067810588,-0.0042752013560950555,5.0
0.4438903870114502,-0.3605584668944628,-0.06481694754476694,-0.03815615900822856,0.0657505885211084,-0.01969273726934228,5.0
0.4553280623301814,-0.3636391015060933,-0.02163966871267549,-0.048115669708088345,0.0776894595917465,0.009328506009646556,5.0
0.4553280623301814,-0.3636391015060933,-0.02163966871267549,-0.036662233010618675,0.06654651374453631,-0.025134221183512835,5.0
0.4553280623301814,-0.3698003437667915,-0.047546005779921616,-0.05359340013748441,0.0657505885211084,-0.0033682882921846373,5.0
0.45151550389060413,-0.3574778322828323,-0.09072328461201307,-0.04761769386941081,0.09281202670224252,-0.0042752013560950555,5.0
0.45151550389060413,-0.3574778322828323,-0.09072328461201307,-0.050107571544375756,0.07848538481517442,-0.00699594331318033,5.0
0.4400778285718736,-0.3636391015060933,-0.02163966871267549,-0.0356662813332636,0.08405685652531607,-0.011530512780763454,5.0
0.4400778285718736,-0.366719736117724,-0.004368726947830159,-0.04263793851948092,0.07370983590153381,-0.008809770823678174,5.0
0.4400778285718736,-0.366719736117724,-0.004368726947830159,-0.04960959646490958,0.07132206265817694,0.0038870231324837634,5.0
0.4553280623301814,-0.366719736117724,0.021537610119415965,-0.06305493499866667,0.06256689005432362,-0.012437427227350884,5.0
0.4400778285718736,-0.3451553207988731,-0.013004197830253084,-0.05359340013748441,0.07928130761167546,-0.008809770823678174,5.0
0.4591406207697611,-0.3451553207988731,-0.047546005779921616,-0.0680346895893852,0.0776894595917465,-0.008809770823678174,5.0
0.45151550389060413,-0.3389940785381752,-0.047546005779921616,-0.06255695915998913,0.0824650085053871,-0.021506563397163104,5.0
0.4438903870114502,-0.34207471314980564,-0.047546005779921616,-0.06853266542806273,0.06336281527775153,-0.00699594331318033,5.0
0.4362652701322963,-0.34207471314980564,-0.038910534897499294,-0.06454886099627655,0.0418728478966615,0.020211472109641394,5.0
0.4362652701322963,-0.3451553207988731,-0.047546005779921616,-0.06604278775309778,0.04266877266504062,0.011142333520144402,5.0
0.4438903870114502,-0.35439722463376483,-0.06481694754476694,-0.058573155297611465,0.04744432082026659,0.009328506009646556,5.0
0.4438903870114502,-0.35439722463376483,-0.06481694754476694,-0.0525974492193407,0.059383191587538825,0.0156769028148929,5.0
0.4400778285718736,-0.32359093244258547,0.038808551884260606,-0.047119718789944635,0.040280998663269105,0.03834974859729687,5.0
0.4438903870114502,-0.33591344392654465,-0.004368726947830159,-0.0466217429512671,0.040280998663269105,0.06646407984938305,5.0
0.4438903870114502,-0.3451553207988731,-0.013004197830253084,-0.042139964199226096,0.04664839620357039,0.029280611044807645,5.0
0.4362652701322963,-0.3297522016658465,-0.004368726947830159,-0.04263793851948092,0.06336281527775153,0.005700850642981608,5.0
0.4438903870114502,-0.3297522016658465,0.06471488895150741,-0.04911162062623205,0.02754620327930067,0.00842159190872838,5.0
0.4362652701322963,-0.3451553207988731,-0.004368726947830159,-0.05060554738305329,0.035505450659726066,-0.0015544607816867935,5.0
0.4286401532531424,-0.3451553207988731,0.04744394718666209,-0.05309542467841256,0.023566580802551397,-0.033296442906737625,5.0
0.4438903870114502,-0.35131659002213433,0.012902139236993558,-0.06454886099627655,0.05142394420711343,-0.017878908376167412,5.0
0.4477029454510275,-0.3574778322828323,-0.02163966871267549,-0.08197800396181981,0.05858726636411092,-0.037831015139674774,5.0
0.4286401532531424,-0.3574778322828323,0.04744394718666209,-0.06255695915998913,0.06415873928771601,0.00842159190872838,5.0
0.4210150363739849,-0.3636391015060933,0.08198575513633113,-0.06106303278277357,0.034709525436298155,0.002073195621985917,5.0
0.4248275948135652,-0.3574778322828323,0.038808551884260606,-0.05060554738305329,0.002872539554986842,0.009328506009646556,5.0
0.4248275948135652,-0.3574778322828323,0.038808551884260606,-0.02919259998572384,0.00048476388470311955,0.022025299620139244,5.0
0.4553280623301814,-0.35131659002213433,-0.004368726947830159,-0.024212844635793943,0.012423634955341224,0.05467419757445451,5.0
0.4553280623301814,-0.33591344392654465,-0.013004197830253084,-0.04512781619444586,0.035505450659726066,0.041977403618292566,5.0
0.4553280623301814,-0.33591344392654465,-0.013004197830253084,-0.04960959646490958,0.030729901746085458,0.021118385864890316,5.0
0.4477029454510275,-0.3389940785381752,0.012902139236993558,-0.057577204237115626,0.02038288233576661,0.005700850642981608,5.0
0.45151550389060413,-0.332832809314914,-0.02163966871267549,-0.0730144449393151,0.04266877266504062,0.011142333520144402,5.0
0.4553280623301814,-0.34207471314980564,-0.07345234284716842,-0.07650027277321239,0.049036170357024844,0.020211472109641394,5.0
0.4438903870114502,-0.37288097837842193,-0.03027513959509781,-0.05060554738305329,0.025954354045908276,0.007514678153479457,5.0
0.4629531792093383,-0.3636391015060933,-0.02163966871267549,-0.03168247766068878,0.02754620327930067,-0.010623598334176022,5.0
0.45151550389060413,-0.3605584668944628,0.038808551884260606,-0.022718920156606776,0.056199491907290615,-0.0033682882921846373,5.0
0.39813968573652225,-0.3605584668944628,0.012902139236993558,-0.01724118896799934,0.03391360142633367,0.031094438555305484,5.0
0.4362652701322963,-0.33591344392654465,0.07335035983392965,-0.014751309774611683,0.006056235594844785,-0.002461373845597204,5.0
0.45151550389060413,-0.3451553207988731,-0.047546005779921616,-0.03716020884929621,0.012423634955341224,0.041977403618292566,5.0
0.4553280623301814,-0.3389940785381752,-0.02163966871267549,-0.04263793851948092,0.023566580802551397,0.034722093576301176,5.0
0.4591406207697611,-0.35131659002213433,-0.03027513959509781,-0.04363389019683598,0.026750279269336187,0.024746041577224515,5.0
0.4629531792093383,-0.34207471314980564,0.03017308100183837,-0.034670331174331256,-0.0003111613387247819,0.014769988973226662,5.0
0.4553280623301814,-0.3451553207988731,0.012902139236993558,-0.03915211068558363,0.034709525436298155,0.006607764398230534,5.0
0.4438903870114502,-0.35131659002213433,-0.047546005779921616,-0.044131866035513515,0.029138052512693063,0.01658381674297645,5.0
0.4286401532531424,-0.3574778322828323,-0.03027513959509781,-0.0356662813332636,0.032321752192941276,0.026559869087722364,5.0
0.4438903870114502,-0.3574778322828323,-0.004368726947830159,-0.0267027238291816,0.01560733342212601,-0.0033682882921846373,5.0
0.4438903870114502,-0.3451553207988731,-0.03027513959509781,-0.03068652750175643,0.01799510666548287,0.010235419764895478,5.0
0.4477029454510275,-0.3451553207988731,-0.004368726947830159,-0.04911162062623205,0.04346469735757828,0.0156769028148929,5.0
0.4477029454510275,-0.3482359554105036,-0.02163966871267549,-0.04263793851948092,0.06734243896796423,-0.002461373845597204,5.0
0.4400778285718736,-0.3605584668944628,-0.047546005779921616,-0.048115669708088345,0.03311767620290576,-0.0042752013560950555,5.0
0.4362652701322963,-0.34207471314980564,-0.03027513959509781,-0.06853266542806273,0.05779134235414644,-0.0006475463350993602,5.0
0.4438903870114502,-0.35131659002213433,0.038808551884260606,-0.07699824861188992,0.06256689005432362,-0.00699594331318033,5.0
0.4362652701322963,-0.3574778322828323,-0.013004197830253084,-0.0834719299594297,0.07848538481517442,-0.014251253355171715,5.0
0.4438903870114502,-0.366719736117724,-0.004368726947830159,-0.08596180915281736,0.061770964830895704,0.017490730498225374,5.0
0.4553280623301814,-0.366719736117724,-0.03027513959509781,-0.06405088591681038,0.053811718663933736,0.0029801086858963323,5.0
0.45151550389060413,-0.3636391015060933,-0.10799415079683757,-0.042139964199226096,0.049036170357024844,-0.014251253355171715,5.0
0.4477029454510275,-0.3605584668944628,-0.038910534897499294,-0.034670331174331256,0.03789322450981466,0.0156769028148929,5.0
0.45151550389060413,-0.3451553207988731,-0.07345234284716842,-0.016743213129321814,0.03391360142633367,-0.00699594331318033,5.0
0.4477029454510275,-0.3451553207988731,-0.06481694754476694,-0.028196648308368773,0.0418728478966615,0.020211472109641394,5.0
0.4477029454510275,-0.3451553207988731,-0.06481694754476694,-0.03218045349936632,0.049832094973721035,0.032908266065803334,5.0
0.4591406207697611,-0.3605584668944628,-0.10799415079683757,-0.04114401252187103,0.06813836176446528,0.00842159190872838,5.0
0.4629531792093383,-0.37288097837842193,-0.038910534897499294,-0.04114401252187103,0.09201610147881463,-0.0006475463350993602,5.0
0.4629531792093383,-0.37288097837842193,-0.038910534897499294,-0.03815615900822856,0.10475090019980747,0.0047939368877326855,5.0
0.4553280623301814,-0.366719736117724,0.03017308100183837,-0.028196648308368773,0.09679165281938207,0.00842159190872838,5.0
0.4438903870114502,-0.3605584668944628,-0.013004197830253084,-0.019731065124541574,0.07291391067810588,0.020211472109641394,5.0
0.4362652701322963,-0.3574778322828323,-0.03027513959509781,-0.029690575824401367,0.07370983590153381,0.05376728312786706,5.0
0.45151550389060413,-0.3482359554105036,-0.047546005779921616,-0.032678429338043845,0.0983835032662379,0.04016357749047173,5.0
0.45151550389060413,-0.3482359554105036,-0.047546005779921616,-0.051103522462519466,0.09997534885924002,0.05376728312786706,5.0
0.4477029454510275,-0.3389940785381752,-0.02163966871267549,-0.047119718789944635,0.0824650085053871,0.036535921086799025,5.0
0.4438903870114502,-0.3482359554105036,-0.02163966871267549,-0.044131866035513515,0.06734243896796423,0.01658381674297645,5.0
0.4400778285718736,-0.3574778322828323,-0.047546005779921616,-0.032678429338043845,0.07132206265817694,0.010235419764895478,5.0
0.4553280623301814,-0.34207471314980564,-0.056181476662344625,-0.05060554738305329,0.08644462976867294,0.019304558354392473,5.0
0.45151550389060413,-0.34207471314980564,-0.03027513959509781,-0.04960959646490958,0.0657505885211084,0.009328506009646556,5.0
0.4400778285718736,-0.3451553207988731,-0.02163966871267549,-0.06554481267363162,0.053015793440505825,0.020211472109641394,5.0
0.4438903870114502,-0.35131659002213433,-0.004368726947830159,-0.033674379496976194,0.036301375276422264,0.0392566630438843,5.0
0.4438903870114502,-0.3605584668944628,-0.013004197830253084,-0.025208796313149012,0.059383191587538825,0.03562900802288861,5.0
0.4477029454510275,-0.35131659002213433,0.038808551884260606,-0.01624523729064429,0.05779134235414644,0.02837369659822021,5.0
0.4400778285718736,-0.35439722463376483,-0.02163966871267549,-0.016743213129321814,0.06654651374453631,0.05286037144663369,5.0
0.4477029454510275,-0.3605584668944628,-0.02163966871267549,-0.016743213129321814,0.0410769232799653,0.0047939368877326855,5.0
0.45151550389060413,-0.3451553207988731,-0.06481694754476694,-0.0267027238291816,0.034709525436298155,0.018397644253474295,5.0
0.4477029454510275,-0.3297522016658465,0.004266668354571323,-0.03815615900822856,0.026750279269336187,0.026559869087722364,5.0
0.4438903870114502,-0.320510297830955,-0.03027513959509781,-0.05907113075668332,0.0410769232799653,0.026559869087722364,5.0
0.4477029454510275,-0.32359093244258547,0.04744394718666209,-0.07002659142567262,0.07450576112496171,0.006607764398230534,5.0
0.4400778285718736,-0.33591344392654465,0.021537610119415965,-0.06255695915998913,0.0689342869878932,-0.013344338908584285,5.0
0.4477029454510275,-0.332832809314914,0.06471488895150741,-0.0680346895893852,0.0689342869878932,0.01295616128989419,5.0
0.4477029454510275,-0.3451553207988731,0.03017308100183837,-0.05209947376026885,0.06017911559750331,-0.0033682882921846373,5.0
0.4400778285718736,-0.3482359554105036,0.038808551884260606,-0.025706772151826537,0.0418728478966615,-0.017878908376167412,5.0
0.4438903870114502,-0.33591344392654465,0.04744394718666209,-0.007281678268139554,0.034709525436298155,0.0011662811753984886,5.0
0.4324527116927197,-0.34207471314980564,0.056079418069085014,-0.007779654106817097,0.04346469735757828,0.023839127130637086,5.0
0.4477029454510275,-0.3389940785381752,0.056079418069085014,-0.027698672469691245,0.05142394420711343,-0.013344338908584285,5.0
0.4438903870114502,-0.3297522016658465,0.038808551884260606,-0.05608327771754794,0.05460764267389822,0.025652954641134932,5.0
0.4438903870114502,-0.32359093244258547,-0.06481694754476694,-0.05508732670450281,0.0418728478966615,0.024746041577224515,5.0
0.4438903870114502,-0.31434905557025683,-0.004368726947830159,-0.07052456726435015,0.056995417130718526,0.014769988973226662,5.0
0.4362652701322963,-0.332832809314914,-0.03027513959509781,-0.09044358866406972,0.0418728478966615,0.00842159190872838,5.0
0.4438903870114502,-0.32359093244258547,0.012902139236993558,-0.11086058286562141,0.048240245436962786,0.018397644253474295,5.0
0.45151550389060413,-0.3389940785381752,-0.038910534897499294,-0.10538285167701397,0.02834212850272858,0.010235419764895478,5.0
0.4629531792093383,-0.35439722463376483,-0.06481694754476694,-0.10637880335436904,0.035505450659726066,0.042884318064879995,5.0
0.4477029454510275,-0.366719736117724,-0.038910534897499294,-0.08446788163678476,0.038689149126510856,0.06011568148862507,5.0
0.4438903870114502,-0.37288097837842193,-0.004368726947830159,-0.06504683683495407,0.03789322450981466,0.06918481765843727,5.0
0.4438903870114502,-0.37288097837842193,-0.004368726947830159,-0.04761769386941081,0.04505654674265361,0.06011568148862507,5.0
0.4438903870114502,-0.37288097837842193,-0.038910534897499294,-0.023216892958438873,0.04346469735757828,0.06646407984938305,5.0
0.4477029454510275,-0.37288097837842193,-0.013004197830253084,-0.0037958504342422727,0.04744432082026659,0.06737099429597046,5.0
0.4438903870114502,-0.3605584668944628,-0.004368726947830159,-0.002301922918209667,0.023566580802551397,0.07916087104019096,5.0
0.4477029454510275,-0.3482359554105036,-0.004368726947830159,-0.02022904096321912,0.017199181442054963,0.1036475445059274,5.0
0.4477029454510275,-0.3482359554105036,-0.02163966871267549,-0.04014806084451597,0.010831784508485393,0.09639223446393601,5.0
0.45151550389060413,-0.35131659002213433,-0.06481694754476694,-0.06305493499866667,0.02436250481251588,0.10999594010133135,5.0
0.4553280623301814,-0.366719736117724,-0.09072328461201307,-0.0525974492193407,0.0657505885211084,0.11271668344109363,5.0
0.4324527116927197,-0.3913647590856421,-0.02163966871267549,-0.036662233010618675,0.031525826969513365,0.11634434122744337,5.0
0.4400778285718736,-0.3821228822133135,-0.047546005779921616,-0.0267027238291816,0.03789322450981466,0.13629644799095073,5.0
0.4400778285718736,-0.3574778322828323,-0.09935875549443599,-0.0003100195634995408,0.012423634955341224,0.1544347258612832,5.0
0.4553280623301814,-0.366719736117724,-0.03027513959509781,-0.0003100195634995408,-0.0011070865621527104,0.13720336243753817,5.0
0.4438903870114502,-0.3759616129900525,-0.02163966871267549,0.02757660918136969,-0.03453592167685639,0.10636828784568969,5.0
0.45151550389060413,-0.3821228822133135,-0.047546005779921616,0.04699765474241173,-0.041699243833853886,0.07099864655161213,5.0
0.4629531792093383,-0.37288097837842193,-0.02163966871267549,0.05297335265916044,-0.01145410475900813,0.0392566630438843,5.0
0.4629531792093383,-0.35439722463376483,0.012902139236993558,0.0006859321138555222,0.04505654674265361,-0.01969273726934228,5.0
0.4591406207697611,-0.366719736117724,-0.047546005779921616,-0.035168307013008805,0.09599572759595418,-0.06866608420081517,5.0
0.4248275948135652,-0.3605584668944628,0.021537610119415965,-0.044131866035513515,0.15011860881207614,-0.10131498215513043,5.0
0.4362652701322963,-0.34207471314980564,-0.02163966871267549,-0.06056505732370172,0.15250638448235987,-0.10403572549489272,5.0
0.45151550389060413,-0.320510297830955,0.004266668354571323,-0.055585302163574664,0.15728192611521988,-0.13668462344920798,5.0
0.4438903870114502,-0.32359093244258547,0.09062122601875354,-0.06952861634620644,0.08564870454524505,-0.08136287539162308,5.0
0.4438903870114502,-0.3482359554105036,0.012902139236993558,-0.06305493499866667,0.035505450659726066,-0.026948047311333656,5.0
0.4438903870114502,-0.3482359554105036,0.012902139236993558,-0.033176403658298666,0.011627709731913299,0.030187524108718056,5.0
0.4362652701322963,-0.37288097837842193,0.08198575513633113,-0.006783702429462034,0.00923993648855644,0.06555716540279562,5.0
0.4286401532531424,-0.3451553207988731,0.07335035983392965,0.010147466975037777,0.02277065557912349,0.10001989225028576,5.0
0.4324527116927197,-0.31126842095862634,0.07335035983392965,-0.0057877537889523874,0.029933977736120974,0.14808632473517122,5.0
0.4286401532531424,-0.30818779982827743,0.03017308100183837,-0.04761769386941081,0.0195869571123387,0.168945345945266,5.0
0.4324527116927197,-0.3020265440862978,0.004266668354571323,-0.07351242077799262,0.025158428822480365,0.1508070680749335,5.0
0.4438903870114502,-0.32359093244258547,0.04744394718666209,-0.10090107216576162,-0.014637805652719754,0.132668790204601,5.0
0.45151550389060413,-0.31742969018188755,-0.013004197830253084,-0.12231402108151378,-0.009862259166006018,0.10183371561275253,5.0
0.45151550389060413,-0.31742969018188755,-0.013004197830253084,-0.15269052901977068,0.005260312798343724,0.09276457667758631,5.0
0.4400778285718736,-0.33591344392654465,-0.02163966871267549,-0.16563788867800477,0.006056235594844785,0.10455445895251485,5.0
0.4324527116927197,-0.3821228822133135,-0.02163966871267549,-0.14671481895564029,0.013219560178769121,0.0855092666355949,5.0
0.4324527116927197,-0.3821228822133135,-0.02163966871267549,-0.12131806940415872,0.01560733342212601,0.08732309552876977,5.0
0.4438903870114502,-0.3821228822133135,-0.047546005779921616,-0.07849217612792253,-0.0019030117855806119,0.10636828784568969,5.0
0.4629531792093383,-0.3821228822133135,-0.09935875549443599,-0.057577204237115626,-0.0019030117855806119,0.10908902565474392,5.0
0.4629531792093383,-0.3821228822133135,-0.09935875549443599,-0.06106303278277357,-0.0019030117855806119,0.10001989225028576,5.0
0.4591406207697611,-0.3882841244740116,-0.047546005779921616,-0.07052456726435015,0.01879103188891079,0.08913692442194462,5.0
0.4438903870114502,-0.3821228822133135,-0.09072328461201307,-0.08148002812314228,0.00923993648855644,0.0909507533151195,5.0
0.4438903870114502,-0.3821228822133135,-0.09072328461201307,-0.0864597849914949,-0.0066785582722943574,0.09911297780369831,5.0
0.4438903870114502,-0.3821228822133135,-0.08208781372959074,-0.07899015044817732,-0.0034948573785827334,0.09548532001734861,5.0
0.4438903870114502,-0.41600978205356026,-0.15117142962892893,-0.0834719299594297,0.001280689108131039,0.08732309552876977,5.0
0.4438903870114502,-0.41600978205356026,-0.15117142962892893,-0.057577204237115626,-0.0011070865621527104,0.10908902565474392,5.0
0.45151550389060413,-0.4406548050214786,-0.11662962167925987,-0.027698672469691245,-0.004290782602010635,0.1172512556740308,5.0
0.4438903870114502,-0.4529773165054375,-0.09935875549443599,0.01960900183622003,-0.020209277362861426,0.11362359788768107,5.0
0.4553280623301814,-0.46529982798939673,-0.11662962167925987,0.06641869422976293,-0.0034948573785827334,0.09276457667758631,5.0
0.4553280623301814,-0.4468160472821765,-0.10799415079683757,0.09779115384537487,0.006852160818272686,0.09911297780369831,5.0
0.4591406207697611,-0.4252516589258889,-0.10799415079683757,0.10426483367449194,0.029138052512693063,0.11815817012061826,5.0
0.466765737648915,-0.41600978205356026,-0.15117142962892893,0.07040250093918318,0.04664839620357039,0.06555716540279562,5.0
0.4629531792093383,-0.3852034898623809,-0.1252650925616822,0.022098874955916843,0.04585247143519127,0.03381517912971375,5.0
0.45151550389060413,-0.35131659002213433,-0.10799415079683757,-0.044131866035513515,0.06097504082093122,0.02293221337538817,5.0
0.4286401532531424,-0.3389940785381752,-0.09072328461201307,-0.10438690303650433,0.061770964830895704,0.010235419764895478,5.0
0.4286401532531424,-0.3389940785381752,-0.038910534897499294,-0.12032211772680365,0.025954354045908276,0.006607764398230534,5.0
0.4362652701322963,-0.3636391015060933,0.04744394718666209,-0.09143953730457936,0.025158428822480365,0.032001351619215905,5.0
0.45151550389060413,-0.37288097837842193,0.04744394718666209,-0.07699824861188992,0.02197473035569558,0.030187524108718056,5.0
0.4438903870114502,-0.3882841244740116,-0.038910534897499294,-0.04761769386941081,0.048240245436962786,0.023839127130637086,5.0
0.4553280623301814,-0.4036872705696011,-0.013004197830253084,-0.01176345777939192,0.07052613743474902,0.027466782151632778,5.0
0.4438903870114502,-0.41600978205356026,0.038808551884260606,0.023094826633271916,0.04266877266504062,0.01658381674297645,5.0
0.4210150363739849,-0.41600978205356026,-0.004368726947830159,0.048989558097121855,0.02754620327930067,-0.005182115802682484,5.0
0.4248275948135652,-0.4036872705696011,-0.004368726947830159,0.05745514128094905,0.013219560178769121,0.005700850642981608,5.0
0.4438903870114502,-0.3821228822133135,0.012902139236993558,0.026082681665337094,0.04505654674265361,0.041977403618292566,5.0
0.4553280623301814,-0.366719736117724,-0.047546005779921616,0.008155563620327662,0.059383191587538825,0.0156769028148929,5.0
0.45151550389060413,-0.366719736117724,-0.09072328461201307,-0.01574726145196675,0.03789322450981466,0.018397644253474295,5.0
0.4438903870114502,-0.3698003437667915,0.004266668354571323,-0.05907113075668332,0.04585247143519127,0.025652954641134932,5.0
0.4248275948135652,-0.37288097837842193,-0.1252650925616822,-0.05807517974363819,0.04585247143519127,0.021118385864890316,5.0
0.4400778285718736,-0.37288097837842193,-0.09072328461201307,-0.0680346895893852,0.040280998663269105,0.00842159190872838,5.0
0.4400778285718736,-0.379042247601683,-0.06481694754476694,-0.0680346895893852,0.031525826969513365,0.032908266065803334,5.0
0.45151550389060413,-0.379042247601683,-0.056181476662344625,-0.08396990579810723,0.036301375276422264,0.0392566630438843,5.0
0.4438903870114502,-0.3913647590856421,-0.09072328461201307,-0.09044358866406972,0.017199181442054963,0.036535921086799025,5.0
0.4477029454510275,-0.4067679051812318,-0.07345234284716842,-0.10090107216576162,0.035505450659726066,0.024746041577224515,5.0
0.4400778285718736,-0.4067679051812318,-0.11662962167925987,-0.07948812628685487,0.025954354045908276,0.03562900802288861,5.0
0.4438903870114502,-0.4067679051812318,-0.08208781372959074,-0.05907113075668332,0.03709729989311846,0.034722093576301176,5.0
0.4400778285718736,-0.41600978205356026,-0.10799415079683757,-0.061561008241845426,0.014015482975270182,0.021118385864890316,5.0
0.4400778285718736,-0.4129291474419297,-0.15117142962892893,-0.06205898370091728,0.029933977736120974,0.025652954641134932,5.0
0.4324527116927197,-0.3882841244740116,-0.11662962167925987,-0.05359340013748441,0.03789322450981466,0.002073195621985917,5.0
0.4438903870114502,-0.3944453936972726,-0.10799415079683757,-0.058573155297611465,0.035505450659726066,0.01658381674297645,5.0
0.4438903870114502,-0.3882841244740116,-0.013004197830253084,-0.048115669708088345,0.01879103188891079,0.03834974859729687,5.0
0.4438903870114502,-0.3944453936972726,-0.047546005779921616,-0.046123767871800926,0.04346469735757828,0.014769988973226662,5.0
0.4400778285718736,-0.39752600134634003,-0.038910534897499294,-0.0456257920331234,0.05460764267389822,0.02837369659822021,5.0
0.4438903870114502,-0.3913647590856421,-0.02163966871267549,-0.042139964199226096,0.04346469735757828,0.0047939368877326855,5.0
0.4324527116927197,-0.3913647590856421,-0.047546005779921616,-0.035168307013008805,0.02197473035569558,0.03562900802288861,5.0
0.4400778285718736,-0.3944453936972726,0.012902139236993558,-0.03168247766068878,0.0418728478966615,0.020211472109641394,5.0
0.4477029454510275,-0.3913647590856421,-0.004368726947830159,-0.01873511344718652,0.03311767620290576,0.030187524108718056,5.0
0.4477029454510275,-0.3944453936972726,-0.09072328461201307,-0.030188551663078902,0.04346469735757828,0.010235419764895478,5.0
0.4400778285718736,-0.3852034898623809,-0.047546005779921616,-0.03168247766068878,0.04505654674265361,-0.0033682882921846373,5.0
0.4438903870114502,-0.3821228822133135,-0.06481694754476694,-0.044131866035513515,0.02197473035569558,-0.013344338908584285,5.0
0.4438903870114502,-0.37288097837842193,-0.056181476662344625,-0.0356662813332636,0.048240245436962786,0.0029801086858963323,5.0
0.4438903870114502,-0.3821228822133135,-0.09072328461201307,-0.05209947376026885,0.04505654674265361,0.029280611044807645,5.0
0.4438903870114502,-0.39752600134634003,-0.06481694754476694,-0.050107571544375756,0.07450576112496171,0.005700850642981608,5.0
0.4629531792093383,-0.39752600134634003,-0.10799415079683757,-0.05309542467841256,0.056199491907290615,0.002073195621985917,5.0
0.4553280623301814,-0.39752600134634003,-0.10799415079683757,-0.059569106215755174,0.06017911559750331,-0.008809770823678174,5.0
0.4438903870114502,-0.379042247601683,-0.047546005779921616,-0.050107571544375756,0.053015793440505825,-0.011530512780763454,5.0
0.4400778285718736,-0.3759616129900525,-0.10799415079683757,-0.0525974492193407,0.05540356789732613,0.009328506009646556,5.0
0.4477029454510275,-0.39752600134634003,-0.07345234284716842,-0.027698672469691245,0.06654651374453631,-0.0006475463350993602,5.0
0.45151550389060413,-0.4036872705696011,-0.047546005779921616,-0.023216892958438873,0.0657505885211084,0.0011662811753984886,5.0
0.4477029454510275,-0.4036872705696011,-0.06481694754476694,-0.009771554424681783,0.06097504082093122,0.014769988973226662,5.0
0.4438903870114502,-0.3821228822133135,-0.10799415079683757,-0.019731065124541574,0.05221986882380963,-0.002461373845597204,5.0
0.45151550389060413,-0.37288097837842193,-0.03027513959509781,-0.03417235533565373,0.06256689005432362,-0.0033682882921846373,5.0
0.4438903870114502,-0.3821228822133135,-0.004368726947830159,-0.04462984111497969,0.05779134235414644,-0.00699594331318033,5.0
0.4438903870114502,-0.3913647590856421,-0.047546005779921616,-0.04761769386941081,0.05142394420711343,0.01658381674297645,5.0
0.4438903870114502,-0.3913647590856421,-0.047546005779921616,-0.03915211068558363,0.04266877266504062,0.009328506009646556,5.0
0.4553280623301814,-0.3821228822133135,-0.09935875549443599,-0.03815615900822856,0.049832094973721035,-0.015158167801759145,5.0
0.4362652701322963,-0.3821228822133135,-0.09072328461201307,-0.06355291007813284,0.05779134235414644,-0.0015544607816867935,5.0
0.4362652701322963,-0.3821228822133135,-0.09072328461201307,-0.05060554738305329,0.05062801959041723,-0.00699594331318033,5.0
0.4438903870114502,-0.4036872705696011,-0.004368726947830159,-0.03765818468797374,0.03709729989311846,-0.011530512780763454,5.0
0.4477029454510275,-0.39752600134634003,-0.047546005779921616,-0.023714868797116404,0.049832094973721035,0.002073195621985917,5.0
0.4477029454510275,-0.39752600134634003,-0.047546005779921616,-0.03218045349936632,0.048240245436962786,-0.015158167801759145,5.0
0.4591406207697611,-0.3821228822133135,-0.07345234284716842,-0.048115669708088345,0.08883240543895668,-0.010623598334176022,5.0
0.4286401532531424,-0.379042247601683,-0.07345234284716842,-0.0670387386712415,0.05460764267389822,0.0038870231324837634,5.0
0.4438903870114502,-0.3821228822133135,-0.10799415079683757,-0.05359340013748441,0.05062801959041723,-0.033296442906737625,5.0
0.4438903870114502,-0.379042247601683,-0.056181476662344625,-0.04164198836054857,0.06734243896796423,-0.00699594331318033,5.0
0.45151550389060413,-0.3882841244740116,-0.06481694754476694,-0.047119718789944635,0.07052613743474902,-0.0006475463350993602,5.0
0.4400778285718736,-0.3852034898623809,-0.07345234284716842,-0.036662233010618675,0.06734243896796423,-0.015158167801759145,5.0
0.4477029454510275,-0.37288097837842193,-0.06481694754476694,-0.05807517974363819,0.06256689005432362,-0.011530512780763454,5.0
0.4553280623301814,-0.366719736117724,-0.07345234284716842,-0.061561008241845426,0.06097504082093122,-0.0042752013560950555,5.0
0.4438903870114502,-0.379042247601683,-0.056181476662344625,-0.04960959646490958,0.032321752192941276,0.024746041577224515,5.0
0.4362652701322963,-0.3759616129900525,-0.02163966871267549,-0.04911162062623205,0.03391360142633367,0.0392566630438843,5.0
0.4477029454510275,-0.3944453936972726,-0.038910534897499294,-0.04462984111497969,0.036301375276422264,0.032908266065803334,5.0
0.4553280623301814,-0.3944453936972726,-0.10799415079683757,-0.04911162062623205,0.06097504082093122,0.005700850642981608,5.0
0.4553280623301814,-0.3852034898623809,-0.09072328461201307,-0.04960959646490958,0.05142394420711343,-0.01969273726934228,5.0
0.4438903870114502,-0.37288097837842193,-0.09072328461201307,-0.057577204237115626,0.04505654674265361,-0.0205996517159297,5.0
0.4438903870114502,-0.3636391015060933,-0.07345234284716842,-0.0565812532240705,0.039485073743207054,-0.010623598334176022,5.0
0.45151550389060413,-0.3913647590856421,-0.06481694754476694,-0.05458935124543096,0.04664839620357039,-0.023320392290337964,5.0
0.4438903870114502,-0.3882841244740116,-0.09072328461201307,-0.051103522462519466,0.05142394420711343,-0.002461373845597204,5.0
0.45151550389060413,-0.3882841244740116,-0.09935875549443599,-0.06554481267363162,0.07928130761167546,-0.01969273726934228,5.0
0.4477029454510275,-0.3882841244740116,-0.15980690051135124,-0.05309542467841256,0.0768935343683186,0.01295616128989419,5.0
0.45151550389060413,-0.39752600134634003,-0.10799415079683757,-0.03865413484690609,0.08166908328195921,0.017490730498225374,5.0
0.4553280623301814,-0.4036872705696011,-0.09072328461201307,0.0036737810722298667,0.07291391067810588,-0.014251253355171715,5.0
0.4553280623301814,-0.4036872705696011,-0.15117142962892893,0.02508672998798203,0.08326093130188818,-0.025134221183512835,5.0
0.4438903870114502,-0.3944453936972726,-0.13390056344410453,0.022098874955916843,0.06495466329768049,-0.03148261677891677,5.0
0.4438903870114502,-0.3636391015060933,-0.07345234284716842,-0.008277629945494617,0.07132206265817694,-0.03148261677891677,5.0
0.4362652701322963,-0.35439722463376483,-0.08208781372959074,-0.03218045349936632,0.07530168392146278,-0.027854961757921078,5.0
0.4362652701322963,-0.35131659002213433,-0.08208781372959074,-0.07550432261428004,0.07848538481517442,-0.022413477843750522,5.0
0.4477029454510275,-0.34207471314980564,-0.038910534897499294,-0.11235451038165399,0.07291391067810588,-0.03511027179991246,5.0
0.4477029454510275,-0.35131659002213433,-0.047546005779921616,-0.12380794859754637,0.07450576112496171,-0.04508632518166616,5.0
0.4591406207697611,-0.3605584668944628,-0.004368726947830159,-0.13077960426534097,0.061770964830895704,-0.021506563397163104,5.0
0.4553280623301814,-0.3913647590856421,-0.02163966871267549,-0.11036260702694387,0.10077127408266791,-0.02966879065109595,5.0
0.4438903870114502,-0.4006066359579706,0.03017308100183837,-0.08297395412075217,0.09281202670224252,-0.0042752013560950555,5.0
0.4438903870114502,-0.4067679051812318,-0.03027513959509781,-0.057577204237115626,0.05062801959041723,-0.011530512780763454,5.0
0.4438903870114502,-0.3944453936972726,-0.047546005779921616,-0.017739164806676883,0.06813836176446528,-0.03057570233232935,5.0
0.4553280623301814,-0.3821228822133135,-0.09935875549443599,-0.0037958504342422727,0.06415873928771601,-0.018785822822754827,5.0
0.4438903870114502,-0.37288097837842193,-0.047546005779921616,0.007657587781650119,0.05142394420711343,0.006607764398230534,5.0
0.4438903870114502,-0.3636391015060933,-0.047546005779921616,-0.0008079954021770723,0.06654651374453631,-0.013344338908584285,5.0
0.4362652701322963,-0.3605584668944628,-0.06481694754476694,-0.004293826272919793,0.05221986882380963,0.007514678153479457,5.0
0.4400778285718736,-0.3451553207988731,-0.004368726947830159,-0.024212844635793943,0.059383191587538825,-0.016971996694934013,5.0
0.4477029454510275,-0.3482359554105036,-0.02163966871267549,-0.033674379496976194,0.04585247143519127,-0.022413477843750522,5.0
0.45151550389060413,-0.35439722463376483,0.012902139236993558,-0.06305493499866667,0.04744432082026659,0.032908266065803334,5.0
0.4438903870114502,-0.3451553207988731,0.03017308100183837,-0.06006708186462987,0.03311767620290576,0.019304558354392473,5.0
0.4553280623301814,-0.366719736117724,0.03017308100183837,-0.05907113075668332,0.06734243896796423,0.002073195621985917,5.0
0.4400778285718736,-0.3698003437667915,-0.013004197830253084,-0.0670387386712415,0.08564870454524505,0.006607764398230534,5.0
0.4477029454510275,-0.3882841244740116,-0.06481694754476694,-0.04313591435815845,0.061770964830895704,0.020211472109641394,5.0
0.4400778285718736,-0.3636391015060933,-0.047546005779921616,-0.046123767871800926,0.049832094973721035,0.026559869087722364,5.0
0.4438903870114502,-0.35439722463376483,0.012902139236993558,-0.0356662813332636,0.04744432082026659,0.0392566630438843,5.0
0.4477029454510275,-0.3698003437667915,-0.004368726947830159,-0.04363389019683598,0.04346469735757828,0.01295616128989419,5.0
0.4362652701322963,-0.3759616129900525,-0.004368726947830159,-0.04861364478755452,0.04585247143519127,0.024746041577224515,5.0
0.4324527116927197,-0.37288097837842193,-0.02163966871267549,-0.029690575824401367,0.01799510666548287,0.005700850642981608,5.0
0.4362652701322963,-0.3605584668944628,-0.013004197830253084,-0.03965008652426115,0.030729901746085458,0.014769988973226662,5.0
0.4438903870114502,-0.35131659002213433,-0.03027513959509781,-0.057577204237115626,0.05460764267389822,0.019304558354392473,5.0
0.4438903870114502,-0.3482359554105036,-0.004368726947830159,-0.07201849326196003,0.05858726636411092,0.03562900802288861,5.0
0.4438903870114502,-0.3605584668944628,-0.004368726947830159,-0.06255695915998913,0.06415873928771601,0.032001351619215905,5.0
0.4400778285718736,-0.3636391015060933,-0.013004197830253084,-0.0670387386712415,0.06256689005432362,0.02837369659822021,5.0
0.4400778285718736,-0.3698003437667915,-0.004368726947830159,-0.05359340013748441,0.056995417130718526,-0.0042752013560950555,5.0
0.45151550389060413,-0.366719736117724,0.012902139236993558,-0.057577204237115626,0.03391360142633367,0.006607764398230534,5.0
0.45151550389060413,-0.366719736117724,0.012902139236993558,-0.046123767871800926,0.04266877266504062,0.02837369659822021,5.0
0.4438903870114502,-0.3605584668944628,-0.013004197830253084,-0.04263793851948092,0.04585247143519127,-0.002461373845597204,5.0
0.4438903870114502,-0.3605584668944628,-0.013004197830253084,-0.029690575824401367,0.040280998663269105,0.02293221337538817,5.0
0.4477029454510275,-0.3605584668944628,-0.06481694754476694,-0.025706772151826537,0.04585247143519127,0.01295616128989419,5.0
0.4438903870114502,-0.3605584668944628,-0.038910534897499294,-0.042139964199226096,0.04664839620357039,0.01658381674297645,5.0
0.4438903870114502,-0.3636391015060933,-0.02163966871267549,-0.046123767871800926,0.04266877266504062,0.007514678153479457,5.0
0.45151550389060413,-0.366719736117724,-0.038910534897499294,-0.0356662813332636,0.040280998663269105,-0.0042752013560950555,5.0
0.4477029454510275,-0.3636391015060933,-0.06481694754476694,-0.042139964199226096,0.04505654674265361,0.014769988973226662,5.0
0.4438903870114502,-0.37288097837842193,0.038808551884260606,-0.04313591435815845,0.03789322450981466,0.021118385864890316,5.0
0.4286401532531424,-0.366719736117724,-0.004368726947830159,-0.029690575824401367,0.025954354045908276,0.002073195621985917,5.0
0.4362652701322963,-0.3482359554105036,-0.02163966871267549,-0.04014806084451597,0.03709729989311846,0.00025936811148807073,5.0
0.4438903870114502,-0.3636391015060933,-0.038910534897499294,-0.05309542467841256,0.03391360142633367,-0.0033682882921846373,5.0
0.4438903870114502,-0.3574778322828323,-0.07345234284716842,-0.051103522462519466,0.049036170357024844,0.0011662811753984886,5.0
0.4477029454510275,-0.35131659002213433,-0.10799415079683757,-0.06006708186462987,0.061770964830895704,-0.0042752013560950555,5.0
0.4438903870114502,-0.35439722463376483,-0.08208781372959074,-0.05458935124543096,0.05540356789732613,-0.014251253355171715,5.0
0.4553280623301814,-0.3636391015060933,-0.06481694754476694,-0.048115669708088345,0.06017911559750331,-0.015158167801759145,5.0
0.4362652701322963,-0.3605584668944628,-0.047546005779921616,-0.047119718789944635,0.061770964830895704,0.007514678153479457,5.0
0.4362652701322963,-0.366719736117724,-0.047546005779921616,-0.04164198836054857,0.029138052512693063,0.012049247448227952,5.0
0.4286401532531424,-0.3574778322828323,-0.038910534897499294,-0.04911162062623205,0.04744432082026659,0.032001351619215905,5.0
0.4286401532531424,-0.35439722463376483,-0.06481694754476694,-0.05608327771754794,0.056995417130718526,0.0156769028148929,5.0
0.4400778285718736,-0.35131659002213433,-0.047546005779921616,-0.07052456726435015,0.05540356789732613,-0.008809770823678174,5.0
0.4438903870114502,-0.35439722463376483,0.012902139236993558,-0.07600229845295757,0.03311767620290576,0.018397644253474295,5.0
0.4438903870114502,-0.3605584668944628,-0.02163966871267549,-0.08396990579810723,0.05142394420711343,0.007514678153479457,5.0
0.4400778285718736,-0.35131659002213433,-0.004368726947830159,-0.0834719299594297,0.038689149126510856,0.006607764398230534,5.0
0.4362652701322963,-0.35131659002213433,-0.004368726947830159,-0.07749622445056746,0.056199491907290615,0.036535921086799025,5.0
0.4553280623301814,-0.3698003437667915,-0.038910534897499294,-0.07201849326196003,0.0689342869878932,0.045605058639288265,5.0
0.4629531792093383,-0.3821228822133135,0.038808551884260606,-0.04960959646490958,0.04505654674265361,0.00842159190872838,5.0
0.4438903870114502,-0.3852034898623809,0.056079418069085014,-0.03915211068558363,0.011627709731913299,0.0011662811753984886,5.0
0.4362652701322963,-0.3636391015060933,-0.047546005779921616,-0.03965008652426115,0.0195869571123387,-0.013344338908584285,5.0
0.4553280623301814,-0.35131659002213433,-0.047546005779921616,-0.036662233010618675,0.04664839620357039,0.036535921086799025,5.0
0.4438903870114502,-0.366719736117724,-0.038910534897499294,-0.04313591435815845,0.05142394420711343,0.019304558354392473,5.0
0.45151550389060413,-0.3636391015060933,-0.047546005779921616,-0.033176403658298666,0.039485073743207054,0.006607764398230534,5.0
0.4477029454510275,-0.3605584668944628,-0.038910534897499294,-0.03915211068558363,0.04346469735757828,0.0156769028148929,5.0
0.4591406207697611,-0.3759616129900525,-0.004368726947830159,-0.04462984111497969,0.031525826969513365,0.020211472109641394,5.0
0.4553280623301814,-0.37288097837842193,-0.004368726947830159,-0.04313591435815845,0.032321752192941276,-0.0033682882921846373,5.0
0.4553280623301814,-0.3852034898623809,-0.06481694754476694,-0.030188551663078902,0.05062801959041723,0.026559869087722364,5.0
0.4591406207697611,-0.3821228822133135,-0.02163966871267549,-0.02919259998572384,0.05858726636411092,-0.002461373845597204,5.0
0.4553280623301814,-0.3821228822133135,-0.038910534897499294,-0.0267027238291816,0.049832094973721035,-0.0006475463350993602,5.0
0.4324527116927197,-0.3759616129900525,-0.056181476662344625,-0.01873511344718652,0.05062801959041723,0.011142333520144402,5.0
0.4477029454510275,-0.3605584668944628,-0.038910534897499294,-0.03815615900822856,0.05779134235414644,0.027466782151632778,5.0
0.45151550389060413,-0.3636391015060933,-0.047546005779921616,-0.044131866035513515,0.05142394420711343,-0.0006475463350993602,5.0
0.4553280623301814,-0.3636391015060933,-0.038910534897499294,-0.03815615900822856,0.032321752192941276,0.04016357749047173,5.0
0.4477029454510275,-0.3698003437667915,-0.06481694754476694,-0.03716020884929621,0.049036170357024844,0.014769988973226662,5.0
0.45151550389060413,-0.3574778322828323,0.012902139236993558,-0.03168247766068878,0.03789322450981466,0.04016357749047173,5.0
0.45151550389060413,-0.3574778322828323,-0.056181476662344625,-0.0466217429512671,0.05221986882380963,0.04651197308587568,5.0
0.4477029454510275,-0.3605584668944628,-0.056181476662344625,-0.04313591435815845,0.04585247143519127,0.026559869087722364,5.0
0.4362652701322963,-0.3574778322828323,0.004266668354571323,-0.04761769386941081,0.059383191587538825,0.009328506009646556,5.0
0.4438903870114502,-0.35439722463376483,-0.004368726947830159,-0.05209947376026885,0.049036170357024844,0.022025299620139244,5.0
0.4400778285718736,-0.35131659002213433,-0.013004197830253084,-0.05209947376026885,0.05062801959041723,0.04016357749047173,5.0
0.4400778285718736,-0.35439722463376483,0.012902139236993558,-0.05807517974363819,0.03311767620290576,0.032001351619215905,5.0
0.4477029454510275,-0.3605584668944628,0.04744394718666209,-0.04761769386941081,0.03391360142633367,0.017490730498225374,5.0
0.4438903870114502,-0.35439722463376483,-0.038910534897499294,-0.04960959646490958,0.049036170357024844,0.020211472109641394,5.0
0.4553280623301814,-0.35131659002213433,-0.047546005779921616,-0.055585302163574664,0.040280998663269105,-0.011530512780763454,5.0
0.45151550389060413,-0.379042247601683,0.012902139236993558,-0.05508732670450281,0.053811718663933736,0.030187524108718056,5.0
0.4477029454510275,-0.37288097837842193,-0.004368726947830159,-0.03616425717194114,0.048240245436962786,0.021118385864890316,5.0
0.4553280623301814,-0.3605584668944628,-0.03027513959509781,-0.04263793851948092,0.05858726636411092,0.0047939368877326855,5.0
0.45151550389060413,-0.33591344392654465,-0.004368726947830159,-0.0466217429512671,0.05858726636411092,0.023839127130637086,5.0
0.4553280623301814,-0.3482359554105036,-0.07345234284716842,-0.04861364478755452,0.05858726636411092,0.032001351619215905,5.0
0.45151550389060413,-0.366719736117724,-0.10799415079683757,-0.03716020884929621,0.056199491907290615,0.036535921086799025,5.0
0.45151550389060413,-0.366719736117724,-0.10799415079683757,-0.03716020884929621,0.056199491907290615,0.036535921086799025,5.0
0.4438903870114502,-0.3759616129900525,-0.047546005779921616,-0.024212844635793943,0.049036170357024844,0.042884318064879995,5.0
0.4362652701322963,-0.3451553207988731,-0.056181476662344625,-0.024212844635793943,0.039485073743207054,0.03381517912971375,5.0
0.4591406207697611,-0.35131659002213433,-0.047546005779921616,-0.04114401252187103,0.056199491907290615,0.0029801086858963323,5.0
0.4553280623301814,-0.3605584668944628,-0.038910534897499294,-0.05807517974363819,0.06336281527775153,0.019304558354392473,5.0
0.4362652701322963,-0.3605584668944628,-0.02163966871267549,-0.06106303278277357,0.05858726636411092,0.02293221337538817,5.0
0.4400778285718736,-0.3605584668944628,-0.013004197830253084,-0.058573155297611465,0.05858726636411092,0.034722093576301176,5.0
0.4553280623301814,-0.35131659002213433,-0.047546005779921616,-0.06903064126674027,0.05142394420711343,0.019304558354392473,5.0
0.45151550389060413,-0.3605584668944628,-0.03027513959509781,-0.07600229845295757,0.06654651374453631,0.017490730498225374,5.0
0.4591406207697611,-0.3574778322828323,-0.06481694754476694,-0.08098205380288746,0.056199491907290615,0.023839127130637086,5.0
0.4553280623301814,-0.3759616129900525,-0.004368726947830159,-0.06454886099627655,0.04346469735757828,0.03562900802288861,5.0
0.4553280623301814,-0.3821228822133135,-0.013004197830253084,-0.04164198836054857,0.05858726636411092,0.04379123251146744,5.0
0.4438903870114502,-0.366719736117724,-0.047546005779921616,-0.04014806084451597,0.06415873928771601,0.021118385864890316,5.0
0.4400778285718736,-0.3636391015060933,-0.056181476662344625,-0.03915211068558363,0.05779134235414644,0.025652954641134932,5.0
0.4438903870114502,-0.35439722463376483,-0.10799415079683757,-0.05807517974363819,0.0657505885211084,0.026559869087722364,5.0
0.45151550389060413,-0.366719736117724,-0.004368726947830159,-0.05508732670450281,0.07450576112496171,0.05104654255345882,5.0
0.4553280623301814,-0.37288097837842193,0.004266668354571323,-0.04911162062623205,0.049036170357024844,0.034722093576301176,5.0
0.4477029454510275,-0.3605584668944628,0.06471488895150741,-0.0466217429512671,0.048240245436962786,0.05104654255345882,5.0
0.4438903870114502,-0.35439722463376483,0.04744394718666209,-0.04761769386941081,0.04744432082026659,0.04016357749047173,5.0
0.45151550389060413,-0.3759616129900525,-0.038910534897499294,-0.04911162062623205,0.06336281527775153,0.036535921086799025,5.0
0.45151550389060413,-0.3605584668944628,-0.047546005779921616,-0.05907113075668332,0.04585247143519127,0.031094438555305484,5.0
0.45151550389060413,-0.3636391015060933,-0.047546005779921616,-0.05209947376026885,0.06017911559750331,0.042884318064879995,5.0
0.4553280623301814,-0.3482359554105036,-0.07345234284716842,-0.05359340013748441,0.04505654674265361,0.021118385864890316,5.0
0.4591406207697611,-0.3852034898623809,-0.004368726947830159,-0.035168307013008805,0.06017911559750331,0.023839127130637086,5.0
0.4438903870114502,-0.37288097837842193,-0.004368726947830159,-0.035168307013008805,0.03709729989311846,0.021118385864890316,5.0
0.45151550389060413,-0.3636391015060933,0.012902139236993558,-0.034670331174331256,0.06256689005432362,0.02837369659822021,5.0
0.4477029454510275,-0.37288097837842193,-0.02163966871267549,-0.042139964199226096,0.05779134235414644,0.01295616128989419,5.0
0.4438903870114502,-0.366719736117724,-0.02163966871267549,-0.0356662813332636,0.04664839620357039,0.006607764398230534,5.0
0.4553280623301814,-0.366719736117724,0.012902139236993558,-0.03218045349936632,0.049832094973721035,-0.009716683887588591,5.0
0.4553280623301814,-0.366719736117724,0.012902139236993558,-0.0267027238291816,0.06097504082093122,0.036535921086799025,5.0
0.4438903870114502,-0.3636391015060933,-0.02163966871267549,-0.03168247766068878,0.08405685652531607,0.06192950761644589,5.0
0.4553280623301814,-0.3605584668944628,-0.038910534897499294,-0.07052456726435015,0.040280998663269105,0.032001351619215905,5.0
0.4553280623301814,-0.3605584668944628,-0.038910534897499294,-0.07052456726435015,0.040280998663269105,0.032001351619215905,5.0
0.4400778285718736,-0.3913647590856421,-0.02163966871267549,-0.057577204237115626,0.06017911559750331,0.05013962810687137,5.0
0.4438903870114502,-0.3913647590856421,0.004266668354571323,-0.05409137559655627,0.049832094973721035,0.02293221337538817,5.0
0.4477029454510275,-0.3882841244740116,-0.038910534897499294,-0.036662233010618675,0.04346469735757828,0.044698146958054866,5.0
0.4362652701322963,-0.3636391015060933,-0.03027513959509781,-0.028196648308368773,0.032321752192941276,0.023839127130637086,5.0
0.4400778285718736,-0.3574778322828323,0.004266668354571323,-0.055585302163574664,0.05460764267389822,0.05104654255345882,5.0
0.4362652701322963,-0.3605584668944628,-0.047546005779921616,-0.05508732670450281,0.04266877266504062,0.07916087104019096,5.0
0.4362652701322963,-0.37288097837842193,-0.03027513959509781,-0.06554481267363162,0.05062801959041723,0.05376728312786706,5.0
0.4286401532531424,-0.37288097837842193,-0.038910534897499294,-0.059569106215755174,0.05142394420711343,0.03562900802288861,5.0
0.4438903870114502,-0.366719736117724,-0.013004197830253084,-0.051103522462519466,0.04744432082026659,0.0392566630438843,5.0
0.4400778285718736,-0.37288097837842193,0.056079418069085014,-0.051103522462519466,0.02436250481251588,0.02837369659822021,5.0
0.4438903870114502,-0.37288097837842193,0.004266668354571323,-0.04014806084451597,0.03789322450981466,0.04832580197905055,5.0
0.4362652701322963,-0.3821228822133135,-0.038910534897499294,-0.033674379496976194,0.034709525436298155,0.03562900802288861,5.0
0.45151550389060413,-0.37288097837842193,-0.038910534897499294,-0.02919259998572384,0.03391360142633367,0.025652954641134932,5.0
0.4438903870114502,-0.3636391015060933,-0.038910534897499294,-0.028196648308368773,0.0418728478966615,0.03834974859729687,5.0
0.4553280623301814,-0.3636391015060933,-0.004368726947830159,-0.03168247766068878,0.02436250481251588,0.032001351619215905,5.0
0.45151550389060413,-0.37288097837842193,-0.06481694754476694,-0.042139964199226096,0.006056235594844785,0.06918481765843727,5.0
0.4477029454510275,-0.379042247601683,-0.056181476662344625,-0.035168307013008805,0.031525826969513365,0.04832580197905055,5.0
0.4553280623301814,-0.3882841244740116,-0.004368726947830159,-0.025208796313149012,0.02834212850272858,0.04379123251146744,5.0
0.45151550389060413,-0.3913647590856421,-0.013004197830253084,-0.02919259998572384,0.04266877266504062,0.026559869087722364,5.0
0.4553280623301814,-0.37288097837842193,-0.09072328461201307,-0.03168247766068878,0.04585247143519127,0.006607764398230534,5.0
0.4477029454510275,-0.37288097837842193,-0.038910534897499294,-0.04960959646490958,0.02277065557912349,0.034722093576301176,5.0
0.4477029454510275,-0.3821228822133135,-0.047546005779921616,-0.048115669708088345,0.02038288233576661,0.006607764398230534,5.0
0.4477029454510275,-0.3821228822133135,-0.013004197830253084,-0.047119718789944635,0.04744432082026659,0.0011662811753984886,5.0
0.4438903870114502,-0.379042247601683,-0.047546005779921616,-0.04462984111497969,0.048240245436962786,0.01658381674297645,5.0
0.4553280623301814,-0.3821228822133135,-0.047546005779921616,-0.06305493499866667,0.03709729989311846,-0.018785822822754827,5.0
0.4400778285718736,-0.3636391015060933,-0.013004197830253084,-0.0670387386712415,0.06336281527775153,-0.015158167801759145,5.0
0.4438903870114502,-0.3636391015060933,-0.03027513959509781,-0.09791322017054185,0.07291391067810588,-0.026041132864746207,5.0
0.4438903870114502,-0.3636391015060933,-0.03027513959509781,-0.11882819021077107,0.06654651374453631,-0.017878908376167412,5.0
0.4438903870114502,-0.3574778322828323,-0.056181476662344625,-0.09990512352525198,0.053811718663933736,-0.002461373845597204,5.0
0.4438903870114502,-0.37288097837842193,-0.02163966871267549,-0.09890917184789691,0.049036170357024844,0.007514678153479457,5.0
0.4438903870114502,-0.37288097837842193,-0.02163966871267549,-0.09741524433186431,0.04585247143519127,-0.0006475463350993602,5.0
0.4629531792093383,-0.3821228822133135,-0.013004197830253084,-0.08098205380288746,0.0418728478966615,0.026559869087722364,5.0
0.4438903870114502,-0.3821228822133135,-0.004368726947830159,-0.06454886099627655,0.032321752192941276,0.021118385864890316,5.0
0.4362652701322963,-0.3913647590856421,-0.02163966871267549,-0.013257385295424516,0.0418728478966615,0.045605058639288265,5.0
0.4362652701322963,-0.4036872705696011,-0.047546005779921616,0.021600899117239322,0.034709525436298155,0.04923271366028396,5.0
0.4400778285718736,-0.3913647590856421,-0.038910534897499294,0.03405028901048674,0.039485073743207054,0.05013962810687137,5.0
0.4477029454510275,-0.37288097837842193,0.004266668354571323,0.03803409571990702,0.025158428822480365,0.011142333520144402,5.0
0.4553280623301814,-0.366719736117724,-0.004368726947830159,0.00018795627517800205,0.05062801959041723,0.025652954641134932,5.0
0.4553280623301814,-0.3636391015060933,-0.06481694754476694,-0.014253333935934157,0.05460764267389822,0.05104654255345882,5.0
0.4438903870114502,-0.3605584668944628,-0.056181476662344625,-0.013755361134102036,0.035505450659726066,0.04107048917170513,5.0
0.4553280623301814,-0.366719736117724,-0.013004197830253084,-0.024710820474471467,0.030729901746085458,0.06737099429597046,5.0
0.466765737648915,-0.379042247601683,-0.038910534897499294,-0.030188551663078902,0.023566580802551397,0.05467419757445451,5.0
0.4629531792093383,-0.3821228822133135,-0.06481694754476694,-0.0525974492193407,0.04505654674265361,0.06465025095620817,5.0
0.45151550389060413,-0.379042247601683,-0.06481694754476694,-0.05907113075668332,0.04505654674265361,0.030187524108718056,5.0
0.45151550389060413,-0.379042247601683,-0.06481694754476694,-0.06405088591681038,0.06336281527775153,0.041977403618292566,5.0
0.4705782960884922,-0.3944453936972726,-0.08208781372959074,-0.059569106215755174,0.06654651374453631,-0.002461373845597204,5.0
0.4553280623301814,-0.41600978205356026,-0.09072328461201307,-0.04164198836054857,0.059383191587538825,-0.005182115802682484,5.0
0.45151550389060413,-0.4067679051812318,-0.047546005779921616,-0.03168247766068878,0.035505450659726066,-0.018785822822754827,5.0
0.4477029454510275,-0.3882841244740116,-0.10799415079683757,-0.01923308928586405,0.048240245436962786,-0.027854961757921078,5.0
0.4591406207697611,-0.37288097837842193,0.012902139236993558,-0.013755361134102036,0.056995417130718526,-0.03057570233232935,5.0
0.4438903870114502,-0.3636391015060933,0.04744394718666209,-0.032678429338043845,0.056995417130718526,-0.00790285775976776,5.0
0.4286401532531424,-0.37288097837842193,0.004266668354571323,-0.03168247766068878,0.0410769232799653,0.026559869087722364,5.0
0.4362652701322963,-0.3821228822133135,0.004266668354571323,-0.021224992640574168,0.06654651374453631,-0.0205996517159297,5.0
0.45151550389060413,-0.3759616129900525,0.021537610119415965,-0.020727016801896644,0.0776894595917465,-0.04508632518166616,5.0
0.4553280623301814,-0.37288097837842193,-0.013004197830253084,-0.0267027238291816,0.07291391067810588,-0.03420335735332504,5.0
0.45151550389060413,-0.3698003437667915,-0.03027513959509781,-0.0267027238291816,0.08644462976867294,-0.021506563397163104,5.0
0.4438903870114502,-0.3605584668944628,0.03017308100183837,-0.0356662813332636,0.0776894595917465,-0.027854961757921078,5.0
0.4210150363739849,-0.366719736117724,0.056079418069085014,-0.04164198836054857,0.084852781748744,-0.0360171862464999,5.0
0.4286401532531424,-0.366719736117724,0.021537610119415965,-0.03616425717194114,0.056199491907290615,-0.027854961757921078,5.0
0.4286401532531424,-0.3574778322828323,0.004266668354571323,-0.051103522462519466,0.048240245436962786,-0.008809770823678174,5.0
0.4438903870114502,-0.3389940785381752,0.021537610119415965,-0.06454886099627655,0.031525826969513365,-0.016971996694934013,5.0
0.45151550389060413,-0.3482359554105036,-0.02163966871267549,-0.08546383331413983,0.056199491907290615,0.030187524108718056,5.0
0.45151550389060413,-0.3605584668944628,-0.047546005779921616,-0.0849658574754623,0.049832094973721035,-0.0042752013560950555,5.0
0.4286401532531424,-0.366719736117724,-0.02163966871267549,-0.07799420028924499,0.06097504082093122,0.045605058639288265,5.0
0.4324527116927197,-0.37288097837842193,-0.047546005779921616,-0.0849658574754623,0.0689342869878932,0.025652954641134932,5.0
0.4286401532531424,-0.366719736117724,0.012902139236993558,-0.08197800396181981,0.03311767620290576,0.019304558354392473,5.0
0.4286401532531424,-0.366719736117724,0.012902139236993558,-0.06454886099627655,0.07291391067810588,0.04741888753246313,5.0
0.4553280623301814,-0.3944453936972726,-0.03027513959509781,-0.02919259998572384,0.032321752192941276,0.05920876704203762,5.0
0.4553280623301814,-0.3852034898623809,-0.047546005779921616,-0.005289777950274856,0.029138052512693063,0.034722093576301176,5.0
0.4553280623301814,-0.3852034898623809,-0.047546005779921616,-0.009771554424681783,0.01879103188891079,0.027466782151632778,5.0
0.4362652701322963,-0.35131659002213433,-0.038910534897499294,-0.03865413484690609,0.049832094973721035,0.030187524108718056,5.0
0.4438903870114502,-0.35439722463376483,-0.07345234284716842,-0.06654076359177533,0.0410769232799653,0.04016357749047173,5.0
0.4438903870114502,-0.35439722463376483,-0.07345234284716842,-0.06753671450991902,0.038689149126510856,0.03744283415070944,5.0
0.4400778285718736,-0.3605584668944628,-0.056181476662344625,-0.047119718789944635,0.05460764267389822,0.06102259316985847,5.0
0.45151550389060413,-0.379042247601683,-0.02163966871267549,-0.03815615900822856,0.039485073743207054,0.04741888753246313,5.0
0.45151550389060413,-0.379042247601683,-0.02163966871267549,-0.02919259998572384,0.06415873928771601,0.026559869087722364,5.0
0.4438903870114502,-0.3882841244740116,0.03017308100183837,-0.027200699667859124,0.06415873928771601,0.017490730498225374,5.0
0.4438903870114502,-0.37288097837842193,0.012902139236993558,-0.030188551663078902,0.05540356789732613,0.017490730498225374,5.0
0.4438903870114502,-0.37288097837842193,-0.02163966871267549,-0.03865413484690609,0.06734243896796423,0.0156769028148929,5.0
0.4400778285718736,-0.3636391015060933,-0.03027513959509781,-0.03417235533565373,0.0776894595917465,0.031094438555305484,5.0
0.4477029454510275,-0.3698003437667915,0.012902139236993558,-0.028694624147046297,0.03391360142633367,0.04016357749047173,5.0
0.4438903870114502,-0.3821228822133135,0.056079418069085014,-0.02222094431792923,0.0410769232799653,0.032001351619215905,5.0
0.4553280623301814,-0.379042247601683,0.04744394718666209,-0.03865413484690609,0.053015793440505825,0.045605058639288265,5.0
0.4477029454510275,-0.3636391015060933,0.004266668354571323,-0.032678429338043845,0.05858726636411092,0.03834974859729687,5.0
0.45151550389060413,-0.379042247601683,0.038808551884260606,-0.04164198836054857,0.056995417130718526,0.02837369659822021,5.0
0.4400778285718736,-0.3759616129900525,0.012902139236993558,-0.029690575824401367,0.053015793440505825,0.0392566630438843,5.0
0.4477029454510275,-0.37288097837842193,-0.004368726947830159,-0.028196648308368773,0.06495466329768049,0.0156769028148929,5.0
0.4553280623301814,-0.3698003437667915,-0.004368726947830159,-0.032678429338043845,0.05540356789732613,0.0156769028148929,5.0
0.4438903870114502,-0.3605584668944628,-0.03027513959509781,-0.036662233010618675,0.04346469735757828,0.036535921086799025,5.0
0.4324527116927197,-0.37288097837842193,-0.004368726947830159,-0.035168307013008805,0.04585247143519127,0.025652954641134932,5.0
0.41720247793440823,-0.366719736117724,-0.013004197830253084,-0.021224992640574168,0.04346469735757828,0.022025299620139244,5.0
0.4438903870114502,-0.3574778322828323,-0.004368726947830159,-0.042139964199226096,0.05221986882380963,0.005700850642981608,5.0
0.45151550389060413,-0.35439722463376483,0.021537610119415965,-0.0525974492193407,0.040280998663269105,0.0011662811753984886,5.0
0.4438903870114502,-0.35131659002213433,0.004266668354571323,-0.06405088591681038,0.05221986882380963,0.002073195621985917,5.0
0.4438903870114502,-0.3636391015060933,0.012902139236993558,-0.08048407796420994,0.030729901746085458,0.024746041577224515,5.0
0.4324527116927197,-0.3574778322828323,0.012902139236993558,-0.08098205380288746,0.0410769232799653,0.020211472109641394,5.0
0.4400778285718736,-0.35439722463376483,0.07335035983392965,-0.06903064126674027,0.03311767620290576,0.021118385864890316,5.0
0.4362652701322963,-0.379042247601683,-0.013004197830253084,-0.06903064126674027,0.034709525436298155,0.04379123251146744,5.0
0.4438903870114502,-0.37288097837842193,-0.02163966871267549,-0.06504683683495407,0.04505654674265361,0.05104654255345882,5.0
0.4400778285718736,-0.37288097837842193,-0.038910534897499294,-0.061561008241845426,0.04505654674265361,0.026559869087722364,5.0
0.4438903870114502,-0.366719736117724,-0.02163966871267549,-0.050107571544375756,0.025158428822480365,0.05286037144663369,5.0
0.4438903870114502,-0.3821228822133135,-0.038910534897499294,-0.04263793851948092,0.0418728478966615,0.056488026467629376,5.0
0.4400778285718736,-0.3882841244740116,-0.013004197830253084,-0.021722968479251713,0.03311767620290576,0.05920876704203762,5.0
0.4362652701322963,-0.3821228822133135,0.021537610119415965,-0.01873511344718652,0.012423634955341224,0.06011568148862507,5.0
