acc_x,acc_y,acc_z,gyro_x,gyro_y,gyro_z,activity
-0.48621838963693526,-0.9052544760304919,1.5837341345121947,-1.022396314108149,-0.2976747521452989,-2.6750916173169625,0.0
-0.6102181947738855,-1.0802550541359646,1.694761874733266,-1.3177173786586598,-0.10482691972372024,-2.834367183533647,0.0
-0.8321125348125297,-1.4697725591727853,1.777321260059701,-0.9434490649347731,-0.956123348143573,-4.064167468741585,0.0
-0.8321125348125297,-1.4697725591727853,1.777321260059701,-0.8949112203873975,-1.1197751293270344,-4.299702355051569,0.0
-0.783165267361683,-1.5205791945609166,1.6719870712176963,-0.6469584254558117,-1.3302942618375764,-4.949353600498202,0.0
-0.675481256121768,-1.4528369811045532,1.5666528823756911,-0.3019298558382958,-1.1067137596849208,-5.251494759407552,0.0
-0.626533988670921,-1.4697725591727853,1.5353372534587675,-0.15982487579916263,-0.7025783730543645,-5.273696599103506,0.0
-0.5743235624406673,-1.4810629445516064,1.4926343224506096,-0.48380086846142595,-0.10405860110624406,-5.018855617805662,0.0
-0.5645340861024459,-1.4754177518621954,1.5552653809513552,-1.0533904776679812,0.01656734335542343,-4.865372106138786,0.0
-0.6363234650091425,-1.4133207310952431,1.5438778795270194,-1.2715186839681851,0.22862313535703405,-4.847031259386955,0.0
-0.7179022060138006,-1.3794496737753434,1.4214625382150612,-1.2650858792097426,0.5259622435293966,-4.987000542237898,0.0
-0.7276916823520219,-1.3568689030177004,1.3986875353663897,-1.0335074185803932,0.41609274682727565,-5.129865946552687,0.0
-0.7244285235726147,-1.3229978456978009,1.3673720061160168,-1.00017410516366,0.4975344640537739,-5.0613291774812605,0.0
-0.7603231559058331,-1.221384574921538,1.4328499399728465,-1.0370162004265306,0.6158554749191291,-5.034300719849402,0.0
-0.7570599971264261,-1.1310616895240961,1.4442374413971824,-1.5019276267298698,0.3507857111967812,-4.927151760802248,0.0
-0.737481158690243,-1.0294485175643975,1.4214625382150612,-2.0159617706359882,0.41609274682727565,-4.73891705210377,0.0
-0.7244285235726147,-1.0971906322041967,1.3901469092981378,-2.1101136650615793,0.42992250068383975,-4.481179949342083,0.0
-0.8060072645772729,-1.119771402961839,1.4043812860785576,-2.0048506661637444,0.21940333068931242,-4.56419657222122,0.0
-0.8157967409154941,-1.0350936114372435,1.4413905660410982,-1.7323364553699825,-0.2554172750390901,-4.961902581078103,0.0
-0.737481158690243,-0.9391255827586735,1.467012444245854,-1.5060211675098394,-0.35837189481292886,-4.9966537781097085,0.0
-0.626533988670921,-0.8826737546811313,1.475553070314106,-1.4855533494884192,0.028092114710788117,-4.816141432055224,0.0
-0.5743235624406673,-0.81493159063305,1.455624942821518,-1.6814593468441341,-0.053349605151302694,-4.301633228279379,0.0
-0.5743235624406673,-0.81493159063305,1.455624942821518,-1.674441897273431,-0.00110397430415806,-4.019763412593924,0.0
-0.5743235624406673,-0.81493159063305,1.455624942821518,-1.65163492939511,0.4199343305436603,-3.77843703686776,0.0
-0.6656917797835468,-0.6004147131099845,1.506868499897928,-1.5861379345508797,0.28086876386142967,-3.7716799224597968,0.0
-0.734217999910836,-0.5439629344407244,1.5467247548831033,-1.4446177134455789,0.41762940280422073,-3.7716799224597968,0.0
-0.734217999910836,-0.5439629344407244,1.5467247548831033,-1.4446177134455789,0.41762940280422073,-3.7716799224597968,0.0
-0.7603231559058331,-0.48186593837791275,1.5894278852243628,-0.9902326326806519,0.12797347143562388,-3.7060388980964603,0.0
-0.792954743699904,-0.4649303850138219,1.6662933205055286,-0.7972505441156703,0.5405603066324404,-3.709900267796334,0.0
-0.792954743699904,-0.4649303850138219,1.6662933205055286,-0.9364316153640702,0.9231827344896781,-3.929024803826543,0.0
-0.675481256121768,-0.4649303850138219,1.723230628294106,-0.9726888375715368,1.6054492170007106,-3.8238063412514522,0.0
-0.6363234650091425,-0.3012201552309586,1.9282052552659485,-0.1264916051780186,2.2277868286066074,-3.052526471327827,0.0
-0.6363234650091425,-0.3012201552309586,1.9282052552659485,0.78286338661165,1.703025578339227,-2.4463140337928206,0.0
-0.7766389498028686,-0.14315509497737375,2.2100453175189547,0.17584700166697234,0.9608302998910296,-2.880701924531244,0.0
-0.9822174959444772,-0.0979936491906352,2.289757628156206,-1.3177173786586598,0.37537190695601913,-3.646190116660808,0.0
-0.9202176504961318,-0.25041353219489765,1.9737550616301907,-2.279119039637431,-0.057191193553185464,-3.9647412490941782,0.0
-0.868007224265878,-0.5665436557900849,1.5239497520344318,-2.1025113424354713,-0.06487437972794735,-4.0603064757974625,0.0
-0.894112437381005,-0.7979960619730999,1.2107941605310513,-1.5539742531233829,-0.3775798508788371,-4.542959604005546,0.0
-0.897375596160412,-0.81493159063305,1.0769913177947574,-0.839355755086961,-0.6303564792375808,-5.017890369569628,0.0
-0.8647440654864708,-0.7133183692650691,1.0769913177947574,0.06298171892653391,-0.3798848161022621,-5.186818983280245,0.0
-0.7603231559058331,-0.43670449567919184,1.1567036284320067,0.4501154963948289,-0.07178923791423675,-4.730229064467993,0.0
-0.6820075736805821,-0.16009063753340289,1.44993119210935,0.38520331754521686,0.3384926320591548,-4.187726778068511,0.0
-0.6885338912393963,-0.14315509497737375,1.5410310041709354,-0.16976637681256362,0.6220020238589385,-3.8363553218313493,0.0
-0.6885338912393963,-0.14315509497737375,1.5410310041709354,-1.1557294536535103,0.7610675717991765,-3.740790095128065,0.0
-0.8745334847045623,-0.1883165423081211,1.6919149993771825,-1.6060209936384677,0.7226516596673597,-3.807395990971678,0.0
-1.0148490266184185,-0.2786394338815981,1.5495716302391873,-1.636430284142896,0.4606552078989021,-4.064167468741585,0.0
-1.0148490266184185,-0.2786394338815981,1.5495716302391873,-1.4364306318856395,0.556694988228444,-4.456081988182285,0.0
-1.0833752467457078,-0.31251051590563883,1.4413905660410982,-1.2627467293528416,0.32389458769810375,-4.810349565883287,0.0
-1.1192698790789262,-0.3012201552309586,1.4271561892606783,-1.1890626529486719,0.14257151579667518,-5.332580509058878,0.0
-1.112743618640242,-0.25041353219489765,1.4186156628589774,-1.080290986326272,-0.01877529079236501,-5.760211097011459,0.0
-0.9495860223906659,-0.16009063753340289,1.4584718181776022,-1.0943259995892498,0.3116014898184847,-5.690709079704004,0.0
-0.6983232533373578,-0.030251480510527402,1.506868499897928,-0.9101158656396116,0.36077384385297545,-5.3789150616785975,0.0
-0.5123236598721921,0.1447491161230513,1.6207433148081851,-0.8434492958669307,0.12336355973076678,-4.9725210651859415,0.0
-0.3785343783970203,0.3197497189326654,1.7972491882191874,-0.9481274787701469,-0.11097345929253344,-4.540063859297452,0.0
-0.2512715287209224,0.4665244324076492,1.9709081862741074,-1.20485217125629,0.12182692249581437,-3.93964328793438,0.0
-0.1729558322554117,0.4947503464464202,2.113251754745203,-1.6095296613630332,-0.20931817673251138,-3.3257081109996283,0.0
-0.19253478493185425,0.44958890374769944,2.14741425901821,-1.8270731087294048,-0.9753313416934666,-2.623930446761338,0.0
-0.31000827250999047,0.35926596894197554,2.113251754745203,-1.8212251770263668,-1.2273396982897153,-2.0910812078557868,0.0
-0.49600786597515656,0.1729750301618224,2.0050706905471136,-1.8943243803751315,-1.3794666533560525,-2.0881852747698195,0.0
-0.7635863146852402,0.020555148701568833,1.8570335706969505,-1.6153777071876434,-1.1428247065933128,-2.4318343683629853,0.0
-1.0899015071843923,-0.06412256253456809,1.7004556254454344,-0.9036830608811691,-1.47089654072273,-3.171259351096725,0.0
-1.3313747713394137,-0.17702618163344086,1.5495716302391873,-0.14871378559211462,-2.6871442093628124,-4.34603728442704,0.0
-1.4782166022520191,-0.3068653355682987,1.347443878623429,0.05947295357452995,-2.8492591471494024,-5.264043739987449,0.0
-1.6837951698136764,-0.4649303850138219,1.227875412667555,-0.045790000744565365,-1.6975503548292756,-6.820117708650627,0.0
-1.7099003829288035,-0.4310593029897812,1.2164879112432192,-0.10076065718298174,-1.1305316087136936,-7.492936418784999,0.0
-1.3640062734532898,-0.3068653355682987,1.2392628144253401,-0.2650878176362109,-0.8047647398077014,-7.02765813558122,0.0
-0.8190598996949011,-0.16009063753340289,1.2250285373114709,-0.5276604132949998,0.4683383753316712,-5.251494759407552,0.0
-0.4111659661910914,-0.09234846730928628,1.2392628144253401,-0.8241511098347469,1.229741609845777,-3.948330898814407,0.0
-0.16642951469659742,0.014909968364228756,1.3132814740169725,-1.003098128075965,1.2228267891434728,-2.9936427497503315,0.0
0.0815699813370435,0.15603947679773153,1.50117474918576,-0.9902326326806519,1.557045097244729,-2.1769935754430163,0.0
0.3132536834736491,0.2802334689233551,1.6520589437251083,-1.0609928002940883,1.4110647660861722,-1.3236626134430975,0.0
0.3785168590617916,0.3310401043114865,1.7516993818549456,-1.1019283222153569,0.47832650798786536,-0.36221739706552664,0.0
0.36546422394416284,0.32539491162207596,1.7944023128631035,-1.1089458859076315,-0.4336670630996174,0.5017319077588226,0.0
0.1566225190231472,0.3028141902727154,1.7431587557866939,-0.8896480476181914,-0.8631569172519064,1.647550698607344,0.0
-0.3067451137305835,0.12216839477369089,1.7033025008015181,-1.0522208456787447,-0.43213044460665767,1.8502650727356582,0.0
-0.868007224265878,-0.31251051590563883,1.6662933205055286,-1.6317518703075222,-0.18780527418517073,1.4081546309753645,0.0
-1.3281116125600065,-0.8375123119824105,1.455624942821518,-1.9919850566468589,-0.6895170034122509,0.4467094145977934,0.0
-1.6315847364434064,-1.2100942883592813,1.1623973791441746,-1.5434480217065425,-0.995307607005855,-0.9346441212773031,0.0
-1.7327424444045396,-1.2891267883779016,1.008666408915293,-0.45105237103931073,-0.47438794045485916,-2.9627529224185993,0.0
-1.664216252837315,-1.046383996816065,0.880557316891167,0.37877059837795335,0.4829364384347152,-4.392371837046763,0.0
-1.465163995694456,-0.81493159063305,0.9545759764827992,0.9050853646239813,0.09724074547856895,-5.157860029176327,0.0
-0.8614809067070638,-0.2899297945562784,1.125388099181634,1.1027458099635508,0.4253125702369901,-4.984104797529807,0.0
0.055464825342046255,0.6189442891637618,1.506868499897928,1.332569993791403,0.7195784226814401,-4.209928994520215,0.0
0.5351480235122933,1.1608817003649772,1.7858616867948518,1.3577161115266254,0.3100648525835323,-2.982059017406463,0.0
0.7015688927815352,1.358462950411528,1.9225115045537808,0.5606415824706905,0.330809445884393,-0.9201645500364058,0.0
0.802726586462637,1.5221732419547442,2.0449269455322896,-0.22766099196990094,0.1264368342006715,0.7005850534706703,0.0
0.646095193531615,1.381043721169171,2.0136113166153646,-0.6726894162464379,-0.6495644727874743,1.9197670900431156,0.0
0.16967515414077575,0.7882997733963886,1.811483564999607,-0.583215878595436,-0.7717270298852287,2.7064918736326056,0.0
-0.04895614135872103,0.5342665964557308,1.7374650050745255,-0.4545611528854482,-0.8032280463467709,3.1041980708673633,0.0
-0.5188499774310061,0.0882973127496502,1.6235901901642686,-0.4001752910438553,-0.93537881106869,2.7055266253965753,0.0
-0.8875861198221907,-0.3068653355682987,1.4926343224506096,-0.4867248343129453,-0.9684164460231921,1.9197670900431156,0.0
-1.1257961966377403,-0.5044466597272732,1.3389032525551772,-0.46391786643462396,-0.7678854461688444,1.0731933366400999,0.0
-1.2008486772037141,-0.6399310125275772,1.2250285373114709,-0.1194740700161368,-0.81552114422639,0.08954604509422974,0.0
-1.1388488317553689,-0.668156926566348,1.114000597757298,0.1676598844440418,-0.8754499401635548,-0.22610917780040637,0.0
-1.0311648205154538,-0.5326725737660445,1.0826850685069254,0.3764314199906593,-0.24927072609928044,-0.5224582586127103,0.0
-0.897375596160412,-0.3576719709564303,1.1652442545002586,0.5407585804438885,0.23400137505036372,-0.769576688888685,0.0
-0.7179022060138006,-0.20525208332014142,1.2734253186983477,0.343098135104319,0.5712930138475026,-0.8014318586453845,0.0
-0.5808498799994812,-0.08670328697194617,1.3929937846542217,0.15713358883381737,0.8993648104929345,-0.8178420205472805,0.0
-0.47969218631838084,0.0036196076895485332,1.4527780674654343,0.10567169641004275,0.5305721739762462,-0.764750165141719,0.0
-0.3524292224020233,0.0882973127496502,1.4840936963823579,0.3705834597572281,0.23707463077827579,-0.6846297579153616,0.0
-0.26432416383855095,0.21249128017113267,1.5239497520344318,0.4366652135352906,0.26012418930256154,-0.5128051640243099,0.0
-0.21863994092685152,0.29716899758330484,1.5524185055952713,0.2249697121371539,0.3177480387582941,-0.2820969427447003,0.0
-0.2316925760444798,0.3197497189326654,1.5438778795270194,-0.07152094160700398,0.4268492262139349,0.06348277094350732,0.0
-0.24800836994151537,0.2915238295980355,1.51540912596618,-0.14169625043023265,0.2724172684401878,0.2835726435118773,0.0
-0.31000827250999047,0.2576527475739946,1.46416556888977,-0.09608230040839387,0.27702718014504496,0.3636930742854692,0.0
-0.3948501722940559,0.2350720015204931,1.4413905660410982,0.007426271903380558,0.19328051643711466,0.23820324493924866,0.0
-0.453586916083124,0.21249128017113267,1.4442374413971824,0.21912176616891904,0.010420797929737538,0.10016441735270375,0.0
-0.4894815484163423,0.2576527475739946,1.4783999456701897,0.2998233777349705,-0.09714373354895836,0.03452357676817448,0.0
-0.46337639242134526,0.2802334689233551,1.50117474918576,0.29222105510886354,0.009652480483635886,0.16194403080850597,0.0
-0.49600786597515656,0.2915238295980355,1.5353372534587675,0.1682446790408653,-0.014165381430256951,0.3173583803823411,0.0
-0.5351656570877821,0.2802334689233551,1.5267966273905156,0.008011062933904932,0.0910942012242576,0.2237236383774996,0.0
-0.5416919746465961,0.252007554884584,1.5211028766783476,-0.10426942476392265,0.16792601143139674,0.07217052899374814,0.0
-0.5547446097642247,0.1899105588217722,1.4271561892606783,-0.09783669133146256,0.09416747100866421,0.05479501289326652,0.0
-0.5580077685436317,0.18426539083650273,1.3986875353663897,0.035496391153113115,-0.20547659301612678,0.11753993345318535,0.0
-0.5416919746465961,0.16732983747241179,1.3816062832298859,0.08871266380105904,-0.054886237700756915,0.07023991478551493,0.0
-0.5221131362104134,0.16732983747241179,1.3901469092981378,0.08461910518959376,0.137961604091818,0.03452357676817448,0.0
-0.5319026125486347,0.1729750301618224,1.3730657568281848,0.0916366350020269,0.0811060638825653,-0.01567235861277652,0.0
-0.5482182922054104,0.19555575151118287,1.3559845046916812,0.22029135536256603,-0.012628744195304574,-0.05138869791785636,0.0
-0.5482182922054104,0.19555575151118287,1.3559845046916812,0.29397543176673574,-0.11481505237991438,-0.011811133139714419,0.0
-0.4503237573037167,0.22942683353522356,1.4043812860785576,0.2419287483124367,0.1448764622781074,0.16580525922497238,0.0
-0.4764290275389736,0.2237816408458129,1.4613186935336862,0.11385881363297329,0.343102543764012,0.2661971156377784,0.0
-0.4764290275389736,0.2237816408458129,1.4613186935336862,-0.008363175078255292,0.15870618802168246,0.3636930742854692,0.0
-0.5123236598721921,0.1729750301618224,1.4613186935336862,0.11561319742344374,0.2078785420561733,0.40520126798886585,0.0
-0.5253762949898206,0.1334587554483711,1.4897874470945258,0.11268922800562543,0.11030215260466784,0.3347338847092055,0.0
-0.5253762949898206,0.1334587554483711,1.4897874470945258,0.0735080145367584,0.017335661387212348,0.24013385914748187,0.0
-0.5482182922054104,0.1334587554483711,1.5211028766783476,0.044268304756016716,0.06420306601183456,0.04610725410717463,0.0
-0.5057973423133778,0.15603947679773153,1.50117474918576,0.009765446724375385,0.08417933835247006,0.05189909305261886,0.0
-0.5057973423133778,0.15603947679773153,1.50117474918576,0.0021631205319692093,-0.17935377876392897,0.18318077532545401,0.0
-0.456850074862531,0.1729750301618224,1.506868499897928,-0.026491793314586856,-0.21700136290727326,0.28936448613657695,0.0
-0.4437974397449027,0.18426539083650273,1.46416556888977,-0.02122864907577372,0.055751565905094634,0.3231501994598063,0.0
-0.46337639242134526,0.1729750301618224,1.4869405717384416,-0.03877247271528179,0.05344661239541516,0.34149102266440445,0.0
-0.5057973423133778,0.1447491161230513,1.4954811978066935,-0.10368462303450093,-0.014165381430256951,0.21600119331818401,0.0
-0.5253762949898206,0.12781358746310156,1.4727061949580218,-0.014795908510715387,0.15486460430529783,0.16290933791262263,0.0
-0.48621838963693526,0.06571659140028975,1.4812468210262737,-0.020643854478950233,-0.09791205216643455,0.27005834405424484,0.0
-0.47969218631838084,0.06571659140028975,1.4783999456701897,-0.018889470688479792,-0.1624507691794528,0.42933391027092904,0.0
-0.5057973423133778,0.054426230725609544,1.4584718181776022,-0.0036848183036674144,-0.1516943272767788,0.3858951259065337,0.0
-0.5351656570877821,0.026200329038908964,1.4328499399728465,0.02380050634924165,0.03193370516257635,0.32121958525157307,0.0
-0.5580077685436317,0.037490689713589175,1.4527780674654343,0.022630917155594694,0.27702718014504496,0.2246889454816162,0.0
-0.5808498799994812,0.020555148701568833,1.46416556888977,-0.053977117967495915,0.10569224089981072,0.08858073799011312,0.0
-0.5416919746465961,0.026200329038908964,1.467012444245854,-0.03877247271528179,0.04422679484257359,0.1329848353454338,0.0
-0.5090605010927849,0.04878105038826944,1.44993119210935,0.05596418866831338,0.32312625970963116,0.23144609521043244,0.0
-0.5416919746465961,0.026200329038908964,1.4613186935336862,0.03666598034676008,0.22247658641722454,0.15422157397557315,0.0
-0.5482182922054104,0.020555148701568833,1.455624942821518,0.06999924940764814,0.14103487856172275,0.09147665930246296,0.0
-0.5416919746465961,0.009264788026888652,1.4328499399728465,0.09631498821031566,0.3300411366379131,0.039350109161390416,0.0
-0.5416919746465961,0.026200329038908964,1.4300030646167625,0.11912196143808554,0.1925121884486421,0.11657462634906875,0.0
-0.5188499774310061,0.037490689713589175,1.4300030646167625,0.11210443340880195,0.008115844420058051,0.20538281517290138,0.0
-0.49927102475456353,0.04878105038826944,1.4385436906850144,0.0553793940714899,0.06804465675646641,0.43898700485932973,0.0
-0.5808498799994812,0.1052328661137411,1.4613186935336862,-0.0036848183036674144,0.22478155164064945,0.20248690563416882,0.0
-0.5743235624406673,0.06571659140028975,1.5381841288148517,0.014443799932664137,0.5336454109621657,-0.03208256760914153,0.0
-0.5188499774310061,-0.007670752985131704,1.5979683119595132,-0.018304676091656296,0.3999580652312722,-0.08903565143116939,0.0
-0.4209554425293127,-0.052832201859887844,1.5638060070196071,-0.20777798994309896,0.36231049982992053,0.2507522255191472,0.0
-0.5025341835339708,0.009264788026888652,1.5353372534587675,-0.297836315058326,0.2685756847238032,0.24206447335571507,0.0
-0.6428496683276967,0.009264788026888652,1.4840936963823579,-0.24812880999132098,0.12490019696571912,0.011356222642062489,0.0
-0.6004287184356643,-0.09234846730928628,1.455624942821518,-0.11479571324154893,0.28010045461494976,-0.061041763072213755,0.0
-0.5090605010927849,-0.13186473353068912,1.467012444245854,0.21736738951104684,0.13565664823938944,-0.023394809558900755,0.0
-0.4666395512007523,-0.10363882952797533,1.4527780674654343,0.11093484421515498,0.3600055346064956,0.08665012378187995,0.0
-0.5188499774310061,-0.06976774595992583,1.469859319601938,-0.15514651902457463,0.32696786216800827,0.023905206165365397,0.0
-0.561270927323039,-0.06976774595992583,1.4783999456701897,-0.39725132519233614,0.5551583322514989,-0.12764791204859904,0.0
-0.561270927323039,-0.07541292629726595,1.50117474918576,-0.5791223378154663,0.4545086589590924,-0.2589295957931364,0.0
-0.5319026125486347,-0.06412256253456809,1.506868499897928,-1.0615775592279206,-0.031836697918463885,-0.09772340359460158,0.0
-0.5090605010927849,-0.0979936491906352,1.5267966273905156,-1.3106999290879568,0.07111792654087302,-0.13826627842026443,0.0
-0.456850074862531,-0.13186473353068912,1.4812468210262737,-1.4984188448837323,0.17868246270506705,-0.09482749405586903,0.0
-0.42421860130871974,-0.04718702152254776,1.4186156628589774,-1.5124538581467102,0.06881297537394263,0.10981748250706115,0.0
-0.48621838963693526,-0.17138099820808314,1.3218221000852244,-1.3048518832633467,0.9324025204154073,0.9834197877308731,0.0
-0.7309548411314291,-0.2899297945562784,1.344597003267345,-1.5183017898497484,2.426012938205501,1.516269026636424,0.0
-0.7635863146852402,-0.22218762433216177,1.4157687875028935,-1.2457876931775587,1.8297980658838313,0.7179605577975346,0.0
-0.7668494734646473,-0.5721888484794955,1.4727061949580218,-1.4440329545117465,2.85703948581872,0.7411279282963333,0.0
-0.737481158690243,-0.5552532704112638,1.4727061949580218,-1.5130386170805425,3.049887093336388,1.071262745979101,0.0
-0.6493759858865112,-0.5608984631006744,1.4812468210262737,-1.3668400962614395,2.920041368805863,1.5973547762877496,0.0
-0.6950602087982105,-0.5213822130913641,1.4812468210262737,-1.3095302970987204,3.6960426289390282,2.332918200943739,0.0
-0.8321125348125297,-0.5947695698288561,1.5211028766783476,-1.3317525060432092,4.065603837090093,2.5616959728457567,0.0
-0.9365333872730375,-0.6286406271487557,1.575193508443943,-1.2914016289342012,3.97647891494684,2.570383583725782,0.0
-1.060533135289858,-0.8262219760118711,1.5894278852243628,-1.3370155646908435,3.569270291330364,1.9815467447065782,0.0
-1.0899015071843923,-0.8826737546811313,1.6463651930129404,-1.5580677939033525,3.286529190035067,2.1784692526629583,0.0
-1.112743618640242,-0.8826737546811313,1.7146900022258542,-1.8370146953339848,3.57157510661785,2.325195838299744,0.0
-1.14863825097346,-0.9560611114186232,1.7146900022258542,-2.0212248292836232,3.4594008321122307,2.135995692987359,0.0
-1.2073749947625283,-0.916544861409313,1.7260775036501899,-1.5299976532558253,2.4336961056382704,1.7691793230843325,0.0
-1.3313747713394137,-1.119771402961839,1.7602400079231972,-0.9422795470671085,2.4060366728931126,1.3569934604197398,0.0
-1.4064272519053875,-1.1705779395334066,1.8285648171361117,-0.9042679339365731,1.0768463080489747,-0.2386581583803049,0.0
-1.3803220387902608,-1.402030444532986,1.7431587557866939,-1.5416936307834739,0.7218833879048652,-0.10544586042753441,0.0
-1.2791643165490951,-1.4697725591727853,1.680527697285948,-1.199588998487084,1.1383117974470698,0.7671911847866297,0.0
-1.3020064280049448,-1.396385251843575,1.6150495640960167,-0.543449874541832,1.2804506198572128,1.0162402057236033,0.0
-1.3999009629066383,-1.5600954445702269,1.580887259156111,-0.27269016879271096,1.452553840235938,1.1542790862914256,0.0
-1.5206375807041168,-1.7350960226757,1.5979683119595132,-0.284970848193406,0.3561639508901109,1.0249280049815042,0.0
-1.6152689853864681,-1.8705803507718626,1.4271561892606783,-0.8282446506147165,-2.858479008043103,1.9381079367949483,0.0
-1.908952647211679,-1.4584821737939637,1.51540912596618,-0.7761979671604177,-3.844999325718838,3.462326641512488,0.0
-1.530427028482273,-1.2383201529897698,1.71184312686977,-0.2463744190682525,-1.133604845699613,4.178584159558491,0.0
-0.8255862172537153,-1.7012249653558003,1.5353372534587675,-1.1779515484764276,0.9055113594327442,2.5694183354897513,0.0
-0.9202176504961318,-2.2036461265477048,1.4043812860785576,-2.1873064091903136,-0.8800598706104046,2.3908366742852043,0.0
-1.3248484537805996,-1.8310641995791166,1.4015344107224736,-1.2054369301901224,-0.24235584917099853,3.2663695701700166,0.0
-1.5728480069343707,-1.718160543424032,1.2962002218804685,0.8360796449943996,1.8912635552819264,3.440124801816534,0.0
-1.585900613491934,-1.6052568872689479,1.2791190694105157,1.8126859512253846,0.39381151629146255,2.8705938694073176,0.0
-1.5010586565877388,-1.497998423803274,1.3901469092981378,2.2419250283766603,-2.1723709418156854,2.1051058656556276,0.0
-1.2856906341079093,-1.7012249653558003,1.5638060070196071,2.2372465004197153,-4.468105508959113,1.9998875914584109,0.0
-1.2008486772037141,-2.446388819292977,1.6890681240210987,1.9957266814289305,-4.555693587705494,1.37919548849357,0.0
-1.4847428912507687,-2.4689695900506194,1.8171773157117745,1.9752587492859381,-2.8507956906743934,1.2778383014294128,0.0
-1.2824274753285023,-2.096387663082031,1.902583377061193,1.3390026844282739,-2.8961267233803953,1.2064055992720186,0.0
-1.1975855184243072,-2.000419584995179,1.8997365017051089,0.7735066730624742,-3.738203253422563,-0.7348256802349562,0.0
-1.1682171465297728,-2.0625165069455673,1.7972491882191874,0.4436827486971724,-3.5345989416143255,-1.7715648271863877,0.0
-0.9822174959444772,-2.1246136265290847,1.7516993818549456,0.8928046852232863,-5.867212952332551,-3.333430850399375,0.0
-0.5090605010927849,-2.2431622777404505,1.8627273214091182,1.682276834592328,-10.493256115162952,-4.624045353656869,0.0
-0.27085036715710537,-1.8988063142189158,1.5666528823756911,0.09982375400810702,-16.45540483837965,-4.124016626932988,0.0
-0.22516625848566527,-1.9044515069083263,1.654905819081192,0.5167820376371169,-17.134597859000852,-1.933736326489039,0.0
0.47967455274289206,-1.8988063142189158,1.3218221000852244,0.16064234928216,-21.566255671301068,-0.2936806279940995,0.0
0.8940948038055155,-1.7407412153651105,1.2648846926300958,-0.034094115940693906,-22.962291227112058,0.11078278961117775,0.0
1.0670417621530528,-1.6109020799583587,1.0656038163704216,1.624967035429609,-10.337287951220086,1.056783080549266,0.0
1.0670417621530528,-1.6109020799583587,1.0656038163704216,2.2793516543302212,-2.2031036115467626,0.7507809757902647,0.0
0.24472757758661956,-1.5544502518808163,0.766682601647461,0.422630143211527,-10.777533460111353,-1.9269792120810745,0.0
0.24472757758661956,-1.5544502518808163,0.766682601647461,-1.0165483824051105,-16.21799387017471,-4.430018778786457,0.0
0.11746461367026205,-1.4754177518621954,0.32826469380948775,-1.4066061003150434,-16.92868903177701,-4.789112974423366,0.0
0.11746461367026205,-1.4754177518621954,0.32826469380948775,-1.8147924863894958,-16.125027589218984,-4.397198454982667,0.0
0.05872786988119393,-0.9899321687385227,-0.31228092204012764,-2.56391375864953,-9.135637745939285,-3.1442305167091145,0.0
0.23820126002780528,-0.7302538979250187,-0.3578308343000797,-2.2030958133763607,-3.786607373178544,-2.6915017792188585,0.0
0.12399093122907633,-0.6004147131099845,-0.3435964824362976,-3.2750235319006,-6.6424459407032215,-1.434672848001186,0.0
0.04241219022441822,-0.5947695698288561,-0.525796119017787,-4.2416882515270045,-12.042953220398033,0.32121958525157307,0.0
-0.28390300227473364,-0.4649303850138219,-0.6681395878223328,-3.3451989405802043,-13.15471023177309,1.5896323194548172,0.0
-0.3687450162990586,0.1334587554483711,-0.5941209780639759,0.39222085270709883,-11.04337228275989,-1.278293214870469,0.0
0.09788577523407907,-0.030251480510527402,-0.7450050729367736,1.9214577319693562,-5.690499651571034,-2.8083039741378193,0.0
0.18925410681721833,0.0882973127496502,-0.8617267133698389,2.9623914010553354,2.9377128188307684,0.8212483355226907,0.0
0.20556967223373443,0.07700695207496999,-0.9983764314622169,2.9881223918459603,-2.023317223735268,0.7469197473737985,0.0
0.16641199536136847,0.21249128017113267,-1.1122512463724739,2.1109310386882,-3.5023294284863775,-0.5832725708512045,0.0
0.07178050499882223,0.13910394813778176,-1.0638544151523217,0.5226299693401552,-1.4017478838918656,-0.7628195744807204,0.0
0.34262211248831326,-0.4141237743298314,-1.1549542770471823,-0.1446202305469484,-1.4601399863681002,-0.9356093695133335,0.0
0.34914843004712753,-0.2955749748936185,-1.3400007765264368,0.061227336473425625,-2.7678175423748614,0.13781136497920815,0.0
0.38178001784119836,-0.6342858198381663,-1.2859102444273924,0.47526164266044424,-1.6706591938466127,0.6996197110457023,0.0
0.05872786988119393,-0.48751113106732347,-1.3400007765264368,-0.04695958993821235,-2.084782713133363,-1.6258034897856324,0.0
0.05872786988119393,-0.48751113106732347,-1.3400007765264368,-0.31947367947780386,-1.3156961987345324,-2.196299670430879,0.0
-0.009798236005835884,-0.5552532704112638,-1.2887571197834762,-0.6229818826490401,1.147531583372799,-2.326616094165769,0.0
0.15335936024374017,-0.9221900540987236,-1.3001446212078123,-0.31421053523899084,0.14794973674801215,-0.4645398794601832,0.0
0.3524115888265343,-0.933480390069263,-1.2489009644648517,0.9126876872500882,0.3039183223857153,-0.5234235539432097,0.0
0.7570423635509372,-0.6060599057993951,-1.3058382722534294,0.5337410452820068,1.8075168353480182,-1.5437524918982761,0.0
0.51556929931637,-0.6794472625368874,-1.4225599625197702,0.762980384584848,2.5297359234517978,-0.6344337885012983,0.0
0.2806223241600977,-0.8770286114000029,-1.354235053640306,0.6202905885510965,4.757090105526855,1.819375245403927,0.0
0.5318848647328863,-0.9786418821762657,-1.4823442453309827,0.4904662879126582,3.7152506224889232,2.3068549915479113,0.0
0.5416743410711073,-0.81493159063305,-1.468109868550563,0.551869684916133,4.175473296308229,2.3377448188796426,0.0
0.5384111822917006,-0.6512213484981162,-1.3969380843150145,0.47760082104773816,4.004138197756059,-0.12185606942389941,0.0
0.4503061237282279,-0.7189635125461976,-1.265982116934805,-0.14520501801117364,3.338774968475404,-2.954065311538575,0.0
0.6297793996345805,-0.81493159063305,-1.1663416788049676,-0.32649121463968556,3.816668792447736,-1.824656682591949,0.0
0.7374634108744962,-0.6512213484981162,-1.0723950412205736,0.02847885955753041,4.727125707558272,-0.4375112805449181,0.0
0.6330425584139875,-0.668156926566348,-1.006917057530469,0.47409203920160065,4.143972054942775,-0.4819153837870477,0.0
0.3687273827235701,-0.81493159063305,-0.7478519482928575,0.41502782058541987,3.7336903442763205,-1.5041749594975817,0.0
0.27083284782187644,-0.5100918524166839,-0.756392524527834,0.7758458799801611,5.169676631480793,-1.2493339781997366,0.0
0.5906217227622129,-0.5891243771394454,-0.8617267133698389,0.718536023756656,3.622284341533195,-0.48867254528948095,0.0
0.6787267813256845,-0.3238008765803191,-0.7478519482928575,0.28461871821756,1.3972349747456227,0.29612162409177584,0.0
0.59388488154162,-0.4536400243391417,-0.6282834075870702,0.30859527528952807,1.6922691739205382,0.15711749528792301,0.0
0.47967455274289206,-0.6568665411875269,-0.540030470881569,0.21795217697527208,0.7165051107275502,-0.0745560566430376,0.0
0.290411800498319,-0.4423496636644614,-0.5485710720331831,0.05011624715795244,-0.6864436914583608,-1.7387443150047197,0.0
0.38178001784119836,-0.7471894265849687,-0.508714891797921,0.06473610160253589,-0.9323054991148001,-3.2996449016038003,0.0
0.3785168590617916,-0.7302538979250187,-0.5741929004046636,-0.07210574333642573,-0.946135215487379,-4.001422565842093,0.0
0.5123061405369632,-0.5608984631006744,-0.7136894938531252,-0.10426942476392265,-0.9038777196391775,-4.106641028417184,0.0
0.6069375166592496,-0.2560587125322377,-0.8674204142487314,-0.33526314072463603,-0.5842573996729946,-3.8286329591873556,0.0
0.6787267813256845,-0.024606300173187295,-0.8389517603544426,-0.317719317085128,-0.26386877046033175,-2.419285387783087,0.0
0.6656741462080581,0.009264788026888652,-0.7962487296797341,-0.09666710213781558,0.3039183223857153,-1.3757891264236908,0.0
0.6656741462080581,0.07700695207496999,-0.9499796500753402,0.2898818767215695,0.6919189899362829,-0.396003110388756,0.0
0.5025166641987416,-0.13186473353068912,-0.6339771582992382,0.08461910518959376,0.6465881821341911,-0.2898193995776333,0.0
0.4470429649488212,-0.06976774595992583,-0.6681395878223328,0.06941445525661204,1.1920940444444252,-0.5774807046792706,0.0
0.6917794164433146,-0.007670752985131704,-0.7023020422620648,0.40625592303086233,0.33695599482420263,-0.22321324471443926,0.0
0.5840954052033994,0.037490689713589175,-0.6795270394133931,0.21619780031739988,0.17791414408759088,0.05962154547044522,0.0
0.5090429817575559,0.020555148701568833,-0.6766802138905845,0.061812130624461725,0.37998179991888376,0.32121958525157307,0.0
0.49272718786052033,0.06571659140028975,-0.6766802138905845,0.1401745526585345,0.16792601143139674,0.6243258275663104,0.0
0.6852530988845011,-0.0020255726477916135,-0.619742806435456,0.08169513398862589,-0.31688270821120723,0.14070728629155796,0.0
0.5906217227622129,-0.052832201859887844,-0.6624458371101648,0.22730889052444783,-0.7502141460798808,-0.2396234537108043,0.0
0.5351480235122933,-0.10363882952797533,-0.7193832445652932,0.0027479151287926806,-0.3091995407784381,-0.3293969555255621,0.0
0.5873585639828065,0.014909968364228756,-0.7877081036114821,-0.06625779736819089,0.22017163993579233,-0.054284619230206166,0.0
0.5710427700857725,0.020555148701568833,-0.7393113222246056,-0.04403562408669316,0.4552769682055724,0.04803786757955676,0.0
0.51556929931637,-0.0979936491906352,-0.6539052359585507,0.12613949303366823,0.002737616440473809,-0.4442684420473518,0.0
0.46009560006644945,-0.0979936491906352,-0.5998147287761437,0.18520370808354988,-0.1947201323714601,-0.6624276827470624,0.0
0.5384111822917006,-0.0020255726477916135,-0.6282834075870702,0.14251373104582848,-0.6226733118048113,-0.36511328305702473,0.0
0.6656741462080581,0.15603947679773153,-0.7763206021871464,-0.060994653129377734,-0.5788791974636504,0.05093378594850226,0.0
0.5057798229781489,0.07700695207496999,-1.0154576337654453,-0.36099407445447657,-0.07409419376666532,0.3028787620469748,0.0
0.25451705392484086,0.0995876734243304,-0.6795270394133931,-0.6826308887294461,-0.568891064807456,1.5307485978773212,0.0
0.3458852712677205,-0.007670752985131704,-0.6112022052838418,-0.1843862346005524,-0.9691847927536572,1.688093573433007,0.0
0.22188546613076973,0.11087803409901065,-0.6766802138905845,-0.08321683354347367,-0.4897542753203977,2.564591717553848,0.0
0.4274640122723786,-0.007670752985131704,-0.6339771582992382,0.05187062916527333,1.150604895326689,2.9931879304982125,0.0
0.6330425584139875,-0.18267136197078096,-0.7649331505960859,-0.026491793314586856,1.8336397245681866,2.6659489988069427,0.0
0.9952524974866173,-0.4592852170285523,-0.6396708840947685,0.15654879423699383,0.9523787857277954,2.112828416677498,0.0
0.8516737396732245,-0.5439629344407244,-0.6225896817915401,0.3776009949191098,0.23246473781541135,0.8299360876861227,0.0
0.5351480235122933,-0.7020279838862475,-0.42900256870235265,0.3121040571356655,0.30775990610209997,0.08954604509422974,0.0
0.37525370028238386,-0.21654244399482164,-0.6937614161938129,0.294560219230961,0.3853600396122135,0.8000116027793598,0.0
0.5482006586299224,-0.34073641759233936,-0.6937614161938129,0.19689958575482314,0.6150871656726492,0.7073421678786349,0.0
0.5482006586299224,-0.34073641759233936,-0.6937614161938129,0.1822797350994325,0.0818743825000415,-0.617058284174434,0.0
0.642832034752208,-0.3350912496070698,-0.6539052359585507,0.040174744361401865,0.06881297537394263,-0.5726541809323047,0.0
0.5123061405369632,-0.2786394338815981,-0.6425177594508523,0.05245542376209682,0.1517913298353931,-0.8458359147930447,0.0
0.37525370028238386,-0.28428461421893825,-0.7222301199213772,-0.1112869599258045,1.0591750079600115,-1.9173261645871431,0.0
0.528621705953479,-0.3068653355682987,-0.6339771582992382,-0.004269612900490913,1.2796822731267476,-2.1045956250495914,0.0
0.49599034663992736,-0.15444545719606279,-0.6282834075870702,-0.05280752877384894,1.1237137343440262,-2.237807793492572,0.0
0.32304315981187065,-0.16009063753340289,-0.6282834075870702,-0.028830971701880783,1.0176858588422752,-3.67514907076473,0.0
0.5514638174093294,0.07136177173762989,-0.540030470881569,0.06473610160253589,0.567451430131118,-2.0891507113837258,0.0
0.6950425752227217,0.07136177173762989,-0.5371835955254849,0.21093465607858675,0.04499511228867524,-0.9877359766828646,0.0
0.646095193531615,-0.14880027685872266,-0.554264822745351,0.31268884459989077,-0.19856173482983738,-1.7252300861887908,0.0
0.51556929931637,0.04878105038826944,-0.542877346237653,0.3740922416033654,-0.5796475067101299,-1.9211873459091404,0.0
0.6493583523110215,0.24636238689931447,-0.4944805648507765,0.3869577084682856,-1.1943019883672432,-1.592017729367934,0.0
0.802726586462637,0.3197497189326654,-0.540030470881569,0.47701600505312,-2.0778678174630887,-0.8998931126235742,0.0
0.802726586462637,0.3197497189326654,-0.540030470881569,-0.4142103328372259,0.09724074547856895,-0.7946746500484819,0.0
0.6656741462080581,0.26329791555926424,-0.7250769952774612,-0.2697661744107987,0.36461542756935994,0.00846030132971268,0.0
0.6167269929974727,0.16732983747241179,-0.6795270394133931,-0.08906477951170852,0.5497800925581694,-0.1160642267991998,0.0
0.6167269929974727,0.16732983747241179,-0.6795270394133931,0.07935595649290673,0.22631818887560184,0.06637868931245282,0.0
0.5090429817575559,0.18426539083650273,-0.5884272522684457,0.11853716684126206,0.36768870203926474,0.05769093126221202,0.0
0.51556929931637,0.1899105588217722,-0.60266157921559,0.10859566582786104,0.20557359557474103,-0.14888465656554706,0.0
0.47967455274289206,0.252007554884584,-0.5314898697299547,-0.3159649261620593,1.089907752659059,-0.2685826432870678,0.0
0.5840954052033994,0.2576527475739946,-0.7848612282553983,-0.5405259086903128,2.255446261351765,-0.08517442301470297,0.0
0.5482006586299224,0.22942683353522356,-0.6396708840947685,-0.4756137298407007,2.067976706107501,-0.20101119309337465,0.0
0.4764113939634853,0.1729750301618224,-0.4773993376309104,0.1343266138228979,1.5616550276915788,-1.2358197493838072,0.0
0.5645164525269558,-0.06976774595992583,-0.3236683985478258,0.2869578966048538,0.3507857111967812,-1.327523794765095,0.0
0.6069375166592496,0.26894310824867484,-0.49163368949469255,0.28461871821756,0.4752532335179607,-1.4182626860992902,0.0
0.5090429817575559,0.3084593829621264,-0.45177752171774904,0.1887124756644908,0.4767898894949058,-1.005111481009729,0.0
0.5710427700857725,0.443943711058289,-0.4802462129869943,0.1004085486049305,0.3261995341795358,-0.39793370104975484,0.0
0.6069375166592496,0.45523404702882797,-0.5030211660023906,0.11853716684126206,0.3630788090764002,-0.3844194251393569,0.0
0.636305717193394,0.42700818239833893,-0.49163368949469255,0.2021627442588327,0.08955756398930523,-0.22514385892267247,0.0
0.6167269929974727,0.4326533256794674,-0.460318135327682,0.32613909892903614,-0.19087854865507548,-0.26375611954010214,0.0
0.6102006754386561,0.3197497189326654,-0.47455246227482634,0.1004085486049305,0.40456799567812185,-0.4645398794601832,0.0
0.4764113939634853,0.3310401043114865,-0.5001742906463067,0.06298171892653391,0.4867780221510999,-0.8998931126235742,0.0
0.39156949417941966,0.42136298970892844,-0.38629952556932506,0.3097648787483715,-0.09483877769652979,-0.7946746500484819,0.0
0.5123061405369632,0.4891051537570097,-0.625436557147624,0.12789387325783957,0.06727633813899024,-0.6450521784201981,0.0
0.646095193531615,0.5850732318438621,-0.5684991496924955,-0.12415242679072463,0.3868966581051733,-0.5118398686938105,0.0
0.6395688759728015,0.573782846465041,-0.4859399387825245,-0.19198855722665942,0.6396733239479019,-0.17977446035004388,0.0
0.646095193531615,0.5229762110769093,-0.4688587364792961,-0.09666710213781558,0.44528883554937826,0.07989297993987234,0.0
0.5840954052033994,0.5286214037663198,-0.4460837834638998,0.011519826948546714,0.02348220608078915,-0.18267036988877644,0.0
0.5612532937475494,0.45523404702882797,-0.42046195509241957,-0.08906477951170852,-0.1201932827022477,-0.28113164741420094,0.0
0.5188322296152578,0.5060406824169598,-0.34644335156322215,0.18754288647084383,-0.6280515140141558,0.03548888322842139,0.0
0.4176745359341573,0.6020087605038121,-0.5371835955254849,-0.4335085759301957,0.5113642179103379,0.23144609521043244,0.0
0.5025166641987416,0.5850732318438621,-0.5741929004046636,-0.38321625486857236,0.6903822964753525,-0.07166013533068775,0.0
0.5743059288651795,0.556847317805091,-0.47170561183537996,-0.0522227413096237,0.29546680822248095,-0.09000095853528602,0.0
0.5677796113063655,0.4778147683781886,-0.372065173705543,0.1273090822273152,-0.1301814153584418,0.05576031852568097,0.0
0.4666219176252635,0.443943711058289,-0.34929022069014665,0.310934453676822,-0.7417626319166466,0.27778080088717766,0.0
0.228411783689584,0.5116858751063702,-0.41761507973633555,-0.028830971701880783,-0.8869747662806793,1.7218793338507048,0.0
0.04567534900382523,0.4947503464464202,-0.5058680413584747,-0.19725170146547263,-0.24235584917099853,2.529840708900119,0.0
0.32304315981187065,0.5003954897275488,-0.525796119017787,-0.018889470688479792,-0.027226790899104927,3.0501409672257713,0.0
0.528621705953479,0.3874918829807467,-0.5229492436617029,0.1202915506317325,0.16869433004887296,2.6842898455587756,0.0
0.6917794164433146,0.18426539083650273,-0.525796119017787,0.25303983851948464,0.815618165526997,2.2576243174643476,0.0
0.7864107925656003,0.1052328661137411,-0.5172555178661726,0.14602249862676936,1.3665023050145455,0.8965422660965512,0.0
0.887568486246702,0.04878105038826944,-0.460318135327682,0.06649048416709102,1.0261372980375387,-0.6344337885012983,0.0
0.6819899401050942,0.1447491161230513,-0.41476821683857046,0.18578850268037334,0.7733606696787956,-0.25699898158490314,0.0
0.7537792047715303,0.2012009194964524,-0.40338074033087234,0.2068410867682241,0.4183977120507006,-0.12668260494448244,0.0
0.646095193531615,0.2350720015204931,-0.36921831080777784,0.26415092872653273,-0.021080241959295414,0.16580525922497238,0.0
0.646095193531615,0.19555575151118287,-0.41761507973633555,0.18754288647084383,0.008115844420058051,0.14456851470802437,0.0
0.6689373049874651,0.15603947679773153,-0.4375431698539668,0.1033325180227488,0.007347525802581863,-0.06683359981010474,0.0
0.600411199100436,0.21249128017113267,-0.38629952556932506,0.06649048416709102,-0.268478682165189,-0.18653159830524285,0.0
0.5547269761887359,0.21249128017113267,-0.3635245725539288,0.1074260802005132,-0.39909273468418527,0.011356222642062489,0.0
0.6134638342180636,0.21813647286054327,-0.42330881799018466,0.007426271903380558,-0.09560709631400598,0.18800729907241978,0.0
0.5840954052033994,0.2350720015204931,-0.41761507973633555,-0.03994206190892875,-0.004945562706040844,0.14456851470802437,0.0
0.6591478286492446,0.22942683353522356,-0.4460837834638998,-0.06333383151667167,0.5013760852541439,-0.06200707017633036,0.0
0.600411199100436,0.21249128017113267,-0.460318135327682,0.11093484421515498,0.36768870203926474,-0.061041763072213755,0.0
0.49272718786052033,0.2012009194964524,-0.3976870020770233,0.2156130128531746,-0.025690153664152542,0.16966647586782158,0.0
0.5873585639828065,0.16732983747241179,-0.47455246227482634,0.27760119732087457,-0.19011022066660296,0.01232152827447694,0.0
0.6134638342180636,0.21249128017113267,-0.4318494316001177,0.18461891348672638,-0.23236771651480448,-0.17687852726407685,0.0
0.646095193531615,0.17862019814709199,-0.42046195509241957,0.10801087123103756,-0.35145703662663935,-0.17012138930887782,0.0
0.6036743578798426,0.20684611218586307,-0.39484012672093927,0.09923895941128352,-0.2461974516293759,0.04900317321197121,0.0
0.6656741462080581,0.12216839477369089,-0.4773993376309104,0.12613949303366823,-0.03260501653594009,0.11657462634906875,0.0
0.5840954052033994,0.15039430881246196,-0.45177752171774904,0.18461891348672638,0.2462944541879901,0.08182359414810554,0.0
0.6036743578798426,0.1729750301618224,-0.45747125997159793,0.18754288647084383,0.6957605736526672,-0.01856827992512635,0.0
0.600411199100436,0.252007554884584,-0.4802462129869943,0.17818618005426634,1.220521823920048,0.05189909305261886,0.0
0.59388488154162,0.2915238295980355,-0.41761507973633555,0.1349114084197214,1.3503675484505717,0.14456851470802437,0.0
0.59388488154162,0.18426539083650273,-0.3435964824362976,0.1536248212528764,0.6850040942660081,0.0036337687525339704,0.0
0.642832034752208,0.1447491161230513,-0.3606776971978448,0.1378353742712406,0.31313812705343685,-0.19811528355464209,0.0
0.6558846698698371,0.252007554884584,-0.380605787315476,-0.02941576629870427,0.16408441834401583,-0.1189601481115496,0.0
0.7472528872127162,0.24071719420990376,-0.3635245725539288,-0.1001758697187565,0.3699936672626897,0.27391957247071125,0.0
0.7244110042373858,0.24071719420990376,-0.3834526502132411,0.05830336527245776,0.47602158024842595,0.677417682971872,0.0
0.6069375166592496,0.15603947679773153,-0.3322090059285994,0.08111033939180241,-0.21546472567232086,0.7420932236268327,0.0
0.5775690876445859,0.04313587005092931,-0.2838122276563026,-0.22239784773108773,-1.182008890487624,0.20055629142593562,0.0
0.36220106516475553,0.020555148701568833,-0.2838122276563026,0.06590568990460809,-2.7662806989779893,0.26426652497677966,0.0
0.5090429817575559,0.06571659140028975,-0.5314898697299547,-0.11771969335826454,3.1789645461044165,0.09244196640657955,0.0
0.33935895370890595,0.0882973127496502,-0.24680292608636506,0.42672371252188956,-0.6080752487017673,-0.028221345079483758,0.0
0.4437798061694142,0.26329791555926424,-0.34644335156322215,0.23257203476326097,-1.7505642550961658,-0.26279082420960276,0.0
0.6656741462080581,0.2350720015204931,-0.46601186112321225,0.1039173126195723,-0.016470334939936424,-0.012776440243831039,0.0
0.642832034752208,0.1729750301618224,-0.5001742906463067,0.16590550065357135,-0.004945562706040844,0.10595625409059475,0.0
0.6232533105562862,0.16732983747241179,-0.4318494316001177,0.1822797350994325,-0.2216112746121304,0.04707256047544016,0.0
0.6232533105562862,0.11652322678842131,-0.454624384615514,0.1740926178765019,0.10492392228233452,0.05479501289326652,0.0
0.5123061405369632,0.19555575151118287,-0.4261556933462686,0.15888796549168957,0.07880110803013676,0.014252141011007987,0.0
0.5710427700857725,0.1899105588217722,-0.41761507973633555,0.017367769350482443,-0.21315977919088863,-0.02242950245478413,0.0
0.5906217227622129,0.19555575151118287,-0.46601186112321225,-0.06274902978724994,0.08341101973499387,0.040315415529655944,0.0
0.59388488154162,0.12216839477369089,-0.4460837834638998,0.034911596556289635,0.049605021650783294,0.04417664137064358,0.0
0.5906217227622129,0.12216839477369089,-0.42330881799018466,0.1273090822273152,-0.01109210930310128,0.03548888322842139,0.0
0.5971480403210291,0.1334587554483711,-0.4460837834638998,0.07175363208365011,0.1187536480259096,0.002668464591821678,0.0
0.5710427700857725,0.1447491161230513,-0.4403900452100507,0.11912196143808554,-0.11020514067505725,-0.011811133139714419,0.0
0.5677796113063655,0.13910394813778176,-0.4261556933462686,0.17818618005426634,0.18559733026235276,0.12333177019107637,0.0
0.6069375166592496,0.1447491161230513,-0.3549839589439957,-0.15924007406974086,0.4306908099303196,0.10788686829882795,0.0
0.5645164525269558,0.1447491161230513,-0.37491204906162695,0.012104621545370186,-0.010323790685625079,0.01521744811512459,0.0
0.5645164525269558,0.1447491161230513,-0.37491204906162695,-0.06742738656183783,0.0050425722929023755,0.09726849604035394,0.0
0.580832246423993,0.1616846694871422,-0.42330881799018466,-0.08263203181405196,0.0473000681411038,0.08568481962116765,0.0
0.6330425584139875,0.15603947679773153,-0.4318494316001177,-0.12239805013285245,0.03577529590720821,-0.012776440243831039,0.0
0.6330425584139875,0.15603947679773153,-0.4318494316001177,-0.16274884165068168,0.21786669345436005,-0.01856827992512635,0.0
0.5514638174093294,0.18426539083650273,-0.41476821683857046,-0.06567300990396562,-0.059496149405614054,-0.06586829270598815,0.0
0.6167269929974727,0.21249128017113267,-0.44893064636166485,-0.08906477951170852,0.14410815303162752,0.017148060851655638,0.0
0.6167269929974727,0.21249128017113267,-0.44893064636166485,0.054794600366241196,0.16562105557896817,0.04224602863411253,0.0
0.642832034752208,0.20684611218586307,-0.5001742906463067,-0.021813443672597216,0.24936772865789483,0.05382970578914992,0.0
0.600411199100436,0.0882973127496502,-0.40338074033087234,-0.053977117967495915,0.3169797295118142,0.04610725410717463,0.0
0.600411199100436,0.0882973127496502,-0.40338074033087234,-0.20368444916312917,0.44989876599622813,-0.010845826035597831,0.0
0.5318848647328863,0.19555575151118287,-0.36921831080777784,0.35654841796385733,-0.3022846825921486,0.07796236867504344,0.0
0.646095193531615,0.19555575151118287,-0.42330881799018466,0.1612271438789835,-0.0771674682365701,-0.017602972821009727,0.0
0.646095193531615,0.19555575151118287,-0.42330881799018466,0.044268304756016716,0.48754633139757975,0.07120522188963152,0.0
0.6852530988845011,0.18426539083650273,-0.38629952556932506,-0.27035099040541705,0.36154219058344067,0.022939899061248797,0.0
0.4992535054193349,0.11652322678842131,-0.3065871837862786,-0.1235676393264994,-0.02031192802731737,-0.006019293458419106,0.0
0.5514638174093294,0.12216839477369089,-0.3976870020770233,0.039005156950904465,-0.1885735834316506,-0.04849277660550655,0.0
0.646095193531615,0.11652322678842131,-0.4318494316001177,0.2518702493258377,-0.17397553907059932,0.08375420541293445,0.0
0.6199901517768797,0.19555575151118287,-0.41476821683857046,-0.041696445699399225,-0.47438794045485916,0.07023991478551493,0.0
0.5743059288651795,0.2350720015204931,-0.44323690810781585,-0.31538013869783404,-0.7156398176644486,0.07217052899374814,0.0
0.59388488154162,0.15603947679773153,-0.372065173705543,-0.036433294327987864,-0.7640438624524596,-0.12282137652801602,0.0
0.600411199100436,0.1616846694871422,-0.3919932638231742,0.13900496346488753,-0.6457228890710895,-0.08613973011881958,0.0
0.5840954052033994,0.19555575151118287,-0.45747125997159793,0.16941426110191404,-0.14631608758344916,0.028731738006693024,0.0
0.5873585639828065,0.2237816408458129,-0.460318135327682,0.13666579221019184,-0.13325468045735028,0.11271339793260234,0.0
0.6330425584139875,0.1729750301618224,-0.42330881799018466,0.14192893644900495,-0.682602107741976,0.1976603701135858,0.0
0.5710427700857725,0.15039430881246196,-0.47170561183537996,0.0828647213991233,-0.9077193033555622,0.12912361281577597,0.0
0.5482006586299224,0.1447491161230513,-0.4887868141386084,0.024970095542888624,-0.8723767031776352,0.04900317321197121,0.0
0.5710427700857725,0.15603947679773153,-0.5058680413584747,0.1068412856036897,-0.4459601609792364,-0.1836356887665103,0.0
0.5743059288651795,0.1899105588217722,-0.46601186112321225,0.14192893644900495,-0.4551799843889506,-0.2328663157556053,0.0
0.580832246423993,0.252007554884584,-0.540030470881569,0.1103500496183315,-0.22775782355193988,-0.04077032565938236,0.0
0.59388488154162,0.21249128017113267,-0.5286429943738709,0.08637348719691466,-0.17628050429402425,0.10885217540294456,0.0
0.59388488154162,0.1729750301618224,-0.5457241966770993,0.0015783259351457113,0.06650801952151404,0.06927461062480264,0.0
0.5743059288651795,0.18426539083650273,-0.5656522992530493,-0.05573150889056461,0.30622326886714757,-0.004088682193590227,0.0
0.5906217227622129,0.1616846694871422,-0.5599585485408815,-0.06976656494913176,0.7587626065757515,-0.03883971145114915,0.0
0.6102006754386561,0.20684611218586307,-0.5058680413584747,0.24602230335760283,0.6988338106385868,0.09533788183212073,0.0
0.5775690876445859,0.21249128017113267,-0.4859399387825245,0.41736699897271384,0.7549210228593671,0.21986242173465043,0.0
0.5873585639828065,0.21249128017113267,-0.4318494316001177,0.3489460953377503,0.47832650798786536,-0.030151953400908323,0.0
0.5612532937475494,0.1447491161230513,-0.41192134148248655,0.2898818767215695,0.36461542756935994,0.011356222642062489,0.0
0.6102006754386561,0.12781358746310156,-0.47170561183537996,0.19280603070965693,0.1925121884486421,0.06058685110285967,0.0
0.5710427700857725,0.17862019814709199,-0.4375431698539668,0.18988206485813777,0.07419120101077777,0.04996848031608781,0.0
0.5514638174093294,0.15603947679773153,-0.42330881799018466,0.16298152766945395,-0.1647557344028777,-0.026290730871250553,0.0
0.5677796113063655,0.1616846694871422,-0.44323690810781585,0.0688296609941291,-0.11635168961486676,-0.03401318181737475,0.0
0.6297793996345805,0.1899105588217722,-0.5001742906463067,-0.009532764271902262,0.4345323936467043,0.0045990758566505675,0.0
0.59388488154162,0.21249128017113267,-0.44893064636166485,0.02847885955753041,0.11030215260466784,0.05769093126221202,5.0
0.5579901349681429,0.1729750301618224,-0.44893064636166485,0.005671888112910104,0.055751565905094634,0.04417664137064358,5.0
0.5514638174093294,0.15603947679773153,-0.460318135327682,0.09689978280713915,0.006579207185105673,0.06251746383939072,5.0
0.59388488154162,0.15603947679773153,-0.44323690810781585,0.1302330516451335,0.0826427011175177,0.028731738006693024,5.0
0.600411199100436,0.1899105588217722,-0.454624384615514,0.0828647213991233,0.09954569664549937,0.02969704437495855,5.0
0.5971480403210291,0.15603947679773153,-0.44323690810781585,0.10099334320175397,-0.023385197811723973,0.0007378503835884665,5.0
0.5906217227622129,0.18426539083650273,-0.47170561183537996,0.01385900533584066,0.03423865984363037,0.040315415529655944,5.0
0.5612532937475494,0.1899105588217722,-0.4460837834638998,0.05187062916527333,-0.13171805259339422,0.007494997169000388,5.0
0.5840954052033994,0.19555575151118287,-0.454624384615514,0.08754307639056162,-0.14631608758344916,-0.04270093986761554,5.0
0.6036743578798426,0.1729750301618224,-0.4688587364792961,-0.0060239966909613534,-0.007250518558469407,0.0007378503835884665,5.0
0.6167269929974727,0.1899105588217722,-0.45747125997159793,-0.1621640541864564,0.137961604091818,0.06734399641656942,5.0
0.5840954052033994,0.22942683353522356,-0.47170561183537996,-0.15807048487609388,0.02348220608078915,0.06058685110285967,5.0
0.5449374998505145,0.19555575151118287,-0.43469630695620165,0.22321533547928168,-0.299211408122244,0.10692156119471134,5.0
0.5547269761887359,0.2237816408458129,-0.4631649857671283,0.47760082104773816,-0.531243461922119,0.03548888322842139,5.0
0.600411199100436,0.2012009194964524,-0.49732741529022273,0.38520331754521686,-0.35453031109654415,0.007494997169000388,5.0
0.6167269929974727,0.22942683353522356,-0.4773993376309104,0.09689978280713915,-0.06641100759190344,0.0045990758566505675,5.0
0.5971480403210291,0.21249128017113267,-0.454624384615514,-0.057485885548436824,0.06343474739435837,0.040315415529655944,5.0
0.5775690876445859,0.15039430881246196,-0.48309308834307824,0.0009935313383222265,0.1064605595172869,0.05769093126221202,5.0
0.5710427700857725,0.1729750301618224,-0.4773993376309104,0.02380050634924165,0.15947450663915866,0.033558270215946186,5.0
0.5840954052033994,0.15603947679773153,-0.4773993376309104,0.015613389126311114,0.16715769281392054,0.04417664137064358,5.0
0.600411199100436,0.15603947679773153,-0.4773993376309104,0.09982375400810702,0.23784295876674832,0.09147665930246296,5.0
0.6069375166592496,0.15603947679773153,-0.4631649857671283,0.16239673307263044,0.2455261449415102,0.08182359414810554,5.0
0.6036743578798426,0.1616846694871422,-0.45747125997159793,0.12789387325783957,0.3776768346954588,0.07506644736269362,5.0
0.5579901349681429,0.15039430881246196,-0.4261556933462686,0.04251392096554624,0.10108233388045174,-0.04849277660550655,5.0
0.5840954052033994,0.2802334689233551,-0.5001742906463067,0.08871266380105904,-0.048739698131943725,-0.052354005021972946,5.0
0.6069375166592496,0.2012009194964524,-0.4944805648507765,-0.015380703107538859,0.2631974637724662,0.01521744811512459,5.0
0.5873585639828065,0.12781358746310156,-0.4631649857671283,0.039005156950904465,0.37460359770953955,0.019078673588186695,5.0
0.5906217227622129,0.1447491161230513,-0.4631649857671283,0.18461891348672638,-0.010323790685625079,0.041280721897921466,5.0
0.59388488154162,0.1729750301618224,-0.47170561183537996,0.2729228405462868,0.16715769281392054,0.16097872370438937,5.0
0.5743059288651795,0.2350720015204931,-0.5571116731847974,0.12146113982537947,0.011957433993315374,0.12236646308695974,5.0
0.5840954052033994,0.2012009194964524,-0.4944805648507765,0.039005156950904465,0.07265456377582541,0.05962154547044522,5.0
0.5873585639828065,0.16732983747241179,-0.45747125997159793,0.07058404355868424,0.013494071228267754,0.05093378594850226,5.0
0.5873585639828065,0.16732983747241179,-0.45747125997159793,0.0828647213991233,0.017335661387212348,0.04610725410717463,5.0
0.59388488154162,0.15603947679773153,-0.45177752171774904,0.0735080145367584,0.019640615482579105,0.04610725410717463,5.0
0.5906217227622129,0.15603947679773153,-0.460318135327682,0.07701677988876236,0.01579902473794724,0.033558270215946186,5.0
0.59388488154162,0.1729750301618224,-0.45177752171774904,0.0922214295988504,0.013494071228267754,0.010390915537945886,5.0
0.5840954052033994,0.18426539083650273,-0.45177752171774904,0.09573019539664174,0.004274253675426187,0.022939899061248797,5.0
0.580832246423993,0.1729750301618224,-0.4631649857671283,0.09865416481446004,0.03731193197078605,0.04803786757955676,5.0
0.5775690876445859,0.15039430881246196,-0.4460837834638998,0.08695828179373814,-0.01109210930310128,0.021974593428834344,5.0
0.580832246423993,0.15603947679773153,-0.4375431698539668,0.09689978280713915,0.01118911654721373,0.032592963847680664,5.0
0.5873585639828065,0.16732983747241179,-0.44893064636166485,0.08403431059277028,0.004274253675426187,0.04610725410717463,5.0
0.5873585639828065,0.1729750301618224,-0.4631649857671283,0.08052554479497893,0.019640615482579105,0.04514194773890911,5.0
0.59388488154162,0.17862019814709199,-0.45177752171774904,0.08169513398862589,0.010420797929737538,0.023905206165365397,5.0
0.5840954052033994,0.1729750301618224,-0.44893064636166485,0.08169513398862589,0.018103979419001267,-0.0011927608812404233,5.0
0.5743059288651795,0.17862019814709199,-0.4631649857671283,0.06999924940764814,0.014262388674369405,0.033558270215946186,5.0
0.5840954052033994,0.1616846694871422,-0.4631649857671283,0.07701677988876236,0.004274253675426187,0.040315415529655944,5.0
0.59388488154162,0.1616846694871422,-0.45177752171774904,0.07935595649290673,0.014262388674369405,0.027766431638427496,5.0
0.5873585639828065,0.1616846694871422,-0.4375431698539668,0.08754307639056162,0.012725752610791565,0.027766431638427496,5.0
0.59388488154162,0.15603947679773153,-0.42900256870235265,0.0916366350020269,0.026555478500788463,0.01232152827447694,5.0
0.59388488154162,0.15603947679773153,-0.42900256870235265,0.09105184040520342,0.013494071228267754,0.019078673588186695,5.0
0.5775690876445859,0.18426539083650273,-0.45177752171774904,0.09865416481446004,0.018103979419001267,-0.00022745672052812548,5.0
0.580832246423993,0.17862019814709199,-0.4631649857671283,0.09046704580837993,-0.0026406091963613446,0.007494997169000388,5.0
0.580832246423993,0.17862019814709199,-0.4631649857671283,0.08754307639056162,0.0050425722929023755,0.010390915537945886,5.0
0.5906217227622129,0.19555575151118287,-0.45177752171774904,0.06941445525661204,-0.004177246431313731,0.02969704437495855,5.0
0.5775690876445859,0.19555575151118287,-0.45747125997159793,0.057133776970385575,-0.014933697704984063,0.00846030132971268,5.0
0.5775690876445859,0.19555575151118287,-0.45747125997159793,0.04192912815187234,-0.04566642366203896,0.005564382960767182,5.0
0.580832246423993,0.18426539083650273,-0.45747125997159793,0.0688296609941291,-0.051044649298874124,0.0045990758566505675,5.0
0.600411199100436,0.19555575151118287,-0.47170561183537996,0.06239692477549782,-0.013397062812780748,0.0017031574877050914,5.0
0.600411199100436,0.19555575151118287,-0.47170561183537996,0.046607481360161095,-0.027226790899104927,0.006529690064883784,5.0
0.5971480403210291,0.2237816408458129,-0.47455246227482634,0.009180652127551887,-0.028763423448559144,0.013286833906891385,5.0
0.5906217227622129,0.24071719420990376,-0.4631649857671283,-0.018889470688479792,-0.00801883717594561,0.033558270215946186,5.0
0.5743059288651795,0.2576527475739946,-0.46601186112321225,-0.03994206190892875,-0.006482199940993222,0.027766431638427496,5.0
0.5873585639828065,0.2350720015204931,-0.4887868141386084,-0.03935726731210526,0.028860432742577036,0.04321133500237806,5.0
0.5840954052033994,0.2237816408458129,-0.4773993376309104,-0.057485885548436824,-0.02031192802731737,0.03452357676817448,5.0
0.580832246423993,0.2237816408458129,-0.45747125997159793,-0.05924027647150552,-0.01877529079236501,0.01618275374753904,5.0
0.5873585639828065,0.22942683353522356,-0.47170561183537996,-0.08087765515617977,-0.011860427920577461,0.041280721897921466,5.0
0.59388488154162,0.2350720015204931,-0.47170561183537996,-0.08964956697593378,0.01656734335542343,0.033558270215946186,5.0
0.580832246423993,0.2237816408458129,-0.4773993376309104,-0.06918177748490652,0.03423865984363037,0.04417664137064358,5.0
0.5906217227622129,0.1899105588217722,-0.4773993376309104,-0.04345082948986966,0.021945569870789498,0.08278890125222214,5.0
0.5775690876445859,0.18426539083650273,-0.4688587364792961,-0.02707658791141033,-0.011860427920577461,0.08182359414810554,5.0
0.5775690876445859,0.18426539083650273,-0.460318135327682,-0.004854407497314384,-0.0018722905788851685,0.039350109161390416,5.0
0.5775690876445859,0.19555575151118287,-0.4375431698539668,0.022046126125070314,-0.014165381430256951,0.04996848031608781,5.0
0.5645164525269558,0.20684611218586307,-0.460318135327682,0.025554890139712103,-0.06564269834542356,0.04610725410717463,5.0
0.580832246423993,0.19555575151118287,-0.46601186112321225,0.02438530094606515,-0.03567828632034667,0.05576031852568097,5.0
0.5906217227622129,0.2012009194964524,-0.45747125997159793,0.030818037944824354,-0.016470334939936424,0.02100928632471774,5.0
0.5743059288651795,0.1899105588217722,-0.4403900452100507,0.04192912815187234,-0.031836697918463885,0.01232152827447694,5.0
0.5710427700857725,0.2237816408458129,-0.454624384615514,0.05187062916527333,-0.07486251238414152,0.0007378503835884665,5.0
0.5743059288651795,0.17862019814709199,-0.4631649857671283,0.051285834568449845,-0.07793578685404627,-0.012776440243831039,5.0
0.5840954052033994,0.19555575151118287,-0.44893064636166485,0.051285834568449845,-0.06256942387551881,-0.031117260505024946,5.0
0.5906217227622129,0.21813647286054327,-0.454624384615514,0.04836186336748197,-0.07409419376666532,-0.020498894133359535,5.0
0.5840954052033994,0.19555575151118287,-0.4631649857671283,0.02847885955753041,-0.06487437972794735,-0.00215806798535701,5.0
0.5775690876445859,0.2012009194964524,-0.47170561183537996,0.021461331528246842,-0.054886237700756915,-0.005053989297706846,5.0
0.600411199100436,0.24071719420990376,-0.4773993376309104,0.008011062933904932,0.06036147526720269,0.00846030132971268,5.0
0.6297793996345805,0.252007554884584,-0.5001742906463067,0.05654898237356209,0.07419120101077777,-0.06490298560187155,5.0
0.6069375166592496,0.20684611218586307,-0.49163368949469255,0.044268304756016716,0.022713887902578417,-0.024360116663017337,5.0
0.5775690876445859,0.1334587554483711,-0.45177752171774904,0.06590568990460809,-0.07178923791423675,-0.007949907666652323,5.0
0.5612532937475494,0.0995876734243304,-0.4460837834638998,0.07760157448558584,-0.06487437972794735,-0.00022745672052812548,5.0
0.5743059288651795,0.11087803409901065,-0.45177752171774904,0.0641513072286061,-0.03567828632034667,0.025835818901896446,5.0
0.5775690876445859,0.11087803409901065,-0.47170561183537996,0.07175363208365011,-0.02492183504667636,0.032592963847680664,5.0
0.5971480403210291,0.11652322678842131,-0.460318135327682,0.07058404355868424,-0.021080241959295414,0.03452357676817448,5.0
0.59388488154162,0.1052328661137411,-0.45747125997159793,0.0641513072286061,0.005810889739004027,0.00846030132971268,5.0
0.59388488154162,0.1052328661137411,-0.45747125997159793,0.08403431059277028,-0.015702016322460245,0.03452357676817448,5.0
0.580832246423993,0.1447491161230513,-0.47455246227482634,0.08929745839788253,-0.028763423448559144,0.023905206165365397,5.0
0.5873585639828065,0.15603947679773153,-0.4802462129869943,0.08988225299470601,-0.014165381430256951,0.02100928632471774,5.0
0.59388488154162,0.15603947679773153,-0.4773993376309104,0.10801087123103756,-0.021080241959295414,0.061552156735274116,5.0
0.5906217227622129,0.16732983747241179,-0.4887868141386084,0.11444360822979677,0.009652480483635886,0.05093378594850226,5.0
0.600411199100436,0.1616846694871422,-0.4773993376309104,0.1039173126195723,0.035006977289732025,0.05093378594850226,5.0
0.59388488154162,0.19555575151118287,-0.49163368949469255,0.10274772342592532,0.09416747100866421,0.05962154547044522,5.0
0.5873585639828065,0.19555575151118287,-0.4887868141386084,0.09397581160617129,0.09724074547856895,0.04996848031608781,5.0
0.5775690876445859,0.19555575151118287,-0.48309308834307824,0.09573019539664174,0.06958129399141881,0.06444807804762392,5.0
0.5775690876445859,0.15603947679773153,-0.4773993376309104,0.07760157448558584,0.04269015877899575,0.06444807804762392,5.0
0.5840954052033994,0.1729750301618224,-0.4773993376309104,0.08169513398862589,0.03116538713078743,0.04900317321197121,5.0
0.5873585639828065,0.1729750301618224,-0.4944805648507765,0.10625649100686622,0.0734228823933016,0.052864400156735464,5.0
0.5840954052033994,0.16732983747241179,-0.5030211660023906,0.11444360822979677,0.07956942664761293,0.05189909305261886,5.0
0.580832246423993,0.1447491161230513,-0.48309308834307824,0.14134414185218147,0.07265456377582541,0.07023991478551493,5.0
0.5677796113063655,0.13910394813778176,-0.47170561183537996,0.13198743543560396,0.01656734335542343,0.041280721897921466,5.0
0.5775690876445859,0.15039430881246196,-0.4802462129869943,0.14368332023947541,-0.014165381430256951,0.06251746383939072,5.0
0.5775690876445859,0.1729750301618224,-0.47455246227482634,0.14602249862676936,-0.025690153664152542,0.022939899061248797,5.0
0.5775690876445859,0.15039430881246196,-0.4773993376309104,0.171753439489208,-0.01109210930310128,-0.008915214770768943,5.0
0.580832246423993,0.18426539083650273,-0.4631649857671283,0.170583850295561,-0.004177246431313731,-0.00022745672052812548,5.0
0.5743059288651795,0.1899105588217722,-0.47170561183537996,0.16941426110191404,-0.00878715345067269,0.006529690064883784,5.0
0.5775690876445859,0.19555575151118287,-0.47170561183537996,0.149531259075112,-0.027226790899104927,-0.004088682193590227,5.0
0.5840954052033994,0.19555575151118287,-0.4688587364792961,0.15187043746240597,-0.017238653557412623,0.013286833906891385,5.0
0.5743059288651795,0.21249128017113267,-0.46601186112321225,0.1583031780274643,-0.014165381430256951,0.022939899061248797,5.0
0.5775690876445859,0.1899105588217722,-0.4802462129869943,0.1536248212528764,0.0012009815482705113,0.02969704437495855,5.0
0.5840954052033994,0.19555575151118287,-0.47455246227482634,0.1682446790408653,-0.0018722905788851685,0.021974593428834344,5.0
0.5873585639828065,0.18426539083650273,-0.47455246227482634,0.1647359114599244,-0.004945562706040844,0.023905206165365397,5.0
0.5775690876445859,0.1899105588217722,-0.4802462129869943,0.15771838343064082,-0.00110397430415806,0.039350109161390416,5.0
0.5775690876445859,0.1899105588217722,-0.49163368949469255,0.16590550065357135,0.009652480483635886,0.014252141011007987,5.0
0.5743059288651795,0.20684611218586307,-0.4773993376309104,0.1512856428655825,0.021945569870789498,0.032592963847680664,5.0
0.5743059288651795,0.21249128017113267,-0.4802462129869943,0.1676598844440418,0.03193370516257635,0.021974593428834344,5.0
0.5775690876445859,0.24071719420990376,-0.47455246227482634,0.15771838343064082,0.01579902473794724,0.01232152827447694,5.0
0.580832246423993,0.21249128017113267,-0.4887868141386084,0.13140264083878045,0.013494071228267754,0.039350109161390416,5.0
0.5840954052033994,0.21813647286054327,-0.4859399387825245,0.12847866785466305,0.020408933514368024,0.01618275374753904,5.0
0.5840954052033994,0.2237816408458129,-0.4802462129869943,0.11502840282662026,0.006579207185105673,0.03452357676817448,5.0
0.5873585639828065,0.22942683353522356,-0.49163368949469255,0.12204593442220296,0.01579902473794724,0.032592963847680664,5.0
0.5840954052033994,0.19555575151118287,-0.4859399387825245,0.10450210721639577,0.041921840161519563,0.00846030132971268,5.0
0.5840954052033994,0.21249128017113267,-0.5115617671540048,0.09105184040520342,0.032702023194365264,0.021974593428834344,5.0
0.5775690876445859,0.20684611218586307,-0.47170561183537996,0.09806937021763655,0.018103979419001267,0.01618275374753904,5.0
0.5840954052033994,0.20684611218586307,-0.47170561183537996,0.09046704580837993,0.012725752610791565,0.013286833906891385,5.0
0.5971480403210291,0.21249128017113267,-0.4802462129869943,0.08403431059277028,0.011957433993315374,0.011356222642062489,5.0
0.580832246423993,0.2237816408458129,-0.5001742906463067,0.07818636819083455,0.0012009815482705113,0.020043979220601138,5.0
0.5775690876445859,0.2012009194964524,-0.47170561183537996,0.08578869260009117,0.011957433993315374,0.022939899061248797,5.0
0.5775690876445859,0.21249128017113267,-0.4802462129869943,0.08461910518959376,0.0473000681411038,0.038384802609162126,5.0
0.5775690876445859,0.2350720015204931,-0.48309308834307824,0.06005774817135344,0.027323796678999198,0.022939899061248797,5.0
0.59388488154162,0.21249128017113267,-0.4944805648507765,0.07994075108973023,0.028092114710788117,0.04224602863411253,5.0
0.5775690876445859,0.20684611218586307,-0.4887868141386084,0.10508690181321925,0.04806838441583092,0.05769093126221202,5.0
0.580832246423993,0.20684611218586307,-0.48309308834307824,0.11736758121391419,0.07111792654087302,0.06734399641656942,5.0
0.5840954052033994,0.21813647286054327,-0.4944805648507765,0.11678278661709071,0.03039706909899851,0.028731738006693024,5.0
0.580832246423993,0.21813647286054327,-0.5030211660023906,0.10801087123103756,0.026555478500788463,0.04224602863411253,5.0
0.580832246423993,0.21813647286054327,-0.5030211660023906,0.10157813779857747,0.019640615482579105,0.02969704437495855,5.0
0.5873585639828065,0.2237816408458129,-0.4887868141386084,0.10099334320175397,0.02425052418578898,0.02969704437495855,5.0
0.5906217227622129,0.2237816408458129,-0.4887868141386084,0.0922214295988504,0.035006977289732025,0.039350109161390416,5.0
0.5840954052033994,0.2350720015204931,-0.49163368949469255,0.09573019539664174,0.05805652175752322,0.03741949614891521,5.0
0.5840954052033994,0.2350720015204931,-0.49163368949469255,0.10625649100686622,0.06420306601183456,0.027766431638427496,5.0
0.5775690876445859,0.2012009194964524,-0.4859399387825245,0.08812786920423556,0.04499511228867524,0.033558270215946186,5.0
0.5775690876445859,0.2012009194964524,-0.4859399387825245,0.09105184040520342,0.015030707291845592,0.0036337687525339704,5.0
0.580832246423993,0.21249128017113267,-0.49163368949469255,0.07877116278765803,0.03884856803436389,0.020043979220601138,5.0
0.580832246423993,0.21249128017113267,-0.49163368949469255,0.06239692477549782,0.04422679484257359,0.04321133500237806,5.0
0.580832246423993,0.2237816408458129,-0.508714891797921,0.08520389800326769,0.055751565905094634,0.030662350743224074,5.0
0.580832246423993,0.2237816408458129,-0.508714891797921,0.08578869260009117,0.06343474739435837,0.04803786757955676,5.0
0.5840954052033994,0.18426539083650273,-0.47455246227482634,0.0822799276938746,0.05114165888573568,0.06830930352068604,5.0
0.5873585639828065,0.20684611218586307,-0.5001742906463067,0.06473610160253589,0.03654361335330986,0.07313583609786473,5.0
0.5873585639828065,0.20684611218586307,-0.5001742906463067,0.0740928086877945,0.04345847739647194,0.030662350743224074,5.0
0.580832246423993,0.20684611218586307,-0.4887868141386084,0.07526239698986668,0.05267829377793896,0.05769093126221202,5.0
0.5840954052033994,0.19555575151118287,-0.4944805648507765,0.08403431059277028,0.05498324728761846,0.04803786757955676,5.0
0.580832246423993,0.17862019814709199,-0.49163368949469255,0.08812786920423556,0.04345847739647194,0.03452357676817448,5.0
0.5710427700857725,0.2237816408458129,-0.4887868141386084,0.09280622419567389,0.02962875106720959,0.024870511797779844,5.0
0.5873585639828065,0.21813647286054327,-0.4944805648507765,0.08461910518959376,0.045763430906151426,0.017148060851655638,5.0
0.5840954052033994,0.2012009194964524,-0.48309308834307824,0.07584719158669018,0.02962875106720959,0.028731738006693024,5.0
0.5775690876445859,0.1899105588217722,-0.4859399387825245,0.0735080145367584,0.03884856803436389,0.024870511797779844,5.0
0.5971480403210291,0.18426539083650273,-0.4944805648507765,0.08637348719691466,0.02348220608078915,0.030662350743224074,5.0
0.5906217227622129,0.1729750301618224,-0.5058680413584747,0.09456060620299477,0.03116538713078743,0.030662350743224074,5.0
0.5906217227622129,0.18426539083650273,-0.4859399387825245,0.07526239698986668,0.03731193197078605,0.03741949614891521,5.0
0.5840954052033994,0.19555575151118287,-0.4802462129869943,0.08929745839788253,0.032702023194365264,0.03741949614891521,5.0
0.5873585639828065,0.17862019814709199,-0.4887868141386084,0.0922214295988504,0.021945569870789498,0.040315415529655944,5.0
0.5840954052033994,0.17862019814709199,-0.47170561183537996,0.09806937021763655,0.026555478500788463,0.052864400156735464,5.0
0.5840954052033994,0.1899105588217722,-0.5001742906463067,0.08988225299470601,0.03423865984363037,0.030662350743224074,5.0
0.5743059288651795,0.19555575151118287,-0.5001742906463067,0.08169513398862589,0.027323796678999198,0.05576031852568097,5.0
0.5775690876445859,0.18426539083650273,-0.5058680413584747,0.07877116278765803,0.040385204097941725,0.07023991478551493,5.0
0.5775690876445859,0.1729750301618224,-0.5058680413584747,0.08812786920423556,0.04653174952362762,0.032592963847680664,5.0
0.580832246423993,0.19555575151118287,-0.4859399387825245,0.08812786920423556,0.05728820314004702,0.05672562562979757,5.0
0.5677796113063655,0.2012009194964524,-0.48309308834307824,0.08520389800326769,0.06036147526720269,0.030662350743224074,5.0
0.5710427700857725,0.1899105588217722,-0.49163368949469255,0.06532089575357199,0.05651988452257084,0.05479501289326652,5.0
0.580832246423993,0.18426539083650273,-0.4859399387825245,0.07701677988876236,0.018103979419001267,0.024870511797779844,5.0
0.580832246423993,0.17862019814709199,-0.46601186112321225,0.0916366350020269,0.041921840161519563,0.027766431638427496,5.0
0.5775690876445859,0.17862019814709199,-0.46601186112321225,0.09748457740396263,0.032702023194365264,0.025835818901896446,5.0
0.5775690876445859,0.1899105588217722,-0.4887868141386084,0.0916366350020269,0.03654361335330986,0.021974593428834344,5.0
0.5775690876445859,0.1729750301618224,-0.47455246227482634,0.1039173126195723,0.025787160395788634,0.04224602863411253,5.0
0.5840954052033994,0.19555575151118287,-0.4773993376309104,0.10216293239540095,0.022713887902578417,0.022939899061248797,5.0
0.5775690876445859,0.2012009194964524,-0.47170561183537996,0.0922214295988504,0.028860432742577036,0.05479501289326652,5.0
0.5873585639828065,0.17862019814709199,-0.47170561183537996,0.08754307639056162,0.026555478500788463,0.030662350743224074,5.0
0.5840954052033994,0.19555575151118287,-0.4688587364792961,0.09280622419567389,0.04806838441583092,0.03452357676817448,5.0
0.5775690876445859,0.19555575151118287,-0.4773993376309104,0.0822799276938746,0.05267829377793896,0.05479501289326652,5.0
0.5743059288651795,0.18426539083650273,-0.4631649857671283,0.07818636819083455,0.03961688665184008,0.039350109161390416,5.0
0.5906217227622129,0.16732983747241179,-0.45747125997159793,0.07760157448558584,0.03423865984363037,0.05865623836632862,5.0
0.5840954052033994,0.18426539083650273,-0.47455246227482634,0.07877116278765803,0.02962875106720959,0.05672562562979757,5.0
0.5840954052033994,0.18426539083650273,-0.4859399387825245,0.08812786920423556,0.03577529590720821,0.023905206165365397,5.0
0.5873585639828065,0.16732983747241179,-0.4859399387825245,0.07760157448558584,0.04345847739647194,0.04321133500237806,5.0
0.5873585639828065,0.19555575151118287,-0.49163368949469255,0.08052554479497893,0.04269015877899575,0.05672562562979757,5.0
0.5840954052033994,0.18426539083650273,-0.48309308834307824,0.08520389800326769,0.05805652175752322,0.04321133500237806,5.0
0.580832246423993,0.19555575151118287,-0.48309308834307824,0.08988225299470601,0.05421493101289135,0.033558270215946186,5.0
0.5873585639828065,0.18426539083650273,-0.4802462129869943,0.08637348719691466,0.055751565905094634,0.05769093126221202,5.0
0.59388488154162,0.1729750301618224,-0.4688587364792961,0.08169513398862589,0.040385204097941725,0.033558270215946186,5.0
0.5840954052033994,0.17862019814709199,-0.48309308834307824,0.09631498821031566,0.04269015877899575,0.040315415529655944,5.0
0.5840954052033994,0.1899105588217722,-0.4773993376309104,0.09339101700934778,0.05421493101289135,0.05672562562979757,5.0
0.5840954052033994,0.18426539083650273,-0.49163368949469255,0.0916366350020269,0.04115352271541792,0.05576031852568097,5.0
0.5840954052033994,0.18426539083650273,-0.49163368949469255,0.10157813779857747,0.041921840161519563,0.024870511797779844,5.0
0.5906217227622129,0.1729750301618224,-0.45747125997159793,0.08578869260009117,0.026555478500788463,0.040315415529655944,5.0
0.59388488154162,0.18426539083650273,-0.47455246227482634,0.08871266380105904,0.04806838441583092,0.022939899061248797,5.0
0.5906217227622129,0.2012009194964524,-0.4887868141386084,0.09806937021763655,0.05037334026825949,0.033558270215946186,5.0
0.59388488154162,0.1899105588217722,-0.5058680413584747,0.09339101700934778,0.03654361335330986,0.038384802609162126,5.0
0.5906217227622129,0.1899105588217722,-0.4859399387825245,0.08520389800326769,0.041921840161519563,0.03548888322842139,5.0
0.5743059288651795,0.1899105588217722,-0.4773993376309104,0.08403431059277028,0.05805652175752322,0.04514194773890911,5.0
0.5743059288651795,0.1899105588217722,-0.4773993376309104,0.0922214295988504,0.06958129399141881,0.06251746383939072,5.0
0.5710427700857725,0.19555575151118287,-0.49163368949469255,0.08754307639056162,0.06881297537394263,0.022939899061248797,5.0
0.5775690876445859,0.2012009194964524,-0.4688587364792961,0.08461910518959376,0.04806838441583092,0.06058685110285967,5.0
0.580832246423993,0.18426539083650273,-0.4859399387825245,0.08111033939180241,0.035006977289732025,0.05093378594850226,5.0
0.5840954052033994,0.1729750301618224,-0.46601186112321225,0.07116883793261403,0.04422679484257359,0.02969704437495855,5.0
0.5840954052033994,0.1899105588217722,-0.4802462129869943,0.07584719158669018,0.041921840161519563,0.04514194773890911,5.0
0.5840954052033994,0.19555575151118287,-0.49163368949469255,0.08578869260009117,0.05421493101289135,0.061552156735274116,5.0
0.5840954052033994,0.16732983747241179,-0.4859399387825245,0.08812786920423556,0.0626664287768822,0.07603175446681024,5.0
0.5840954052033994,0.17862019814709199,-0.4859399387825245,0.07526239698986668,0.06881297537394263,0.05576031852568097,5.0
0.580832246423993,0.16732983747241179,-0.48309308834307824,0.09105184040520342,0.05037334026825949,0.032592963847680664,5.0
0.5710427700857725,0.1729750301618224,-0.47170561183537996,0.08169513398862589,0.0473000681411038,0.05672562562979757,5.0
0.5710427700857725,0.21813647286054327,-0.4688587364792961,0.0735080145367584,0.06189811250215507,0.04417664137064358,5.0
0.5775690876445859,0.1729750301618224,-0.47170561183537996,0.08461910518959376,0.05344661239541516,0.04417664137064358,5.0
0.5840954052033994,0.1447491161230513,-0.4688587364792961,0.06941445525661204,0.06958129399141881,0.05093378594850226,5.0
0.5873585639828065,0.16732983747241179,-0.47455246227482634,0.08461910518959376,0.055751565905094634,0.040315415529655944,5.0
0.5775690876445859,0.1729750301618224,-0.48309308834307824,0.06999924940764814,0.04345847739647194,0.05962154547044522,5.0
0.5840954052033994,0.1616846694871422,-0.47170561183537996,0.07526239698986668,0.05805652175752322,0.05769093126221202,5.0
0.5840954052033994,0.1616846694871422,-0.4688587364792961,0.07233842623468621,0.05728820314004702,0.05672562562979757,5.0
0.5840954052033994,0.16732983747241179,-0.47170561183537996,0.09280622419567389,0.06189811250215507,0.05093378594850226,5.0
0.5840954052033994,0.1447491161230513,-0.47170561183537996,0.09456060620299477,0.07111792654087302,0.06927461062480264,5.0
0.59388488154162,0.1729750301618224,-0.4688587364792961,0.08988225299470601,0.0734228823933016,0.03741949614891521,5.0
0.5873585639828065,0.15603947679773153,-0.45747125997159793,0.0916366350020269,0.06881297537394263,0.08085828704398892,5.0
0.5840954052033994,0.15603947679773153,-0.45747125997159793,0.09280622419567389,0.07111792654087302,0.04514194773890911,5.0
0.5906217227622129,0.1729750301618224,-0.47170561183537996,0.08403431059277028,0.0811060638825653,0.00846030132971268,5.0
0.5873585639828065,0.1729750301618224,-0.4773993376309104,0.09865416481446004,0.07419120101077777,0.04996848031608781,5.0
0.5840954052033994,0.19555575151118287,-0.46601186112321225,0.09397581160617129,0.049605021650783294,0.033558270215946186,5.0
0.580832246423993,0.19555575151118287,-0.45747125997159793,0.09748457740396263,0.05421493101289135,0.04417664137064358,5.0
0.580832246423993,0.18426539083650273,-0.46601186112321225,0.08520389800326769,0.05498324728761846,0.039350109161390416,5.0
0.5840954052033994,0.18426539083650273,-0.4802462129869943,0.07760157448558584,0.06036147526720269,0.04417664137064358,5.0
0.5906217227622129,0.17862019814709199,-0.47455246227482634,0.061812130624461725,0.033470341226154186,0.052864400156735464,5.0
0.5873585639828065,0.1729750301618224,-0.45747125997159793,0.07175363208365011,0.06420306601183456,0.07023991478551493,5.0
0.5971480403210291,0.18426539083650273,-0.4688587364792961,0.06999924940764814,0.06573970090403786,0.07313583609786473,5.0
0.5840954052033994,0.16732983747241179,-0.45747125997159793,0.0641513072286061,0.07188624515834921,0.052864400156735464,5.0
0.59388488154162,0.18426539083650273,-0.454624384615514,0.060642541876602146,0.0488367030333071,0.08085828704398892,5.0
0.5840954052033994,0.18426539083650273,-0.48309308834307824,0.054794600366241196,0.06497138228656169,0.06541338220833622,5.0
0.59388488154162,0.15603947679773153,-0.4688587364792961,0.06473610160253589,0.09647242686109277,0.08568481962116765,5.0
0.580832246423993,0.15603947679773153,-0.454624384615514,0.05947295357452995,0.10261897111540412,0.06927461062480264,5.0
0.5840954052033994,0.16732983747241179,-0.4688587364792961,0.027894064960706923,0.08494765228444812,0.07796236867504344,5.0
0.5840954052033994,0.16732983747241179,-0.4688587364792961,0.039589949764578386,0.09339915239118801,0.07120522188963152,5.0
0.5906217227622129,0.15603947679773153,-0.4375431698539668,0.038420362354080986,0.0734228823933016,0.07217052899374814,5.0
0.5840954052033994,0.1616846694871422,-0.47170561183537996,0.04485309935284019,0.05651988452257084,0.10595625409059475,5.0
0.5840954052033994,0.1616846694871422,-0.47170561183537996,0.0822799276938746,0.10185065249792795,0.052864400156735464,5.0
0.59388488154162,0.1616846694871422,-0.4773993376309104,0.09631498821031566,0.11337542707457264,0.05093378594850226,5.0
0.5906217227622129,0.16732983747241179,-0.47170561183537996,0.07701677988876236,0.08571597090192429,0.09533788183212073,5.0
0.5840954052033994,0.17862019814709199,-0.4688587364792961,0.033742007362642656,0.07880110803013676,0.07796236867504344,5.0
0.5906217227622129,0.16732983747241179,-0.4375431698539668,0.03140283254164782,0.08033774526508913,0.09630318893623736,5.0
0.5906217227622129,0.16732983747241179,-0.45747125997159793,0.04192912815187234,0.10108233388045174,0.08278890125222214,5.0
0.5906217227622129,0.1729750301618224,-0.4631649857671283,0.033742007362642656,0.12182692249581437,0.11174809082848576,5.0
0.5971480403210291,0.15603947679773153,-0.44323690810781585,0.020876536931423346,0.14948637398296452,0.10306033277824493,5.0
0.59388488154162,0.15603947679773153,-0.4261556933462686,0.008011062933904932,0.12874179005310007,0.07410114025857703,5.0
0.580832246423993,0.1447491161230513,-0.40907447858472135,0.010935035918022348,0.10108233388045174,0.09437257472800414,5.0
0.5710427700857725,0.0995876734243304,-0.41192134148248655,0.024970095542888624,0.041921840161519563,0.05962154547044522,5.0
0.5840954052033994,0.1052328661137411,-0.40338074033087234,0.046022686763337595,0.03961688665184008,0.05382970578914992,5.0
0.5840954052033994,0.1447491161230513,-0.4318494316001177,0.05596418866831338,0.05805652175752322,0.04224602863411253,5.0
0.5840954052033994,0.1447491161230513,-0.4460837834638998,0.07760157448558584,0.05037334026825949,0.04900317321197121,5.0
0.5775690876445859,0.12216839477369089,-0.4318494316001177,0.08520389800326769,0.051909975160462786,0.05672562562979757,5.0
0.5906217227622129,0.1052328661137411,-0.4375431698539668,0.08403431059277028,0.04653174952362762,0.07023991478551493,5.0
0.5906217227622129,0.11087803409901065,-0.4318494316001177,0.07233842623468621,0.06189811250215507,0.08278890125222214,5.0
0.5873585639828065,0.11652322678842131,-0.4403900452100507,0.0553793940714899,0.05344661239541516,0.039350109161390416,5.0
0.5873585639828065,0.1729750301618224,-0.45177752171774904,0.05947295357452995,0.05421493101289135,0.06251746383939072,5.0
0.5873585639828065,0.15603947679773153,-0.4375431698539668,0.05771857067563428,0.0626664287768822,0.07796236867504344,5.0
0.5775690876445859,0.13910394813778176,-0.4375431698539668,0.05654898237356209,0.05728820314004702,0.04803786757955676,5.0
0.5775690876445859,0.1447491161230513,-0.42900256870235265,0.05888815986928125,0.03116538713078743,0.04610725410717463,5.0
0.59388488154162,0.16732983747241179,-0.45747125997159793,0.06239692477549782,0.003505935057949998,0.032592963847680664,5.0
0.600411199100436,0.15603947679773153,-0.44893064636166485,0.051285834568449845,0.01579902473794724,0.04321133500237806,5.0
0.580832246423993,0.12781358746310156,-0.41761507973633555,0.05654898237356209,-0.009555472068148897,0.038384802609162126,5.0
0.59388488154162,0.1334587554483711,-0.42900256870235265,0.05011624715795244,0.01118911654721373,0.028731738006693024,5.0
0.59388488154162,0.1334587554483711,-0.42900256870235265,0.045437892166514116,0.0004326629307943223,0.032592963847680664,5.0
0.5840954052033994,0.1616846694871422,-0.4460837834638998,0.023215711752418173,-0.00571388132351702,0.038384802609162126,5.0
0.5677796113063655,0.15603947679773153,-0.4318494316001177,0.00040873674149872856,-0.06717932620937964,0.040315415529655944,5.0
0.5710427700857725,0.1729750301618224,-0.4375431698539668,-0.011871942659196213,-0.03951987940772762,0.024870511797779844,5.0
0.5873585639828065,0.1729750301618224,-0.46601186112321225,-0.015965497704362355,-0.027226790899104927,0.033558270215946186,5.0
0.59388488154162,0.1729750301618224,-0.45177752171774904,-0.025322204120939874,0.02425052418578898,0.04417664137064358,5.0
0.59388488154162,0.13910394813778176,-0.4460837834638998,-0.011287148062372715,0.014262388674369405,0.05672562562979757,5.0
0.580832246423993,0.1052328661137411,-0.41761507973633555,0.005087093516086633,-0.02492183504667636,0.013286833906891385,5.0
0.5775690876445859,0.1052328661137411,-0.4375431698539668,0.033742007362642656,-0.054886237700756915,0.007494997169000388,5.0
0.5873585639828065,0.11652322678842131,-0.4375431698539668,0.03725077494358356,-0.021848560576771595,0.005564382960767182,5.0
0.6036743578798426,0.11652322678842131,-0.4403900452100507,0.060642541876602146,-0.00033565568668187545,0.01232152827447694,5.0
0.6069375166592496,0.1447491161230513,-0.45747125997159793,0.06824486678736957,-0.00801883717594561,0.01811336648407009,5.0
0.59388488154162,0.1334587554483711,-0.44323690810781585,0.07116883793261403,-0.00878715345067269,0.03452357676817448,5.0
0.5971480403210291,0.11652322678842131,-0.4460837834638998,0.08520389800326769,0.021945569870789498,0.017148060851655638,5.0
0.59388488154162,0.1334587554483711,-0.45177752171774904,0.08929745839788253,0.009652480483635886,0.040315415529655944,5.0
0.5840954052033994,0.1447491161230513,-0.4375431698539668,0.09514540079981824,-0.0018722905788851685,0.02680112527016197,5.0
0.5971480403210291,0.13910394813778176,-0.4460837834638998,0.07877116278765803,0.0050425722929023755,0.0036337687525339704,5.0
0.6069375166592496,0.12781358746310156,-0.44893064636166485,0.0641513072286061,-0.00110397430415806,0.033558270215946186,5.0
0.600411199100436,0.12781358746310156,-0.4403900452100507,0.05888815986928125,-0.00033565568668187545,-0.00215806798535701,5.0
0.59388488154162,0.11652322678842131,-0.44323690810781585,0.0740928086877945,0.011957433993315374,0.03548888322842139,5.0
0.59388488154162,0.11652322678842131,-0.4318494316001177,0.07701677988876236,0.018872297450790186,0.00846030132971268,5.0
0.59388488154162,0.13910394813778176,-0.4261556933462686,0.08169513398862589,0.011957433993315374,0.005564382960767182,5.0
0.5840954052033994,0.15039430881246196,-0.4460837834638998,0.10216293239540095,0.019640615482579105,0.03548888322842139,5.0
0.59388488154162,0.1447491161230513,-0.4375431698539668,0.10216293239540095,0.007347525802581863,0.021974593428834344,5.0
0.5873585639828065,0.1447491161230513,-0.4460837834638998,0.1074260802005132,-0.0026406091963613446,0.013286833906891385,5.0
0.5971480403210291,0.13910394813778176,-0.4460837834638998,0.10976525502150801,0.027323796678999198,0.005564382960767182,5.0
0.5906217227622129,0.1899105588217722,-0.4460837834638998,0.11736758121391419,0.019640615482579105,-0.017602972821009727,5.0
0.5840954052033994,0.1447491161230513,-0.44893064636166485,0.10976525502150801,0.04345847739647194,-0.005053989297706846,5.0
0.5873585639828065,0.1447491161230513,-0.454624384615514,0.10801087123103756,0.01579902473794724,-0.009880521874885534,5.0
0.5840954052033994,0.1729750301618224,-0.46601186112321225,0.10567169641004275,-0.007250518558469407,-0.020498894133359535,5.0
0.5840954052033994,0.1899105588217722,-0.45747125997159793,0.1033325180227488,-0.012628744195304574,-0.007949907666652323,5.0
0.5840954052033994,0.18426539083650273,-0.45747125997159793,0.0922214295988504,-0.00571388132351702,0.01811336648407009,5.0
0.5775690876445859,0.19555575151118287,-0.4631649857671283,0.07760157448558584,0.020408933514368024,0.04996848031608781,5.0
0.5775690876445859,0.18426539083650273,-0.45177752171774904,0.07175363208365011,0.02117725183900058,0.05576031852568097,5.0
0.6036743578798426,0.15603947679773153,-0.460318135327682,0.0553793940714899,0.027323796678999198,0.027766431638427496,5.0
0.6167269929974727,0.15603947679773153,-0.46601186112321225,0.03725077494358356,0.01579902473794724,0.023905206165365397,5.0
0.6036743578798426,0.12781358746310156,-0.46601186112321225,0.009765446724375385,0.011957433993315374,0.01232152827447694,5.0
0.600411199100436,0.1447491161230513,-0.4773993376309104,0.006256682709733589,0.041921840161519563,0.04224602863411253,5.0
0.580832246423993,0.15603947679773153,-0.44893064636166485,0.007426271903380558,0.018103979419001267,0.021974593428834344,5.0
0.580832246423993,0.13910394813778176,-0.460318135327682,0.034326801959466136,-0.011860427920577461,0.0017031574877050914,5.0
0.5775690876445859,0.12781358746310156,-0.44323690810781585,0.013274210739017168,-0.012628744195304574,0.01618275374753904,5.0
0.580832246423993,0.12781358746310156,-0.460318135327682,0.016198183723134592,-0.02492183504667636,0.0007378503835884665,5.0
0.5873585639828065,0.13910394813778176,-0.44893064636166485,0.022630917155594694,-0.023385197811723973,0.0017031574877050914,5.0
0.5906217227622129,0.1616846694871422,-0.46601186112321225,0.025554890139712103,-0.02799510483108294,0.02969704437495855,5.0
0.5971480403210291,0.1447491161230513,-0.4375431698539668,0.024970095542888624,0.026555478500788463,-0.012776440243831039,5.0
0.5971480403210291,0.1447491161230513,-0.4375431698539668,0.02847885955753041,0.040385204097941725,-0.011811133139714419,5.0
0.5840954052033994,0.15603947679773153,-0.47170561183537996,0.03608118574993661,0.033470341226154186,0.020043979220601138,5.0
0.5710427700857725,0.1447491161230513,-0.4318494316001177,0.027309273930182572,-0.006482199940993222,0.019078673588186695,5.0
0.5710427700857725,0.1447491161230513,-0.4318494316001177,0.033157212765819184,0.01656734335542343,0.027766431638427496,5.0
0.580832246423993,0.15039430881246196,-0.4375431698539668,0.03783556775725749,0.019640615482579105,0.02969704437495855,5.0
0.5775690876445859,0.17862019814709199,-0.42330881799018466,0.039005156950904465,0.02117725183900058,0.020043979220601138,5.0
0.5775690876445859,0.16732983747241179,-0.44893064636166485,0.047192275956984574,0.008115844420058051,0.03452357676817448,5.0
0.5840954052033994,0.15603947679773153,-0.4403900452100507,0.04485309935284019,-0.01954360940984119,0.023905206165365397,5.0
0.5840954052033994,0.16732983747241179,-0.45177752171774904,0.06649048416709102,-0.015702016322460245,0.0007378503835884665,5.0
0.59388488154162,0.1616846694871422,-0.45177752171774904,0.061227336473425625,-0.024153516429200154,0.01232152827447694,5.0
0.59388488154162,0.1729750301618224,-0.4460837834638998,0.040174744361401865,-0.021080241959295414,0.02100928632471774,5.0
0.59388488154162,0.1616846694871422,-0.4631649857671283,0.022630917155594694,-0.003408927813837551,0.025835818901896446,5.0
0.5873585639828065,0.1334587554483711,-0.44323690810781585,0.03725077494358356,-0.014165381430256951,0.028731738006693024,5.0
0.59388488154162,0.1447491161230513,-0.460318135327682,0.061812130624461725,0.004274253675426187,0.04803786757955676,5.0
0.59388488154162,0.1616846694871422,-0.45177752171774904,0.06707527837385055,0.010420797929737538,0.04514194773890911,5.0
0.5906217227622129,0.1729750301618224,-0.454624384615514,0.06941445525661204,0.03808025058826224,0.009425608433829284,5.0
0.59388488154162,0.16732983747241179,-0.47170561183537996,0.07175363208365011,0.032702023194365264,0.03548888322842139,5.0
0.5873585639828065,0.13910394813778176,-0.45177752171774904,0.06532089575357199,0.03039706909899851,0.04514194773890911,5.0
0.5906217227622129,0.15603947679773153,-0.45177752171774904,0.07116883793261403,0.01579902473794724,0.05189909305261886,5.0
0.5906217227622129,0.1616846694871422,-0.460318135327682,0.0828647213991233,0.0088841618661597,0.02969704437495855,5.0
0.5840954052033994,0.17862019814709199,-0.47170561183537996,0.06298171892653391,0.020408933514368024,0.040315415529655944,5.0
0.5710427700857725,0.17862019814709199,-0.46601186112321225,0.06824486678736957,0.028860432742577036,0.031627657479415136,5.0
0.5775690876445859,0.18426539083650273,-0.46601186112321225,0.07175363208365011,0.018103979419001267,0.041280721897921466,5.0
0.5840954052033994,0.18426539083650273,-0.47455246227482634,0.057133776970385575,0.01579902473794724,0.011356222642062489,5.0
0.5971480403210291,0.1616846694871422,-0.47455246227482634,0.05011624715795244,-0.03414165377089245,0.00846030132971268,5.0
0.5971480403210291,0.1616846694871422,-0.47455246227482634,0.047777068770658494,0.008115844420058051,0.020043979220601138,5.0
0.5873585639828065,0.18426539083650273,-0.4802462129869943,0.05947295357452995,0.04806838441583092,-0.009880521874885534,5.0
0.5775690876445859,0.1729750301618224,-0.454624384615514,0.039005156950904465,0.01118911654721373,0.027766431638427496,5.0
0.5775690876445859,0.1729750301618224,-0.454624384615514,0.03783556775725749,0.022713887902578417,0.019078673588186695,5.0
0.5775690876445859,0.15603947679773153,-0.45747125997159793,0.06005774817135344,-0.007250518558469407,-0.0011927608812404233,5.0
0.5840954052033994,0.15603947679773153,-0.460318135327682,0.061227336473425625,-0.004177246431313731,0.033558270215946186,5.0
0.5840954052033994,0.15603947679773153,-0.460318135327682,0.05245542376209682,0.004274253675426187,0.03548888322842139,5.0
0.580832246423993,0.15603947679773153,-0.45747125997159793,0.06356651307757001,-0.021080241959295414,0.007494997169000388,5.0
0.59388488154162,0.16732983747241179,-0.454624384615514,0.06298171892653391,0.012725752610791565,0.013286833906891385,5.0
0.59388488154162,0.16732983747241179,-0.454624384615514,0.07058404355868424,0.033470341226154186,0.0007378503835884665,5.0
0.5775690876445859,0.1447491161230513,-0.44323690810781585,0.07584719158669018,0.018103979419001267,-0.008915214770768943,5.0
0.5710427700857725,0.1729750301618224,-0.45747125997159793,0.08871266380105904,0.007347525802581863,0.002668464591821678,5.0
0.5775690876445859,0.1729750301618224,-0.44893064636166485,0.09865416481446004,0.021945569870789498,0.039350109161390416,5.0
0.5775690876445859,0.1729750301618224,-0.44893064636166485,0.0828647213991233,0.02425052418578898,0.024870511797779844,5.0
0.59388488154162,0.1616846694871422,-0.46601186112321225,0.07877116278765803,0.035006977289732025,0.02100928632471774,5.0
0.5906217227622129,0.18426539083650273,-0.45747125997159793,0.07116883793261403,0.018103979419001267,0.0007378503835884665,5.0
0.5906217227622129,0.18426539083650273,-0.45747125997159793,0.08169513398862589,0.013494071228267754,0.0036337687525339704,5.0
0.5840954052033994,0.16732983747241179,-0.44893064636166485,0.06473610160253589,0.015030707291845592,0.021974593428834344,5.0
0.580832246423993,0.18426539083650273,-0.4631649857671283,0.0922214295988504,0.0050425722929023755,0.002668464591821678,5.0
0.580832246423993,0.19555575151118287,-0.45747125997159793,0.06649048416709102,-0.00033565568668187545,0.014252141011007987,5.0
0.5840954052033994,0.1899105588217722,-0.45177752171774904,0.0735080145367584,0.006579207185105673,0.0007378503835884665,5.0
0.580832246423993,0.18426539083650273,-0.4688587364792961,0.054794600366241196,0.018103979419001267,-0.027256037975367145,5.0
0.5906217227622129,0.17862019814709199,-0.46601186112321225,0.06999924940764814,0.014262388674369405,0.0036337687525339704,5.0
0.5840954052033994,0.18426539083650273,-0.46601186112321225,0.06473610160253589,0.012725752610791565,0.009425608433829284,5.0
0.5840954052033994,0.20684611218586307,-0.4773993376309104,0.061227336473425625,0.011957433993315374,0.013286833906891385,5.0
0.5775690876445859,0.19555575151118287,-0.44893064636166485,0.060642541876602146,-0.0018722905788851685,0.019078673588186695,5.0
0.59388488154162,0.19555575151118287,-0.4887868141386084,0.05947295357452995,0.006579207185105673,0.017148060851655638,5.0
0.5906217227622129,0.1899105588217722,-0.4887868141386084,0.04251392096554624,0.006579207185105673,0.014252141011007987,5.0
0.5840954052033994,0.1899105588217722,-0.47170561183537996,0.040174744361401865,0.014262388674369405,-0.0031233750894736293,5.0
0.5840954052033994,0.1899105588217722,-0.46601186112321225,0.039005156950904465,0.02348220608078915,0.0017031574877050914,5.0
0.5873585639828065,0.1899105588217722,-0.47455246227482634,0.0290636541543539,0.02117725183900058,-0.006019293458419106,5.0
0.5775690876445859,0.21249128017113267,-0.46601186112321225,0.027894064960706923,0.004274253675426187,0.031627657479415136,5.0
0.5840954052033994,0.20684611218586307,-0.4688587364792961,0.0553793940714899,0.026555478500788463,0.02969704437495855,5.0
0.5775690876445859,0.2237816408458129,-0.47170561183537996,0.05070103997162636,0.03039706909899851,0.019078673588186695,5.0
0.5775690876445859,0.1899105588217722,-0.47170561183537996,0.033157212765819184,0.02117725183900058,0.025835818901896446,5.0
0.5775690876445859,0.18426539083650273,-0.454624384615514,0.026724479333359072,0.007347525802581863,0.01811336648407009,5.0
0.5775690876445859,0.18426539083650273,-0.46601186112321225,0.021461331528246842,0.0012009815482705113,0.013286833906891385,5.0
0.59388488154162,0.18426539083650273,-0.46601186112321225,0.02438530094606515,0.010420797929737538,0.04224602863411253,5.0
0.5873585639828065,0.21249128017113267,-0.4688587364792961,0.022046126125070314,0.011957433993315374,0.028731738006693024,5.0
0.5840954052033994,0.2237816408458129,-0.4773993376309104,0.019706947737776388,0.03654361335330986,0.05672562562979757,5.0
0.5840954052033994,0.21813647286054327,-0.4887868141386084,0.039589949764578386,0.05037334026825949,0.032592963847680664,5.0
0.5873585639828065,0.19555575151118287,-0.5058680413584747,0.026724479333359072,0.06036147526720269,0.07410114025857703,5.0
0.5873585639828065,0.2012009194964524,-0.5001742906463067,0.04309871556236974,0.05882483803225031,0.04803786757955676,5.0
0.5873585639828065,0.1729750301618224,-0.49163368949469255,0.046607481360161095,0.05421493101289135,0.05672562562979757,5.0
0.580832246423993,0.19555575151118287,-0.4802462129869943,0.060642541876602146,0.05959315664972652,0.030662350743224074,5.0
0.5677796113063655,0.19555575151118287,-0.4773993376309104,0.061812130624461725,0.05421493101289135,0.05769093126221202,5.0
0.5710427700857725,0.20684611218586307,-0.46601186112321225,0.06590568990460809,0.035006977289732025,0.040315415529655944,5.0
0.5710427700857725,0.19555575151118287,-0.47170561183537996,0.06473610160253589,0.02962875106720959,0.01811336648407009,5.0
0.5710427700857725,0.1729750301618224,-0.45747125997159793,0.06532089575357199,-0.00110397430415806,-0.0011927608812404233,5.0
0.5710427700857725,0.16732983747241179,-0.460318135327682,0.05947295357452995,-0.04105651664268,-0.009880521874885534,5.0
0.580832246423993,0.1729750301618224,-0.45747125997159793,0.06941445525661204,-0.031068379300987704,-0.02146419535066754,5.0
0.580832246423993,0.18426539083650273,-0.45747125997159793,0.0553793940714899,-0.03798324217277523,-0.020498894133359535,5.0
0.5840954052033994,0.18426539083650273,-0.46601186112321225,0.053625011172594224,-0.044898105044562785,-0.030151953400908323,5.0
0.5840954052033994,0.18426539083650273,-0.454624384615514,0.044268304756016716,-0.03337333515341627,-0.026290730871250553,5.0
0.5906217227622129,0.21813647286054327,-0.4688587364792961,0.048946657964305466,-0.015702016322460245,0.027766431638427496,5.0
0.600411199100436,0.2237816408458129,-0.47170561183537996,0.05245542376209682,0.014262388674369405,0.005564382960767182,5.0
0.6036743578798426,0.20684611218586307,-0.4773993376309104,0.05070103997162636,0.028092114710788117,0.04321133500237806,5.0
0.600411199100436,0.21249128017113267,-0.4688587364792961,0.04075953895822536,0.049605021650783294,0.022939899061248797,5.0
0.5873585639828065,0.19555575151118287,-0.49163368949469255,0.061227336473425625,0.05882483803225031,0.030662350743224074,5.0
0.5906217227622129,0.2237816408458129,-0.49163368949469255,0.06473610160253589,0.05805652175752322,0.030662350743224074,5.0
0.5840954052033994,0.21249128017113267,-0.4859399387825245,0.051285834568449845,0.0626664287768822,0.05576031852568097,5.0
0.5873585639828065,0.2237816408458129,-0.4802462129869943,0.03666598034676008,0.045763430906151426,0.05962154547044522,5.0
0.5840954052033994,0.2237816408458129,-0.4773993376309104,0.026139684736535603,0.021945569870789498,0.06251746383939072,5.0
0.5710427700857725,0.21813647286054327,-0.4688587364792961,0.02438530094606515,0.020408933514368024,0.04224602863411253,5.0
0.580832246423993,0.2012009194964524,-0.4631649857671283,0.020291742334599867,0.032702023194365264,0.04803786757955676,5.0
0.5775690876445859,0.21249128017113267,-0.46601186112321225,0.04075953895822536,0.02348220608078915,0.03548888322842139,5.0
0.5840954052033994,0.1899105588217722,-0.47170561183537996,0.05070103997162636,0.03116538713078743,0.030662350743224074,5.0
0.59388488154162,0.1899105588217722,-0.47170561183537996,0.04192912815187234,0.02425052418578898,0.005564382960767182,5.0
0.59388488154162,0.1899105588217722,-0.47170561183537996,0.05947295357452995,-0.00033565568668187545,0.01521744811512459,5.0
0.5906217227622129,0.2012009194964524,-0.4688587364792961,0.0740928086877945,0.02117725183900058,0.032592963847680664,5.0
0.5873585639828065,0.2012009194964524,-0.4688587364792961,0.07175363208365011,0.032702023194365264,0.05576031852568097,5.0
0.5840954052033994,0.2237816408458129,-0.47455246227482634,0.0828647213991233,0.05344661239541516,0.028731738006693024,5.0
0.59388488154162,0.19555575151118287,-0.47170561183537996,0.0822799276938746,0.04806838441583092,0.03741949614891521,5.0
0.5873585639828065,0.19555575151118287,-0.4859399387825245,0.08812786920423556,0.03808025058826224,0.038384802609162126,5.0
0.5743059288651795,0.2012009194964524,-0.46601186112321225,0.07877116278765803,0.03731193197078605,0.03452357676817448,5.0
0.5775690876445859,0.2350720015204931,-0.4773993376309104,0.08111033939180241,0.041921840161519563,0.03741949614891521,5.0
0.5775690876445859,0.21249128017113267,-0.47170561183537996,0.08929745839788253,0.03731193197078605,0.028731738006693024,5.0
0.5840954052033994,0.2012009194964524,-0.4688587364792961,0.06824486678736957,0.03884856803436389,0.05576031852568097,5.0
0.5906217227622129,0.19555575151118287,-0.4688587364792961,0.07935595649290673,0.03731193197078605,0.07023991478551493,5.0
0.5840954052033994,0.2237816408458129,-0.45177752171774904,0.0740928086877945,0.03423865984363037,0.0017031574877050914,5.0
0.580832246423993,0.252007554884584,-0.46601186112321225,0.0735080145367584,0.018872297450790186,0.031627657479415136,5.0
0.580832246423993,0.2237816408458129,-0.4773993376309104,0.08812786920423556,0.03577529590720821,0.030662350743224074,5.0
0.5840954052033994,0.2012009194964524,-0.4773993376309104,0.07994075108973023,0.04806838441583092,0.021974593428834344,5.0
0.5743059288651795,0.21249128017113267,-0.4773993376309104,0.07643198529193887,0.03808025058826224,0.03452357676817448,5.0
0.5743059288651795,0.21249128017113267,-0.46601186112321225,0.06941445525661204,0.02962875106720959,0.04417664137064358,5.0
0.5677796113063655,0.2012009194964524,-0.4773993376309104,0.06356651307757001,0.03039706909899851,0.07892767283575572,5.0
0.5710427700857725,0.19555575151118287,-0.4859399387825245,0.0828647213991233,0.040385204097941725,0.01521744811512459,5.0
0.5775690876445859,0.21813647286054327,-0.4773993376309104,0.07994075108973023,0.03884856803436389,0.04417664137064358,5.0
0.5840954052033994,0.19555575151118287,-0.47170561183537996,0.06473610160253589,0.02117725183900058,0.03452357676817448,5.0
0.5840954052033994,0.21249128017113267,-0.47170561183537996,0.06999924940764814,0.032702023194365264,0.05189909305261886,5.0
0.5873585639828065,0.2012009194964524,-0.4859399387825245,0.05888815986928125,0.03961688665184008,0.03741949614891521,5.0
0.59388488154162,0.19555575151118287,-0.4773993376309104,0.07116883793261403,0.05805652175752322,0.052864400156735464,5.0
0.5873585639828065,0.2012009194964524,-0.4802462129869943,0.06298171892653391,0.049605021650783294,0.033558270215946186,5.0
0.5840954052033994,0.19555575151118287,-0.49163368949469255,0.07292322038572231,0.03423865984363037,0.017148060851655638,5.0
0.5840954052033994,0.19555575151118287,-0.4802462129869943,0.0834495159959468,0.011957433993315374,0.02969704437495855,5.0
0.580832246423993,0.17862019814709199,-0.49163368949469255,0.0834495159959468,0.05267829377793896,0.040315415529655944,5.0
0.5840954052033994,0.2012009194964524,-0.4859399387825245,0.09573019539664174,0.0626664287768822,0.031627657479415136,5.0
0.580832246423993,0.19555575151118287,-0.46601186112321225,0.08461910518959376,0.040385204097941725,0.04417664137064358,5.0
0.5775690876445859,0.19555575151118287,-0.4688587364792961,0.08578869260009117,0.027323796678999198,0.04707256047544016,5.0
0.5743059288651795,0.21249128017113267,-0.454624384615514,0.07233842623468621,0.018872297450790186,0.03548888322842139,5.0
0.5775690876445859,0.2237816408458129,-0.4773993376309104,0.06707527837385055,0.04422679484257359,0.032592963847680664,5.0
0.5840954052033994,0.2012009194964524,-0.4773993376309104,0.05771857067563428,0.05498324728761846,0.06251746383939072,5.0
0.5840954052033994,0.21813647286054327,-0.47170561183537996,0.06532089575357199,0.05805652175752322,0.041280721897921466,5.0
0.5840954052033994,0.21249128017113267,-0.46601186112321225,0.06239692477549782,0.04115352271541792,0.052864400156735464,5.0
0.5840954052033994,0.2237816408458129,-0.49163368949469255,0.0641513072286061,0.03808025058826224,0.03548888322842139,5.0
0.5775690876445859,0.2237816408458129,-0.49163368949469255,0.05187062916527333,0.025787160395788634,0.04803786757955676,5.0
0.5775690876445859,0.24071719420990376,-0.4887868141386084,0.047192275956984574,0.028860432742577036,0.023905206165365397,5.0
0.59388488154162,0.2350720015204931,-0.4773993376309104,0.038420362354080986,0.04499511228867524,0.01521744811512459,5.0
0.5840954052033994,0.2350720015204931,-0.46601186112321225,0.03198762713847132,0.028092114710788117,0.041280721897921466,5.0
0.5710427700857725,0.2350720015204931,-0.45747125997159793,0.019122153140952898,0.019640615482579105,0.031627657479415136,5.0
0.5677796113063655,0.21249128017113267,-0.4403900452100507,0.05070103997162636,-0.00878715345067269,0.017148060851655638,5.0
0.5743059288651795,0.20684611218586307,-0.454624384615514,0.04075953895822536,-0.04720306089699135,0.025835818901896446,5.0
0.59388488154162,0.20684611218586307,-0.47170561183537996,0.03783556775725749,-0.0018722905788851685,0.02100928632471774,5.0
0.59388488154162,0.21813647286054327,-0.4802462129869943,0.023215711752418173,0.011957433993315374,0.02100928632471774,5.0
0.5906217227622129,0.2350720015204931,-0.4887868141386084,0.024970095542888624,0.01118911654721373,0.061552156735274116,5.0
0.59388488154162,0.2350720015204931,-0.4859399387825245,0.017952563947305922,0.020408933514368024,0.038384802609162126,5.0
0.5840954052033994,0.21249128017113267,-0.4773993376309104,0.016198183723134592,0.018103979419001267,0.061552156735274116,5.0
0.5775690876445859,0.21813647286054327,-0.47455246227482634,0.03198762713847132,0.04422679484257359,0.04900317321197121,5.0
0.580832246423993,0.20684611218586307,-0.46601186112321225,0.017952563947305922,0.032702023194365264,0.04321133500237806,5.0
0.5840954052033994,0.20684611218586307,-0.4688587364792961,0.0325724217352948,-0.031068379300987704,0.033558270215946186,5.0
0.5775690876445859,0.1899105588217722,-0.4773993376309104,0.05070103997162636,-0.06564269834542356,0.013286833906891385,5.0
0.5677796113063655,0.17862019814709199,-0.4773993376309104,0.017367769350482443,-0.04720306089699135,0.02680112527016197,5.0
0.5840954052033994,0.1899105588217722,-0.5058680413584747,0.022046126125070314,-0.004177246431313731,0.04321133500237806,5.0
0.5840954052033994,0.21249128017113267,-0.4773993376309104,0.008595857530728416,0.015030707291845592,0.04417664137064358,5.0
0.5840954052033994,0.2237816408458129,-0.454624384615514,-0.011871942659196213,0.0488367030333071,0.025835818901896446,5.0
0.5775690876445859,0.18426539083650273,-0.4859399387825245,-0.028830971701880783,0.018103979419001267,0.07120522188963152,5.0
0.5775690876445859,0.18426539083650273,-0.4688587364792961,-0.00894796967507879,0.022713887902578417,0.06444807804762392,5.0
0.580832246423993,0.18426539083650273,-0.46601186112321225,0.004502298919263134,0.04806838441583092,0.06927461062480264,5.0
0.5873585639828065,0.1729750301618224,-0.4631649857671283,0.020291742334599867,0.07880110803013676,0.05576031852568097,5.0
0.59388488154162,0.15603947679773153,-0.49163368949469255,0.023215711752418173,0.08341101973499387,0.041280721897921466,5.0
0.5873585639828065,0.15603947679773153,-0.4688587364792961,0.022046126125070314,0.05959315664972652,0.04996848031608781,5.0
0.5840954052033994,0.15603947679773153,-0.46601186112321225,0.034326801959466136,0.03039706909899851,0.06058685110285967,5.0
0.5873585639828065,0.1729750301618224,-0.4460837834638998,0.05245542376209682,0.03808025058826224,0.04707256047544016,5.0
0.5840954052033994,0.17862019814709199,-0.45747125997159793,0.07994075108973023,0.04499511228867524,0.04996848031608781,5.0
0.59388488154162,0.1729750301618224,-0.46601186112321225,0.09806937021763655,0.04806838441583092,0.013286833906891385,5.0
0.5840954052033994,0.1899105588217722,-0.454624384615514,0.11736758121391419,0.08955756398930523,0.04321133500237806,5.0
0.5775690876445859,0.18426539083650273,-0.45747125997159793,0.0922214295988504,0.05959315664972652,0.06058685110285967,5.0
0.5775690876445859,0.18426539083650273,-0.460318135327682,0.09806937021763655,0.06189811250215507,0.06251746383939072,5.0
0.5840954052033994,0.20684611218586307,-0.45177752171774904,0.08461910518959376,0.05959315664972652,0.06348277094350732,5.0
0.5840954052033994,0.19555575151118287,-0.45177752171774904,0.09514540079981824,0.04422679484257359,0.07699706157092684,5.0
0.580832246423993,0.1729750301618224,-0.4631649857671283,0.10801087123103756,0.03116538713078743,0.05672562562979757,5.0
0.5873585639828065,0.1899105588217722,-0.46601186112321225,0.11268922800562543,0.022713887902578417,0.05189909305261886,5.0
0.5840954052033994,0.21249128017113267,-0.47455246227482634,0.12321552361584995,0.02117725183900058,0.04321133500237806,5.0
0.5840954052033994,0.18426539083650273,-0.46601186112321225,0.12964825704831,0.021945569870789498,0.03452357676817448,5.0
0.5873585639828065,0.19555575151118287,-0.45177752171774904,0.13198743543560396,0.03808025058826224,0.04417664137064358,5.0
0.5710427700857725,0.18426539083650273,-0.4631649857671283,0.1267242876304917,0.022713887902578417,0.04224602863411253,5.0
0.5840954052033994,0.1899105588217722,-0.460318135327682,0.13257223003242743,0.007347525802581863,0.022939899061248797,5.0
0.5840954052033994,0.1899105588217722,-0.460318135327682,0.1372505796744171,-0.011860427920577461,0.006529690064883784,5.0
0.580832246423993,0.1899105588217722,-0.460318135327682,0.11912196143808554,-0.026458472281628738,0.02969704437495855,5.0
0.5873585639828065,0.1899105588217722,-0.47170561183537996,0.11151963881197846,-0.014933697704984063,0.028731738006693024,5.0
0.5873585639828065,0.1899105588217722,-0.47170561183537996,0.09514540079981824,0.021945569870789498,0.021974593428834344,5.0
0.59388488154162,0.21249128017113267,-0.4631649857671283,0.07818636819083455,0.03423865984363037,0.020043979220601138,5.0
0.59388488154162,0.21249128017113267,-0.4631649857671283,0.05420980576941771,0.049605021650783294,0.04321133500237806,5.0
0.5840954052033994,0.18426539083650273,-0.4773993376309104,0.06473610160253589,0.051909975160462786,0.07410114025857703,5.0
0.5840954052033994,0.1729750301618224,-0.47455246227482634,0.06473610160253589,0.03654361335330986,0.04996848031608781,5.0
0.5840954052033994,0.1729750301618224,-0.47455246227482634,0.08169513398862589,0.05882483803225031,0.041280721897921466,5.0
0.5840954052033994,0.19555575151118287,-0.45177752171774904,0.07877116278765803,0.08494765228444812,0.06251746383939072,5.0
0.5873585639828065,0.19555575151118287,-0.47170561183537996,0.05011624715795244,0.04269015877899575,0.05382970578914992,5.0
0.5840954052033994,0.20684611218586307,-0.47170561183537996,0.03666598034676008,0.02962875106720959,0.04417664137064358,5.0
0.5971480403210291,0.17862019814709199,-0.4688587364792961,0.05011624715795244,0.04653174952362762,0.05189909305261886,5.0
0.59388488154162,0.19555575151118287,-0.46601186112321225,0.03725077494358356,0.08494765228444812,0.06541338220833622,5.0
0.59388488154162,0.21249128017113267,-0.4688587364792961,0.05245542376209682,0.07880110803013676,0.08278890125222214,5.0
0.59388488154162,0.1899105588217722,-0.45747125997159793,0.03666598034676008,0.08648428951940049,0.07892767283575572,5.0
0.5840954052033994,0.21249128017113267,-0.454624384615514,0.035496391153113115,0.06573970090403786,0.05189909305261886,5.0
0.580832246423993,0.19555575151118287,-0.4460837834638998,0.03725077494358356,0.03808025058826224,0.04417664137064358,5.0
0.5840954052033994,0.18426539083650273,-0.460318135327682,0.048946657964305466,0.028092114710788117,0.02969704437495855,5.0
0.5906217227622129,0.20684611218586307,-0.4773993376309104,0.06999924940764814,0.06497138228656169,0.05576031852568097,5.0
0.5840954052033994,0.1616846694871422,-0.4773993376309104,0.08461910518959376,0.06881297537394263,0.03452357676817448,5.0
0.5840954052033994,0.15603947679773153,-0.45177752171774904,0.08578869260009117,0.061129793884678894,0.01618275374753904,5.0
0.5873585639828065,0.20684611218586307,-0.45747125997159793,0.08520389800326769,0.07495951962825398,0.04514194773890911,5.0
0.5840954052033994,0.21249128017113267,-0.45177752171774904,0.07818636819083455,0.06958129399141881,0.05672562562979757,5.0
0.580832246423993,0.20684611218586307,-0.44323690810781585,0.07701677988876236,0.03961688665184008,0.03548888322842139,5.0
0.5775690876445859,0.1899105588217722,-0.45177752171774904,0.08052554479497893,0.01656734335542343,0.05093378594850226,5.0
0.580832246423993,0.2012009194964524,-0.44893064636166485,0.07058404355868424,0.033470341226154186,0.027766431638427496,5.0
0.5775690876445859,0.21249128017113267,-0.45747125997159793,0.05947295357452995,0.05498324728761846,0.009425608433829284,5.0
0.5840954052033994,0.21813647286054327,-0.46601186112321225,0.05654898237356209,0.03731193197078605,0.039350109161390416,5.0
0.580832246423993,0.18426539083650273,-0.4688587364792961,0.07760157448558584,0.05498324728761846,0.022939899061248797,5.0
0.5873585639828065,0.17862019814709199,-0.45177752171774904,0.07526239698986668,0.041921840161519563,0.04996848031608781,5.0
0.5840954052033994,0.18426539083650273,-0.4631649857671283,0.08052554479497893,0.02117725183900058,0.01811336648407009,5.0
0.5775690876445859,0.19555575151118287,-0.45177752171774904,0.07116883793261403,0.026555478500788463,0.011356222642062489,5.0
0.5840954052033994,0.1899105588217722,-0.45747125997159793,0.09339101700934778,0.035006977289732025,0.009425608433829284,5.0
0.5840954052033994,0.2012009194964524,-0.45747125997159793,0.08812786920423556,0.041921840161519563,0.01521744811512459,5.0
0.5840954052033994,0.21249128017113267,-0.46601186112321225,0.08754307639056162,0.04115352271541792,0.03452357676817448,5.0
0.580832246423993,0.19555575151118287,-0.454624384615514,0.09514540079981824,0.04269015877899575,0.020043979220601138,5.0
0.5775690876445859,0.22942683353522356,-0.45177752171774904,0.07526239698986668,0.02117725183900058,0.02680112527016197,5.0
0.5840954052033994,0.20684611218586307,-0.45747125997159793,0.07877116278765803,0.02348220608078915,0.041280721897921466,5.0
0.5873585639828065,0.1899105588217722,-0.44323690810781585,0.07877116278765803,0.02425052418578898,0.0007378503835884665,5.0
0.5873585639828065,0.19555575151118287,-0.45747125997159793,0.07994075108973023,0.03808025058826224,0.03548888322842139,5.0
0.5775690876445859,0.21249128017113267,-0.46601186112321225,0.08754307639056162,0.03654361335330986,0.033558270215946186,5.0
0.5775690876445859,0.18426539083650273,-0.44323690810781585,0.07935595649290673,0.012725752610791565,0.023905206165365397,5.0
0.5840954052033994,0.18426539083650273,-0.454624384615514,0.07760157448558584,0.03193370516257635,-0.016637665716893135,5.0
0.5775690876445859,0.20684611218586307,-0.4773993376309104,0.09105184040520342,0.0012009815482705113,0.01521744811512459,5.0
0.5840954052033994,0.2237816408458129,-0.47455246227482634,0.09339101700934778,0.03423865984363037,0.038384802609162126,5.0
0.580832246423993,0.21249128017113267,-0.47170561183537996,0.08578869260009117,0.03423865984363037,0.04417664137064358,5.0
0.5743059288651795,0.18426539083650273,-0.4688587364792961,0.09046704580837993,0.021945569870789498,0.04996848031608781,5.0
0.5775690876445859,0.20684611218586307,-0.454624384615514,0.08637348719691466,0.03193370516257635,0.03548888322842139,5.0
0.5906217227622129,0.17862019814709199,-0.45747125997159793,0.08403431059277028,0.015030707291845592,0.022939899061248797,5.0
0.5840954052033994,0.2012009194964524,-0.4375431698539668,0.08578869260009117,0.018103979419001267,0.04803786757955676,5.0
0.580832246423993,0.18426539083650273,-0.44323690810781585,0.09573019539664174,0.018872297450790186,0.04996848031608781,5.0
0.5775690876445859,0.20684611218586307,-0.45177752171774904,0.09865416481446004,0.027323796678999198,0.05672562562979757,5.0
0.5873585639828065,0.19555575151118287,-0.454624384615514,0.09514540079981824,0.03654361335330986,0.02680112527016197,5.0
0.5775690876445859,0.1899105588217722,-0.45747125997159793,0.09280622419567389,0.025787160395788634,0.04417664137064358,5.0
0.5775690876445859,0.1729750301618224,-0.4318494316001177,0.09514540079981824,0.026555478500788463,0.02100928632471774,5.0
0.5840954052033994,0.19555575151118287,-0.44323690810781585,0.07760157448558584,0.026555478500788463,0.04417664137064358,5.0
0.5840954052033994,0.19555575151118287,-0.45177752171774904,0.08578869260009117,0.035006977289732025,0.030662350743224074,5.0
0.5840954052033994,0.18426539083650273,-0.4460837834638998,0.0916366350020269,0.03193370516257635,0.031627657479415136,5.0
0.5775690876445859,0.2012009194964524,-0.45177752171774904,0.0916366350020269,0.02348220608078915,0.03548888322842139,5.0
0.5873585639828065,0.19555575151118287,-0.45747125997159793,0.09280622419567389,0.027323796678999198,0.019078673588186695,5.0
0.5840954052033994,0.18426539083650273,-0.4460837834638998,0.09865416481446004,0.03039706909899851,0.023905206165365397,5.0
0.5873585639828065,0.20684611218586307,-0.4375431698539668,0.07760157448558584,0.03116538713078743,0.03548888322842139,5.0
0.5906217227622129,0.21249128017113267,-0.44893064636166485,0.07584719158669018,0.033470341226154186,0.05576031852568097,5.0
0.59388488154162,0.2012009194964524,-0.454624384615514,0.07116883793261403,0.03731193197078605,0.040315415529655944,5.0
