acc_x,acc_y,acc_z,gyro_x,gyro_y,gyro_z,activity
-0.8606468486389679,-0.09787754680115643,1.981069965397305,-0.043186801340083514,-0.28865031336369007,0.9442651188713285,0.0
-0.8478992717476945,-0.09787754680115643,1.802039952714449,-0.05961932987583299,-0.35412641630805847,0.9528683873135458,0.0
-0.8478992717476945,-0.09787754680115643,1.743660511891265,-0.0016730450739421364,-0.27438819913258594,0.908287835289533,0.0
-0.8319648564187556,-0.07286139360809943,1.7747962136636297,0.058867845992112276,-0.14408427978915134,0.8285122190613162,0.0
-0.7905352873072702,-0.07286139360809943,1.868203046472482,0.08827343287950902,-0.015076921675974672,0.6955528586809544,0.0
-0.7873483930844517,-0.08536947191516477,1.88766286008021,0.13454396839543106,-0.0222079827449756,0.593095971223064,0.0
-0.7873483930844517,-0.08536947191516477,1.88766286008021,0.19421999158581574,-0.010538975160591874,0.5884032654702024,0.0
-0.7746008719783314,-0.07911543105109525,1.868203046472482,0.27595020757890193,-0.07277368491293766,0.5672862040534543,0.0
-0.7746008719783314,-0.06973437488660152,1.875986971915573,0.27595020757890193,-0.09740824945161643,0.5320910635351644,0.0
-0.7873483930844517,-0.007193995325032735,1.9304744500172117,0.21411200283214935,-0.0293390438139765,0.4656113833449836,0.0
-0.780974660423968,-0.013448033623296983,1.9655021145111227,0.17086849828818634,0.056881957768816827,0.3342162518560686,0.0
-0.7395450913124823,-0.01970207149392702,1.9577181890680315,0.2015713856705108,0.19172381769746089,0.23097722133467263,0.0
-0.7363581970896642,-0.04159120468258346,1.879878934637119,0.18816590854466478,0.23969640531180486,0.15120159556719492,0.0
-0.7331713028668456,-0.0666073561651036,1.8409595799299052,0.09432751592066002,0.1022614328062671,0.17935769653471392,0.0
-0.7427319855353007,-0.06973437488660152,1.8331756544868139,0.03162444593539172,0.05364056655351863,0.1926536325727501,0.0
-0.7427319855353007,-0.06973437488660152,1.8331756544868139,0.002651304853023343,-0.06564261989048788,0.22237395289245515,0.0
-0.7427319855353007,-0.05722630000060987,1.9732860399542136,-0.013348789085602704,0.00761281485438826,0.1746650098603739,0.0
-0.7236106201983908,-0.06035331872210778,2.0199893201045183,0.04330019258420638,0.1606064746816346,0.0729902010759791,0.0
-0.7236106201983908,-0.06035331872210778,2.0199893201045183,0.031192010678979757,0.0776268603606906,0.09176093584926351,0.0
-0.7267975144212091,-0.054099279568575125,2.02777324554761,0.05540837448943302,0.0879993106682653,0.0901967069578168,0.0
-0.7491057739809376,-0.01970207149392702,1.9732860399542136,0.1371385799339029,0.1800548180199749,0.05265523979606317,0.0
-0.7491057739809376,-0.01970207149392702,1.9732860399542136,0.1358412794389752,0.1398615661595875,0.05265523979606317,0.0
-0.7586664008642396,-0.01970207149392702,1.9149065991310292,0.16394955528282787,0.09902003961424448,0.10583898633302302,0.0
-0.7459188797581192,0.008441099992993665,1.8993387482448467,0.18081451445996966,0.12884083721360834,0.07846499981122733,0.0
-0.7459188797581192,0.008441099992993665,1.8993387482448467,0.10600326256947469,0.11004077251367256,0.0901967069578168,0.0
-0.7427319855353007,0.008441099992993665,1.9149065991310292,0.013894616245426046,-0.03906321943659553,0.15433005335008834,0.0
-0.7586664008642396,-0.004066976603534823,1.9071226736879385,-0.042754366742960084,-0.061104677328553916,0.20203899638216957,0.0
-0.780974660423968,-0.013448033623296983,1.9343664127387576,-0.06524098557203435,0.030950829528974592,0.2301950973496886,0.0
-0.7873483930844517,-0.010321014046530647,1.9071226736879385,-0.09334925877873292,0.01863354380036745,0.24896584404704888,0.0
-0.7905352873072702,-0.013448033623296983,1.8954467855233017,-0.13183597022785615,0.02252321266570795,0.26851867657235035,0.0
-0.7777877662011496,-0.004066976603534823,1.8604191210293908,-0.19367417497460873,0.034840498764950927,0.265390218789457,0.0
-0.7937221815300884,-0.004066976603534823,1.852635468094542,-0.22048512922630084,-0.020263146829762033,0.2747755921381371,0.0
-0.780974660423968,-0.03846418510581713,1.9226905245741202,-0.24426905250603398,0.0030748663622809994,0.20673168305650963,0.0
-0.7873483930844517,-0.03846418510581713,1.938258375460303,-0.19713364647728807,0.10939249387526803,0.16293330271378442,0.0
-0.8064697584213619,-0.03533716638431921,1.9071226736879385,-0.14913336993571807,0.11393043643720199,0.1136601260206261,0.0
-0.8032828641985437,-0.06035331872210778,1.9421503381818483,-0.08426812366839,0.08410964279128698,0.06751540472554604,0.0
-0.7841615546467865,-0.06973437488660152,1.9693940772326683,-0.030646187474887565,0.05104745397662496,0.10036418998258996,0.0
-0.7682270835326945,-0.06035331872210778,1.9421503381818483,0.05065158666890146,0.11782010826762912,0.1011463044283133,0.0
-0.7969090757529067,-0.054099279568575125,1.938258375460303,0.14103049196730222,0.11198560842888612,0.09879996109114325,0.0
-0.7969090757529067,-0.02908312829987207,1.9226905245741202,0.11162491562852189,0.056881957768816827,0.09567150330824989,0.0
-0.8383385890792393,-0.01970207149392702,1.9071226736879385,0.031192010678979757,-0.061752955966958456,0.15824061603944437,0.0
-0.8638336870766331,0.0021870608394610135,1.8720950091940276,-0.08945734147102527,-0.11880143661206806,0.23645201291547535,0.0
-0.8478992717476945,-0.0009399578820369184,1.9149065991310292,-0.10416012964041546,0.025764603881006147,0.18952517478985673,0.0
-0.8415254833020579,-0.004066976603534823,1.9226905245741202,-0.09724117081213231,0.14245468071320563,0.1418162317577755,0.0
-0.7650401893098762,-0.047845242125579286,1.9032307109663926,-0.1590793755588849,0.052344010265071794,0.17388289541465055,0.0
-0.7491057739809376,-0.06035331872210778,1.926582487295666,-0.15475502299476532,-0.13241528011166534,0.22315607687743919,0.0
-0.7363581970896642,-0.050972260847077185,1.9304744500172117,-0.05443011075462065,-0.045545997913743044,0.19656420480136685,0.0
-0.7172369433230601,-0.06973437488660152,1.988853618332154,0.04502993360985423,0.04002672453646465,0.18796094589841006,0.0
-0.7140500491002417,-0.07286139360809943,2.000529506496791,0.09303021542573237,0.08864758930666981,0.12539183793684594,0.0
-0.7108631548774234,-0.07911543105109525,1.9927455810536996,0.10081403949253119,0.14958573782875767,0.07377231552170242,0.0
-0.7267975144212091,-0.06973437488660152,1.977178002675759,0.13238179738767944,0.13013739449041736,0.05265523979606317,0.0
-0.7299844086440274,-0.07598841232959735,1.9849616556106076,0.10470596207454703,0.09707520765247978,0.09801784664541992,0.0
-0.752292668203756,-0.08849649063666269,1.9693940772326683,-0.002537915586766059,-0.023504540021784637,0.1887430603441334,0.0
-0.7491057739809376,-0.07286139360809943,2.0122053946614273,-0.10588987066606327,-0.17714648244088435,0.16371541715950777,0.0
-0.7427319855353007,-0.06973437488660152,2.0433410964337924,-0.18156598779507394,-0.334678072969718,0.2286308684582419,0.0
-0.7746008719783314,-0.06035331872210778,2.0511250218768833,-0.21097156413385426,-0.31587800036288455,0.21220647463731235,0.0
-0.8447123775248759,0.03971129062904647,2.09004464909234,-0.31172891031183386,-0.05915984141334035,-0.21952041322415317,0.0
-0.9466927695144514,0.06160042167953186,2.0861526863707938,-0.16989025169487565,0.13078567312882192,-0.7208554199801717,0.0
-1.0391125346207248,0.06160042167953186,2.035557170990701,0.10989517460287414,0.31943462248727744,-1.100962830737982,0.0
-0.9913092328487554,-0.13540177145913138,1.8720950091940276,0.30189630186638666,0.29091039402506913,-1.1486717260737598,0.0
-0.8797681581907251,-0.18543407100309797,1.7397685491697192,0.41389695416246064,-0.03711838352138195,-0.7928099108296764,0.0
-0.8032828641985437,-0.17292599611710632,1.69695723174096,0.42254563819346697,-0.2205811116794989,-0.37359683502126323,0.0
-0.7236106201983908,-0.11976667785164181,1.7008491944625055,0.39141034192627167,-0.49739592423337897,-0.002874850078066707,0.0
-0.6216302282088153,-0.08224244977259317,1.7786881763851754,0.2936800478174841,-0.6432585150847268,0.4053886187205894,0.0
-0.5578925668930602,-0.050972260847077185,1.825391729043723,0.193787561603712,-0.7346657319376851,0.637676446932991,0.0
-0.5387712015561503,-0.050972260847077185,1.8409595799299052,0.08784099234878884,-1.0348185912879235,0.8449366128822455,0.0
-0.5164629419964216,0.03971129062904647,1.911014636409484,-0.0215650536831217,-1.0387081524217825,0.8832602493404715,0.0
-0.5164629419964216,0.07098147784402561,1.953826226346486,-0.0790789032286006,-0.6789138164762822,0.7964455744829624,0.0
-0.5387712015561503,0.10225166505900472,1.9421503381818483,-0.11021422323018286,-0.1278773375497314,0.5970065339124201,0.0
-0.5802007148824828,0.1147597399449964,1.94993426362494,-0.1179980525712899,0.2098756195727876,0.4092991814099455,0.0
-0.6407515935457253,0.08348955273001726,1.9343664127387576,-0.07172750914390551,0.2559033633650204,0.10974955856163975,0.0
-0.7108631548774234,0.05221936551503812,1.88766286008021,0.0035161753658472608,0.27211032141823566,0.09567150330824989,0.0
-0.7427319855353007,0.02720321232198115,1.8643110837509362,0.08697612183596493,0.31813808102426383,0.056565809639864725,0.0
-0.7427319855353007,0.02720321232198115,1.8643110837509362,0.05843541601000851,0.25849647791863833,0.044834100108460076,0.0
-0.7618532950870579,-0.016575052344794894,1.879878934637119,-0.017240703756156217,0.03937844614515068,0.08002922870267404,0.0
-0.7491057739809376,-0.01970207149392702,1.875986971915573,-0.06134907090148083,0.06984752065328519,0.04014141701134276,0.0
-0.7746008719783314,-0.03533716638431921,1.852635468094542,-0.10891691746094699,0.13856500888277848,0.042487758559901424,0.0
-0.7586664008642396,-0.054099279568575125,1.8720950091940276,-0.07778160009651884,0.12170978009805627,0.05891215059221959,0.0
-0.7491057739809376,-0.07286139360809943,1.852635468094542,-0.03626784214095059,0.12235805873646081,0.07220808901507093,0.0
-0.7395450913124823,-0.06035331872210778,1.8409595799299052,0.009137828424894509,0.09966831825264902,0.10818532967019305,0.0
-0.7363581970896642,-0.054099279568575125,1.8409595799299052,0.04157045155855856,0.2273791190890166,0.07377231552170242,0.0
-0.7267975144212091,-0.050972260847077185,1.852635468094542,0.028597404414816223,0.2020962759119333,0.08081134314839736,0.0
-0.7267975144212091,-0.050972260847077185,1.852635468094542,0.03205688119180367,0.2513654208030863,0.05421946749510227,0.0
-0.7459188797581192,0.011568118714491593,1.8448515426514507,0.021246010330121138,0.31878635175577064,-0.045891111205438234,0.0
-0.7618532950870579,0.02094917487898531,1.8487435053729966,0.027300098645580355,0.5255870871757572,-0.26175455513617096,0.0
-0.7618532950870579,0.02094917487898531,1.8487435053729966,0.08092203879481395,0.5968977215864598,-0.43616595252208795,0.0
-0.8351517506415742,-0.007193995325032735,1.879878934637119,0.1838415665291615,0.5191043166055075,-0.5237627322860599,0.0
-0.8064697584213619,-0.03846418510581713,1.8915548228017558,0.21540931387569348,0.36351753827119426,-0.4040993079437342,0.0
-0.8064697584213619,-0.03846418510581713,1.8915548228017558,0.08092203879481395,0.2759999932486629,-0.18667162558229405,0.0
-0.7363581970896642,-0.05722630000060987,1.988853618332154,-0.1357278822612556,0.06271646156100869,0.05187312535033983,0.0
-0.6630598531054539,-0.013448033623296983,2.0744767982061574,-0.2767016809140063,-0.013780368352614487,0.17388289541465055,0.0
-0.6630598531054539,-0.013448033623296983,2.0744767982061574,-0.27021516789075145,-0.011835532437400912,0.2442731573727088,0.0
-0.6375646993229073,-0.0009399578820369184,2.035557170990701,-0.29226935014483674,-0.17714648244088435,0.19812843369281355,0.0
-0.6280040166544519,0.03971129062904647,2.0550169845984287,-0.21486347616725365,-0.08573924977413043,0.033884505544457086,0.0
-0.6280040166544519,0.03971129062904647,2.0550169845984287,-0.02329479339019248,0.24682747824115236,-0.2797431778485473,0.0
-0.69811557798615,0.0178221561574874,2.0083134319398814,0.08827343287950902,0.292855222033385,-0.3696862723319071,0.0
-0.7777877662011496,-0.0009399578820369184,1.911014636409484,0.09519238643348393,0.2286756763658257,-0.41035618535247825,0.0
-0.7969090757529067,-0.022829090429242038,1.879878934637119,0.12157092125168878,0.2643309777573814,-0.4189594537946957,0.0
-0.7969090757529067,-0.032210147235187093,1.8370676172083598,0.13281422736978324,0.26238614974906554,-0.24376593242379488,0.0
-0.780974660423968,-0.047845242125579286,1.825391729043723,0.0627597685741281,0.06984752065328519,-0.03572363295029546,0.0
-0.7395450913124823,-0.04159120468258346,1.813715840879086,-0.040592191779477343,-0.1103738222197069,0.15980484493089103,0.0
-0.7459188797581192,-0.03533716638431921,1.8643110837509362,-0.15951180554098865,-0.2860571988100719,0.23332355513258202,0.0
-0.7331713028668456,-0.032210147235187093,1.9732860399542136,-0.19843095752083204,-0.40663694648433635,0.2966747775398695,0.0
-0.7108631548774234,-0.032210147235187093,2.000529506496791,-0.1742145937103788,-0.3632023330595173,0.28494307039328,0.0
-0.7331713028668456,-0.010321014046530647,1.9927455810536996,-0.1517279814741898,-0.22771216879505088,0.2700829054637971,0.0
-0.7363581970896642,0.02094917487898531,1.9655021145111227,-0.07172750914390551,-0.008594139245378283,0.157458501593721,0.0
-0.7714139777555131,0.02094917487898531,1.868203046472482,-0.022429922877368558,-0.04813911246736115,0.077682885365504,0.0
-0.7905352873072702,0.02720321232198115,1.8331756544868139,0.0074080900364007765,-0.04100804744491137,0.048744669952261614,0.0
-0.7937221815300884,0.03033023104347906,1.8720950091940276,0.05584080447153676,-0.0034079140915909524,0.04952678439798497,0.0
-0.7937221815300884,0.0021870608394610135,1.868203046472482,0.0515164571817254,0.04067500268068807,0.0729902010759791,0.0
-0.780974660423968,0.008441099992993665,1.8487435053729966,0.040705581045734636,0.06466129549949781,0.0933251647407102,0.0
-0.7873483930844517,0.008441099992993665,1.852635468094542,0.035083927986687385,0.14050984479799206,0.1363414306377121,0.0
-0.7777877662011496,0.03033023104347906,1.8409595799299052,-0.005564959744495652,0.17810999001165906,0.1136601260206261,0.0
-0.7650401893098762,0.036584271907548566,1.8643110837509362,-0.009024439158637224,0.2027445466434401,0.11835280792533583,0.0
-0.7650401893098762,0.0178221561574874,1.8604191210293908,-0.03453810231026322,0.1858893178587179,0.14729102333857821,0.0
-0.7682270835326945,0.014695137435989493,1.88766286008021,-0.13226840020995992,0.10550282204484086,0.2114243697308497,0.0
-0.7363581970896642,0.0178221561574874,1.9226905245741202,-0.19756608700800823,0.05493712383032768,0.18248615431760734,0.0
-0.7140500491002417,-0.03846418510581713,1.9149065991310292,-0.12059265883545343,0.023171491304112477,0.17544712430609724,0.0
-0.7204237259755722,-0.044718223404081374,1.9421503381818483,-0.03929488699917426,0.10679937932164991,0.16058695937661438,0.0
-0.7363581970896642,-0.044718223404081374,1.9616101517895768,-0.06351124454638653,0.18913071895763825,0.20751378796297232,0.0
-0.7491057739809376,-0.016575052344794894,1.9732860399542136,-0.15691719400251689,0.1528271310207803,0.19812843369281355,0.0
-0.7395450913124823,-0.013448033623296983,1.9577181890680315,-0.21097156413385426,0.2688689361331107,0.12539183793684594,0.0
-0.7236106201983908,-0.050972260847077185,1.9343664127387576,-0.20794452261327873,0.23645502002667995,0.11678857903388914,0.0
-0.7395450913124823,-0.06035331872210778,1.926582487295666,-0.18416059933354562,0.1554202455743984,0.10818532967019305,0.0
-0.7618532950870579,-0.06973437488660152,1.9149065991310292,-0.19410660495671248,0.028357716457899817,0.1926536325727501,0.0
-0.7905352873072702,-0.07598841232959735,1.88766286008021,-0.24513393356747432,-0.2633674701866067,0.23958047069836877,0.0
-0.7459188797581192,-0.07598841232959735,1.852635468094542,-0.2767016809140063,0.13078567312882192,0.17935769653471392,0.0
-0.7491057739809376,-0.07598841232959735,1.8409595799299052,-0.31908030439652896,0.1800548180199749,0.15198371001291827,0.0
-0.7873483930844517,-0.10725860296565015,1.8409595799299052,-0.3177830144502177,0.12430289465167439,0.046398327807499175,0.0
-0.7586664008642396,-0.09162350935816058,1.9421503381818483,-0.32167492648361706,0.2747034359718538,-0.0427626581921752,0.0
-0.8638336870766331,-0.06973437488660152,2.000529506496791,-0.20059312852858366,0.2098756195727876,0.01980645453901925,0.0
-0.8447123775248759,-0.054099279568575125,1.9732860399542136,-0.158214505046061,0.3570347677009444,0.05187312535033983,0.0
-0.8032828641985437,-0.07286139360809943,1.879878934637119,-0.13399814123560772,0.4063039125920975,-0.130359423647256,0.0
-0.7363581970896642,-0.12914773401613555,1.8720950091940276,-0.0829708178991541,0.3084138935412982,-0.31493831836683706,0.0
-0.7777877662011496,-0.16041792123111465,1.9343664127387576,0.02081357507370919,0.1450477952668237,-0.19058218827165008,0.0
-0.7937221815300884,-0.12914773401613555,2.0083134319398814,0.16957120834187508,0.2604413217407497,-0.1506943801575416,0.0
-0.7714139777555131,-0.10413158424415223,2.0199893201045183,0.1838415665291615,0.06790268671479603,-0.1929285411480808,0.0
-0.7618532950870579,-0.09162350935816058,1.9732860399542136,0.15703059118023652,-0.09157374961287343,-0.18588950159731002,0.0
-0.7363581970896642,-0.10100456552265434,1.9343664127387576,0.12676014432863225,-0.06434607052057656,-0.21560983145627577,0.0
-0.6789942126492396,-0.12914773401613555,1.9343664127387576,0.18470642649336902,-0.018318314867997308,-0.2187382892391691,0.0
-0.618443333985997,-0.15729090935176412,1.926582487295666,0.2097876608166463,0.030950829528974592,-0.2672293467169738,0.0
-0.7044893664317865,-0.11976667785164181,1.918798561852575,0.15184136810329307,0.06725441005311593,-0.21482772654981305,0.0
-0.7873483930844517,-0.10725860296565015,1.9226905245741202,0.07140846315375084,0.04326811525758174,-0.16086185841268436,0.0
-0.8064697584213619,-0.05722630000060987,1.981069965397305,0.05108402192531343,-0.023504540021784637,-0.08108624218446739,0.0
-0.8032828641985437,-0.054099279568575125,2.0160973573829732,0.04200288681497051,-0.04878739110576569,-0.12644884187937858,0.0
-0.8096566526441802,-0.054099279568575125,2.0044214692183364,0.061462457530584005,0.0821648068760734,-0.18432527270586332,0.0
-0.8064697584213619,-0.054099279568575125,1.9616101517895768,0.07832742725634219,0.016688709861878308,-0.237509016858008,0.0
-0.8032828641985437,-0.01970207149392702,1.9343664127387576,0.03378662221745152,-0.025449375936998236,-0.24376593242379488,0.0
-0.8064697584213619,-0.01970207149392702,1.9343664127387576,0.09648969747702803,0.06530957413790235,-0.3016423823288009,0.0
-0.8096566526441802,-0.03846418510581713,1.918798561852575,0.16567929630847575,0.09318553582205262,-0.2906927610101527,0.0
-0.780974660423968,-0.032210147235187093,1.9343664127387576,0.16394955528282787,-0.10064965055053679,-0.2687935756084205,0.0
-0.7650401893098762,-0.032210147235187093,1.926582487295666,0.0463272393790901,-0.2730916576695723,-0.20778870607756367,0.0
-0.7905352873072702,-0.013448033623296983,1.9343664127387576,-0.002970350843178008,-0.24262258538525283,-0.15382283794043497,0.0
-0.7905352873072702,0.0178221561574874,1.953826226346486,-0.06394367980279847,-0.09870480672842548,-0.16790087888493377,0.0
-0.7905352873072702,0.0178221561574874,1.953826226346486,-0.08124107687350628,-0.009242417883782822,-0.1506943801575416,0.0
-0.8000959699757252,0.0053140812714957564,1.911014636409484,-0.0903222119838492,0.012799040008175593,-0.10767811426053969,0.0
-0.8032828641985437,0.0021870608394610135,1.8954467855233017,-0.20145799904140757,-0.14408427978915134,-0.04745534009688492,0.0
-0.8096566526441802,0.0021870608394610135,1.88766286008021,-0.215728357228694,-0.22706389806354432,0.07690077091978063,0.0
-0.8638336870766331,0.0178221561574874,1.763120325498993,-0.5335680438962305,-0.11944970734357482,0.29745690152485355,0.0
-0.8765812639679068,0.0178221561574874,1.8370676172083598,-0.5141084626320004,-0.27762958441771085,0.43276259570312436,0.0
-0.8478992717476945,0.0178221561574874,1.7047411571840512,-0.8695700007844526,-1.0088873824965607,0.5360016262245203,0.0
-0.8478992717476945,-0.047845242125579286,1.7047411571840512,-1.1895719006542063,-0.8357971046460183,0.7651609966540288,0.0
-0.9180107772942391,-0.02908312829987207,1.731984623726628,-1.190004309539077,-0.6387205883365882,1.0099626941550468,0.0
-0.9849354444031188,-0.08849649063666269,1.8915548228017558,-1.0390844947145432,-0.43256809202051727,1.4072764891691207,0.0
-0.7618532950870579,-0.11976667785164181,1.8643110837509362,-0.8756241471173022,-0.2523467412406275,1.2813561874180512,0.0
-0.7618532950870579,-0.11976667785164181,1.8643110837509362,-0.9391920506952369,-0.6406653689035176,0.9364439934926162,0.0
-0.924384565739876,-0.17292599611710632,1.9616101517895768,-0.5737845174682343,-0.3632023330595173,1.6614635981758616,0.0
-0.924384565739876,-0.17292599611710632,1.9616101517895768,-0.32167492648361706,0.06141990428419963,2.0165432703564394,0.0
-0.924384565739876,-0.14165580890212717,1.6385777909177757,-0.3186478744144252,-0.24651224140188457,2.412293008185759,0.0
-0.6216302282088153,-0.263609559566988,1.6074422253995322,-0.3692427730430834,-0.5751892975867401,2.3630197504088852,0.0
-0.36667924823487713,-0.4387226079708709,1.852635468094542,-0.24124202153407487,0.19820660408150614,1.2007985044404144,0.0
-0.4081087615612097,-0.5294061851050474,2.02777324554761,0.33130187820516704,0.758967238863432,0.3795788515509797,0.0
-0.5833876091053012,-0.5700574079580781,2.163991668293463,0.6404928808416969,0.9450231211096557,0.03623084731659216,0.0
-0.6216302282088153,-0.5481682837497402,1.7864721018282665,0.5284922285456229,3.0324788502754543,-0.38220010346348066,0.0
-0.6789942126492396,-0.4324685842121699,1.852635468094542,0.4186537472573003,4.828857700097655,-1.0587286315903999,0.0
-0.6789942126492396,-0.4324685842121699,1.852635468094542,0.0164892225095896,5.324142231935211,-2.3891044547716076,0.0
-0.7554795624265742,-0.36992818241362213,1.7280926610050822,0.6724930792675655,2.3213177927768145,-0.21404560256482905,0.0
-0.895702573519664,-0.11351264040864596,1.5685225981840758,-0.015510964049085436,-0.37292648891489194,3.0833465730251843,0.0
-0.8096566526441802,-0.14165580890212717,1.6891733062978687,-1.5433036344893118,0.4536282136611391,4.550592319276109,0.0
-0.69811557798615,-0.3136418591109547,1.9655021145111227,-1.8369269889922446,1.9038265077822552,4.5951728713001225,0.0
-0.8351517506415742,-0.41057943263524244,2.1172881156349166,-1.8018998439833485,2.174158660462454,5.017514557519601,0.0
-0.9148239388565739,-0.5137710572868209,2.1095044627000674,-1.7417912958733126,1.8130675932883944,4.974498138994425,0.0
-0.9435058752916331,-0.5638033568307876,1.988853618332154,-1.6086014267735251,1.2737001456669204,4.969805433241565,0.0
-1.0295518519522697,-0.6513599084013187,1.852635468094542,-1.41833004053566,0.653946178510876,5.155948614088155,0.0
-1.166588024607694,-0.7295353832809138,1.743660511891265,-1.20038279788743,-0.24910535595550257,5.175501503849023,0.0
-1.3386799500363904,-0.7389164052346706,1.6891733062978687,-0.9815706530805267,-0.8896042395404918,4.958855888237,0.0
-1.3960439344768145,-0.7389164052346706,1.7553364000559017,-0.7091366419647048,-0.6400171297996018,4.245567971621825,0.0
-1.3992308008070566,-0.7514245074892518,1.794256027271358,-0.35713458586354835,-0.6730792850099484,3.486917436233215,0.0
-1.4151652440285718,-0.7795676828248804,1.868203046472482,0.02946227492764015,-1.7148624006535091,3.266361486874096,0.0
-1.3514274990350874,-0.8264729568052016,1.953826226346486,0.33649108018487756,-2.1330017982416223,3.454068801219526,0.0
-1.3769225970324812,-0.8045838325968636,2.02777324554761,0.26730150245066286,-2.0253876549630383,3.3375338346600962,0.0
-1.3992308008070566,-0.7576785586165424,2.136747929242645,-0.02805157791428139,-1.926849365180732,2.951169355708327,0.0
-1.3163717462618147,-0.7201543065899778,2.1017205372569765,-0.4587567920057355,-1.118446369597255,2.100229449274013,0.0
-1.2430733185998755,-0.7482974819256066,2.0433410964337924,-0.8509753216788959,-0.25040189741851615,1.238339921521049,0.0
-1.2112044321568447,-0.763932555006654,2.0083134319398814,-1.0728144974577583,-0.41441629014519066,0.8996846431614012,0.0
-1.2335126638239966,-0.8421080298862491,1.9732860399542136,-1.3327078492174758,-1.0328737474658123,1.1835919675559794,0.0
-1.3418668442592088,-0.8045838325968636,1.981069965397305,-1.4170327294921161,-2.269788598851873,1.61766526552944,0.0
-1.1857093341594511,-0.9546807312287635,1.8643110837509362,-1.6081690178886543,-3.061984604754544,1.1147659726464108,0.0
-1.1347191381646633,-0.9953319540817943,1.8292836917652684,-1.6963856625160627,-2.9038046486114317,0.8511935284480324,0.0
-1.0805420479470573,-1.0547453303166967,1.7786881763851754,-1.5744390995343702,-2.0908637262798164,0.75108295570953,0.0
-0.9913092328487554,-1.1423018271500485,1.6541456418039582,-1.2012476156571716,-1.307095334769506,0.49063904560813065,0.0
-0.978561655957482,-1.2079692545122418,1.5763065236271672,-0.7061096109927458,-0.5362926109100596,0.2833788415018333,0.0
-1.0454863230663614,-1.2673826307471443,1.5996582999564408,0.06967872212810301,0.2487723062494682,0.43667315839248044,0.0
-1.1060371459444511,-1.27676370743808,1.5957663372348954,0.5514112918611486,0.0821648068760734,0.6001349916953133,0.0
-1.0837289421698757,-1.2798907330017255,1.6230100762857145,0.7269798899296231,-0.1777947531723912,1.0389009191075496,0.0
-1.0231780635066328,-1.3142879047274656,1.6697134926901407,0.5756276240257525,-0.05073222702097925,1.060017942367255,0.0
-1.007243648177694,-1.3361770836729827,1.7008491944625055,0.34384249536680556,0.2986897218721281,1.1335367193437709,0.0
-1.0422994288435432,-1.286144784129016,1.5918743745133495,-0.12880892870728067,0.06141990428419963,1.4307400179334282,0.0
-1.0454863230663614,-1.254874528492563,1.5529548835520146,-0.530973464003608,-1.2714400333779503,1.6645920178017122,0.0
-1.0454863230663614,-1.2298584334577587,1.440088100881313,-0.8648132498840786,-1.8283110753984262,1.8311823088874384,0.0
-1.007243648177694,-1.3643202042714322,1.4478720263244043,-1.1048146114946953,-2.6094863839827087,1.7279432402089998,0.0
-1.0104305424005124,-1.3611931787077869,1.440088100881313,-1.48708710389884,-3.6279312472505705,1.437778923934549,0.0
-1.0295518519522697,-1.2923987257819485,1.5218191817796496,-1.4140056141312256,-2.5420654688438202,1.1413578447224828,0.0
-1.0518600557268452,-1.417479529379044,1.5568468462735605,-0.9815706530805267,-1.200129430594839,0.620469948205599,0.0
-1.096476519061149,-1.46125777779572,1.4828996908183147,-0.5201625667703843,-1.431564833343175,-0.4322553898327319,0.0
-1.1187847228357246,-1.39246343434424,1.3972766471984326,-0.5547573872833411,-1.5061167581562294,-0.5691253129024495,0.0
-1.0231780635066328,-1.4331146571972706,1.335005379907824,-0.8155156833961974,-1.3719231669823675,-0.7341513941752507,0.0
-0.9849354444031188,-1.4331146571972706,1.2493823362879415,-1.0226520288112038,-1.4659235300165352,-0.7458830822433187,0.0
-0.9020763619653005,-1.480019931177592,1.2532742990094874,-0.8185427143681565,-1.3615507087678953,-0.002874850078066707,0.0
-0.8478992717476945,-1.5644494024472986,1.218246770769698,-0.6399470431332572,-1.2448607119930353,0.42415936541794985,0.0
-0.8925156792968454,-1.5331792562852036,1.2415985470989717,-0.7022176778621135,-1.3816473860929241,0.9145447508553198,0.0
-0.9084501504109374,-1.5112900773396867,1.2104628453266066,-1.074976626271044,-1.668834641047481,1.040465128920475,0.0
-0.8255910679731188,-1.5613223768836533,1.1481915780359981,-1.4516274656161412,-1.5586272883325072,0.3725398310787304,0.0
-0.7427319855353007,-1.5957196580837514,1.082028348023844,-1.7002776800356265,-0.9161836241805885,-0.5878960595998098,0.0
-0.7299844086440274,-1.5863385813928157,0.9808375897719005,-1.7517373753367935,-1.1378948078183682,-1.4482213775398474,0.0
-0.7140500491002417,-1.601973599736684,0.8757547325442901,-1.6994126934880232,-1.7401452438305922,-1.5217400782022776,0.0
-0.7140500491002417,-1.601973599736684,0.8757547325442901,-1.7547644063087535,-1.5249168307630627,-1.2878880783339934,0.0
-0.9403190368539677,-1.4768929056139464,0.6772650425078274,-1.6375745098385028,-1.1054808284567554,-1.1463253731973289,0.0
-0.47503342867008913,-1.786467779568682,0.5605064333697013,-1.1385446142379103,-0.9278526238580745,-1.7164864511770015,0.0
-0.47503342867008913,-1.786467779568682,0.5605064333697013,-1.1143281976843749,-1.5326962060515081,-2.5322312170930275,0.0
-0.5674531379912093,-1.8365000791126485,0.49434320335754717,-1.2401667781856316,-3.183860893891824,-2.166201999907886,0.0
-0.5100891535507849,-1.9115485831657775,0.5060190915221842,-1.3102212369812867,-3.724524693210765,-2.3609483728826097,0.0
-0.40492186733839114,-1.9647077987990313,0.4982351660790928,-1.2968158020499063,-2.3670302839159842,-3.2376981609576623,0.0
-0.302941475348816,-1.949072670980805,0.3970443397000889,-1.4382220306847608,-1.3077437003837855,-3.2517759729599045,0.0
-0.1786529353698181,-1.9834699521809032,0.23747420875202177,-1.8875218665236702,-1.0328737474658123,-3.0836215483753384,0.0
-0.1404102046959979,-1.8896594042202606,0.07012015236086334,-2.6659049483150037,-1.1340051201741455,-2.6941288024258907,0.0
-0.07029875493460613,-1.88340535309297,-0.027178643169534524,-3.2125025216972003,-1.2701435551701186,-2.1411743376447387,0.0
-0.044803601152059246,-1.8302460279853578,-0.07388212770102119,-3.4745581710480655,-1.2267088784901177,-1.6374929780122898,0.0
0.03486853127778757,-1.9303107365476493,-0.15950513725737325,-3.4408282526937817,-1.7958970960368135,-2.071566123357579,0.0
0.03486853127778757,-1.9303107365476493,-0.15950513725737325,-3.1113127666343496,-2.613376071626931,-3.2549045452139267,0.0
0.02849474283215079,-1.9772159010536126,-0.07388212770102119,-2.901581967910118,-2.198477996068763,-3.218145271196798,0.0
-0.11172826826093867,-1.6832761549171036,-0.3190752682054405,-2.9811499285065204,-1.8678560644342044,-2.595582592128485,0.0
-0.11172826826093867,-1.6832761549171036,-0.3190752682054405,-3.139853440814456,-2.032518664637204,-2.3930149411468777,0.0
-0.10535447981530215,-1.5613223768836533,-0.3424269764076536,-3.0654747243922285,-1.4737029053049804,-2.565862224112477,0.0
0.1336620290445445,-1.5581953513200082,-0.5448086206497792,-2.994122870164098,-0.7573554921887413,-2.5807224081204803,0.0
0.1336620290445445,-1.5581953513200082,-0.5448086206497792,-3.125150863617394,-0.7249415760823105,-2.7379272877004848,0.0
0.27388504013763393,-1.5206711540306226,-0.7900017526383157,-3.631099638931646,-1.9501873645357044,-3.778921013984834,0.0
0.3025670881429994,-1.4768929056139464,-0.9106523415297525,-3.8265602693436884,-2.431857989618483,-4.869187692789715,0.0
0.23882942682724412,-1.429987631633625,-1.0313029474529543,-3.9329392685807147,-2.010477270000427,-4.591537207646835,0.0
0.1719047597183647,-1.2830177585653708,-1.1714132988568238,-4.236076124884395,-1.7116209521132024,-2.6659728731650656,0.0
0.3503705014852746,-1.1923341266940153,-1.3699029888932863,-4.4674290556308005,-2.0435394884659557,-1.8314571316094226,0.0
0.4459771050292135,-1.1266668088061802,-1.4866615980314122,-4.1461296759396395,-2.1336500373455376,-1.9550311567981469,0.0
0.43322952813793947,-1.254874528492563,-1.4827696353098667,-2.7497973353158427,-2.5660515807923434,-2.61122484288591,0.0
0.27707193436045247,-1.2017152033849512,-1.4827696353098667,-1.1502203292408755,-2.9932669583870952,-2.005086481324441,0.0
0.3216884534799095,-1.1423018271500485,-1.373794951614832,-0.5724872064246903,-1.579372204761452,-1.0243156341356154,0.0
0.46509847036612334,-1.067253432571278,-1.202548932502128,-0.3272965795426643,-1.3077437003837855,-0.061533390580644456,0.0
0.3280622419255462,-0.9640618079196992,-0.8172454405938396,0.014327051501838014,-0.9849011440376728,1.390070104912857,0.0
0.16234407704990964,-0.6701220070460114,-0.6187557569442889,0.37973458472884053,1.0727338784580855,1.9539741146985719,0.0
0.22926874415878906,-0.48250088375613653,-0.7121626642671137,0.36200476558749134,3.588053414088098,1.6309611634104333,0.0
0.3981736916869378,-0.4043254088765415,-0.9262201583524046,-0.21140400466457449,3.293735149459374,1.347053839015855,0.0
0.3312491361483645,-0.4043254088765415,-1.1013581061231237,-0.7783262407961525,1.4785561005199774,0.888735021842753,0.0
0.3089408765886359,-0.5200251084141114,-1.1791971902363847,-0.9253541224900542,0.7388706247935849,0.7284016463228133,0.0
0.3567442899309114,-0.6513599084013187,-1.2959558334380408,-0.8959485461512738,1.4033558100926435,0.7127593955653896,0.0
0.3503705014852746,-0.7201543065899778,-1.6345558408148426,-0.6775688946181729,2.299924637243954,1.0138732568444024,0.0
0.30575398236581763,-0.6638679559187207,-2.1054823082159526,-0.38135093912538526,0.6999739381169042,1.1726423462373312,0.0
0.27707193436045247,-0.6982651823816399,-2.350675550910963,0.18600373753691316,-1.0899222043902288,0.47812521447655715,0.0
0.4141081628010296,-0.6920111312543493,-2.4674341600490886,0.44762687251674416,-0.9693424567159642,-0.6606326935128203,0.0
0.6148820525573612,-0.8108378837241543,-2.6464640364778234,-0.054862546011032604,-1.3803507813747287,-1.7430783995671593,0.0
0.630816523671454,-0.9109024828120874,-2.6659238500855515,-0.40167540145105557,-2.0467808104958984,-1.6719058991529887,0.0
0.6594985716768189,-1.060999381443987,-2.6114365082380337,-0.42935121566695517,-1.8412766165389256,-1.81659710022959,0.0
0.6085082641117252,-1.048491279189406,-2.521921501896606,-0.20448504056198313,-2.151801997358818,-1.897154706893141,0.0
0.519275449013423,-1.0860154764787917,-2.4246225701120867,-0.3649184099303472,-2.72812122457968,-1.5530245797171258,0.0
0.45553778769766856,-1.15480992940463,-2.2922962463418997,-0.5110814316600415,-3.013363635712125,-1.0939237721086896,0.0
0.39498679746411974,-1.1266668088061802,-2.2261330163297455,-0.37226980401504234,-2.8953770342190697,-0.6864424225253871,0.0
0.25476389794133597,-0.9452996545378276,-2.124942121823681,-0.3333506625838154,-2.8480527964052107,-0.6348228881861676,0.0
0.20696048459906072,-0.838981059059783,-2.097698519026983,-0.44664862592343363,-2.518079103874569,-1.0501253631481824,0.0
0.27707193436045247,-0.7201543065899778,-2.1366180099883176,-0.3904320742357283,-2.0253876549630383,-1.644532036641582,0.0
0.21652116726751575,-0.7013922079452853,-2.191105351835835,-0.1962687759644641,-3.166357172982457,-1.9698913408061511,0.0
0.009373489065546614,-0.8546161321408303,-2.0509949663684357,0.10124648002325132,-3.16441245567071,-1.157274994515977,0.0
-0.06392496648896935,-0.873378230785523,-1.9342363572303092,0.09778699797195568,-1.857483606219732,0.11678857903388914,0.0
-0.11810205670657546,-0.6325978097566259,-1.949804208116492,0.006543219523576869,-0.37940925948514165,0.9325334308032605,0.0
-0.054364283820514295,-0.4481036572932174,-2.1054823082159526,-0.003402783462435868,-0.3132848858092664,-0.020863468020812584,0.0
0.031681637054969056,-0.5137710572868209,-2.257268581847989,-0.025889402950798654,-1.425082062772925,-0.6410798037519545,0.0
-0.054364283820514295,-0.688884105690704,-2.156077823596046,0.3235180541383682,-1.4419372915576474,-0.13661633921304278,0.0
-0.1404102046959979,-0.7482974819256066,-2.023751363571737,0.19940921466275918,0.5703182736911808,1.1038163513277621,0.0
0.012560383288365133,-0.9546807312287635,-2.1093742709374985,-0.5348653549397745,1.0461544938179888,1.1272798037779843,0.0
0.11454077527794032,-0.8608701832681207,-2.257268581847989,-0.7636234948212282,0.2059859477423605,0.5125382119313414,0.0
0.031681637054969056,-0.8577431577044757,-2.257268581847989,-0.9513002589720045,0.38231761087802774,0.8472829657586763,0.0
-0.12447584515221224,-0.7858217339521711,-2.2533766191264437,-0.5314058728884788,0.35833130916395795,1.1499611131647005,0.0
0.022120954386514003,-0.6701220070460114,-2.483002010935271,-0.4077294633949737,0.2779448212569788,0.758122014338822,0.0
0.06355057928315272,-0.5606763312671421,-2.521921501896606,-0.33724257461721474,0.2520136915345932,0.237234117821938,0.0
0.012560383288365133,-0.5856924810391255,-2.4401904209982694,-0.1707551222076996,0.13921328752118298,-0.26175455513617096,0.0
-0.04799049537487776,-0.5168980828504662,-2.4012709300369344,-0.158214505046061,0.41602806844747214,-1.8431888959915763,0.0
-0.028869241608273588,-0.4512306828568626,-2.432406495555178,-0.6408119452919305,0.3745382672171735,-2.495471943075897,0.0
0.07311115038130185,-0.385563282863259,-2.412946818201571,-1.0148681625499394,0.4056556418605907,-2.231117355814013,0.0
0.06036368506033446,-0.41057943263524244,-2.4090548554800257,-0.3255668385170166,1.0111474947855308,-1.5655384108486994,0.0
0.07311115038130185,-0.4387226079708709,-2.4557582718844517,0.32913970719741537,0.6344978668001268,-1.4536961500421286,0.0
0.07948493882693838,-0.4387226079708709,-2.459650234605997,0.5855736612947686,0.39787629819973624,-0.9625286215412533,0.0
0.0029997006199100834,-0.4387226079708709,-2.416838780923117,1.0889279832997958,0.6896014799024318,0.6134309277333494,0.0
0.23882942682724412,-0.5387872070588042,-2.3895950418722975,0.38838331095431267,1.6451635445450883,1.9735270044594375,0.0
0.283445722806089,-0.6544869339649639,-2.346783588189417,-0.6248118460789962,1.0331889526774893,1.258674878031335,0.0
0.15597028860427312,-0.6920111312543493,-2.3000800355308697,-0.39345912630492014,0.6234771062265566,0.37723253683159197,0.0
0.12091456372357685,-0.7264083577172685,-2.249484656404898,-0.0021054803303540903,1.7099913767579498,0.2317593262411353,0.0
0.29300640547454404,-0.6982651823816399,-2.4051628927584803,0.6724930792675655,2.038020098956117,-0.41661310091826487,0.0
0.38223922057284615,-0.6763760581733018,-2.3389996627463256,0.6569254311339678,2.222131137380228,-1.1549286416395463,0.0
0.2611374632463606,-0.5638033568307876,-2.1716455382281072,0.7473042889635948,2.7180639083217017,-1.0681140430961227,0.0
0.1782784365936953,-0.3886903084269045,-2.078238705419255,0.4445998415447851,1.7404605122974512,-1.0055448874382553,0.0
0.12410134637608944,-0.23859339611070987,-2.0743467426977094,0.6223306106210111,0.5255870871757572,-1.5397286818361324,0.0
0.018934060163695737,-0.17918003356010215,-1.996507624520918,1.2411450247789424,0.0776268603606906,-3.0429516353547688,0.0
0.022120954386514003,-0.23859339611070987,-1.9420202826734,1.3181184476771888,0.5469802743362089,-2.8356914312484705,0.0
0.15597028860427312,-0.2761176344529795,-1.9614800962811287,1.3120643857332708,1.9219783412851728,-1.913579177028156,0.0
0.32487534770272775,-0.42621453308487944,-2.315647886417052,1.2675235701457637,1.657480846581672,-1.1627497670182585,0.0
0.5479574970187885,-0.7858217339521711,-2.097698519026983,0.5323841616762551,-0.28800204263218326,0.6165593855162429,0.0
0.5001540836765135,-0.7264083577172685,-1.949804208116492,-0.11367370000717034,0.4860421297675699,0.9434829758078229,0.0
0.4141081628010296,-0.6607409303550755,-1.9420202826734,-0.37962119809973743,0.552814774174952,0.13790565952915876,0.0
0.4459771050292135,-0.6513599084013187,-1.9108845809010355,-0.4552973099544399,0.31554496647064567,-0.5878960595998098,0.0
0.4204819512466661,-0.7576785586165424,-1.9614800962811287,0.37541024271333734,0.3712968819320485,-0.4791822184190897,0.0
0.49696718945369467,-0.7764406572612349,-1.9536961708380376,0.7944397266381901,0.1800548180199749,0.024499138828544147,0.0
0.4396033165835765,-0.688884105690704,-1.8875329408258834,0.23659861506833837,0.13402706632084452,0.41633820188219506,0.0
0.43322952813793947,-0.62321673306569,-1.8875329408258834,-0.043186801340083514,0.023171491304112477,0.8480651088221818,0.0
0.3280622419255462,-0.5982005832937068,-1.914776543622581,-0.011619048059954864,0.012799040008175593,0.47030408909784494,0.0
0.22926874415878906,-0.5512953093133854,-1.9069927544336114,-0.10805204694812306,-0.25364331433123205,-0.05840493279775105,0.0
0.15597028860427312,-0.5168980828504662,-1.8953168662689746,-0.30956673930408224,-0.05332533366769962,-0.5777285813446671,0.0
0.3694916436815726,-0.5137710572868209,-1.9614800962811287,-0.6472984583151853,0.11782010826762912,-1.1181692913083312,0.0
0.5352099201275151,-0.4887549075148376,-2.023751363571737,-0.764055903706099,0.009557648792877389,-0.741190376490457,0.0
0.3886130090184827,-0.5731844335217233,-1.9809397736347354,-0.05443011075462065,-0.06304951324376752,-0.045891111205438234,0.0
0.31850155925709095,-0.5763114590853687,-1.9536961708380376,0.10773300359512257,-0.5460167667654342,-0.2672293467169738,0.0
0.23882942682724412,-0.535660181495159,-1.9031007917120657,-0.1149710057764062,-0.06434607052057656,-0.3399659424729413,0.0
0.24201632105006265,-0.46999280887014483,-1.9342363572303092,-0.32253978644782455,0.26173786320376324,-0.5128131109674116,0.0
0.35993118415372966,-0.4387226079708709,-1.957588133559583,-0.11886292308411382,-0.18557409683324547,-0.4033171648802288,0.0
0.48421961256242163,-0.39494433218560554,-1.9692640217242199,-0.028916447767816784,0.04975089768817813,0.06907963123217753,0.0
0.48421961256242163,-0.39494433218560554,-1.9692640217242199,0.04459749835344226,0.4121384124308404,0.4554439050898409,0.0
0.27069814591481567,-0.5294061851050474,-1.9614800962811287,0.011300004706954303,-0.04813911246736115,-0.21091714478193566,0.0
0.29300640547454404,-0.5137710572868209,-1.9225604690656726,-0.06048420038865691,-0.22706389806354432,-0.9069985245126778,0.0
0.29300640547454404,-0.5137710572868209,-1.9225604690656726,-0.15043067043064573,-0.37940925948514165,-1.3402896031085472,0.0
0.528836131681878,-0.3574201075276306,-2.0315352890148284,-0.10588987066606327,0.1476409098204418,-0.8272229082844607,0.0
0.36630474945875435,-0.3918173339905497,-2.0042915499640093,0.18903076850887227,0.7200705521867513,-0.18276104381441663,0.0
0.36630474945875435,-0.3918173339905497,-2.0042915499640093,0.023408181337872716,0.048454341399731295,-0.20074966652679288,0.0
0.23882942682724412,-0.4856278819511924,-1.9420202826734,-0.139619794294655,0.23321363474155507,0.11209589712917942,0.0
0.2898195112517258,-0.33553098331929265,-1.9420202826734,-0.16383615810510824,0.24942059279477047,0.24740161515560222,0.0
0.2898195112517258,-0.33553098331929265,-1.9420202826734,0.004381045878671188,0.47372485935857706,0.15276582445864162,0.0
0.23882942682724412,-0.3449120326416389,-1.9108845809010355,0.2737880365711504,1.0999615654572803,-0.5034277757757741,0.0
0.3025670881429994,-0.5200251084141114,-1.8058018599275467,0.08611125132314099,0.5949528777643484,-1.0892310663558282,0.0
0.3025670881429994,-0.5200251084141114,-1.8058018599275467,-0.1707551222076996,0.7071050110462516,-1.5240864310787083,0.0
0.6244427352258181,-0.5200251084141114,-1.8680731272181548,-0.09334925877873292,0.6513530955848489,-0.8632001918662563,0.0
0.735983809883848,-0.385563282863259,-2.0315352890148284,0.014327051501838014,-0.3113400736147462,-0.0834325855216374,0.0
0.6276296294486363,-0.31051483354730924,-1.988723699077827,0.09303021542573237,-0.4267335921817744,0.09176093584926351,0.0
0.5383968143503334,-0.30738780798366394,-1.9342363572303092,0.077894986725622,-0.7152173569717539,0.43901951126891126,0.0
0.5033409778993317,-0.3167688573060104,-1.8447213508888811,-0.05788959016876221,-1.0432462056802847,0.027627594226622355,0.0
0.6116951583345435,-0.34178503444658304,-1.8875329408258834,-0.08340325315556607,-1.2662538675258959,-0.20466024829467033,0.0
0.6594985716768189,-0.3574201075276306,-1.949804208116492,-0.03972732192594196,-1.5359376545918149,0.3217024207244951,0.0
0.5702657565785169,-0.3636741586549211,-1.8680731272181548,-0.0016730450739421364,-1.121039579033646,0.7839317433513889,0.0
0.42685573969230317,-0.3511660837689294,-1.7785581890037878,0.04286775732779443,-1.7018968595130097,0.5899675134401705,0.0
0.4587246819204866,-0.29800675866131765,-1.8758570526612466,-0.09551143506079271,-2.1070707159606217,0.17701135319754394,0.0
0.5766393218835417,-0.25735550843969734,-1.988723699077827,-0.06999777075541178,-2.1543949537744824,-0.34856921091515874,0.0
0.35993118415372966,-0.30738780798366394,-2.062670854533072,0.33259918924871096,-2.2419125462384,-0.2930391138865835,0.0
0.3981736916869378,-0.263609559566988,-1.8680731272181548,0.15054405705974896,0.9832715054272386,1.1695139266114805,0.0
0.48103271833960337,-0.3136418591109547,-1.7396386299153923,-0.7809208628832407,3.29438338856329,1.9070473624262994,0.0
0.283445722806089,-0.269863583325689,-2.0432110409253443,-1.0213547177676598,-0.9343353944283245,1.480795189831551,0.0
0.11135388105512205,-0.33553098331929265,-2.1638617490391368,0.24005809711963397,-1.8691525426420361,0.0729902010759791,0.0
0.04124231972342436,-0.4481036572932174,-2.097698519026983,1.0283870263048887,-1.162529285381172,-0.6528114918200226,0.0
0.1272882405989077,-0.579438484649014,-2.1054823082159526,0.7092500285938081,-0.6231619010148797,0.026845480377102802,0.0
0.29300640547454404,-0.6294707841929807,-2.093806556305437,0.34124787327971734,0.49446974415993095,1.649731833793708,0.0
0.3886130090184827,-0.6138356563747541,-2.1171581963805894,0.5003839632503867,0.38166934014652093,2.0994473825245925,0.0
0.3439967130396378,-0.49500895864212824,-2.191105351835835,0.7654665591842806,-0.2179879971258808,1.9000083037970072,0.0
0.20696048459906072,-0.49813598420577354,-2.179429463671198,0.9073052810929374,-0.5045269971627266,1.1867204634959156,0.0
0.09541940994102996,-0.6388518061467375,-2.054886929089981,0.6206008906925962,-0.2951331155615307,0.6697431296683876,0.0
0.21014737882187898,-0.7357894344082044,-2.0432110409253443,0.052381322420241086,0.030950829528974592,0.6814748177364556,0.0
0.31212777081145443,-0.7295353832809138,-1.9692640217242199,-0.2745395099062547,0.49446974415993095,1.0999057886384065,0.0
0.29300640547454404,-0.6451058572740279,-2.039319078203799,0.03984071053291072,0.4795593591973202,1.4346505043086986,0.0
0.283445722806089,-0.5419142326224494,-2.054886929089981,0.2677339324327666,0.8289813001835297,1.5089514243487199,0.0
0.3025670881429994,-0.5888195066027708,-2.0003995872424634,0.33995056223617315,0.691546323724543,1.7607920278508589,0.0
0.3376229245940013,-0.6482328828376732,-2.0315352890148284,1.0357384836812824,0.5385526599438477,2.434192098194885,0.0
0.560705073910062,-0.732662408844559,-1.9926156617993724,1.076387366138157,0.4374212556079237,3.4712751854757906,0.0
0.6085082641117252,-0.7389164052346706,-2.0354272517363743,1.1546581000799478,0.9028849858926683,4.332382570165249,0.0
0.5543312854644254,-0.7858217339521711,-2.04710300364689,1.4279568867710455,0.653946178510876,4.360538804682418,0.0
0.24520321527288091,-0.8639972088317662,-2.023751363571737,1.3769296003547495,-0.08898063505925531,2.879997007922327,0.0
0.12091456372357685,-1.0203481585909566,-2.066562817254618,0.8865483887851634,0.29544833658700315,1.5949839561427237,0.0
0.23882942682724412,-1.060999381443987,-2.101590345494407,0.27249072552760634,0.5709665760502787,1.5042587185958585,0.0
0.3376229245940013,-1.1235397832425351,-2.1872133891142895,0.2240580190039327,0.7038636257611269,2.921448987692319,0.0
0.23882942682724412,-1.098523578733373,-2.1755375009496523,1.013251787056162,0.9651197351795027,4.1524965338267,0.0
0.09541940994102996,-0.9953319540817943,-2.0704547799761635,1.9797440418831436,1.1077409407457255,4.854052533431552,0.0
0.012560383288365133,-0.9640618079196992,-1.9809397736347354,2.896073659285708,1.7748192089708115,4.9596379549864205,0.0
-0.05755117804333281,-1.0578723558803422,-1.8641811644966093,3.326346491523121,2.386793737583229,4.880644634449882,0.0
-0.14359709891881617,-1.1829531594774374,-1.7902340771684249,3.388617084057512,1.6626670124337262,4.782880185645553,0.0
-0.22645623714178742,-1.298652776909239,-1.6851512880678752,3.18623757393181,0.7764707700072518,4.232271921112661,0.0
-0.3156890522400893,-1.3580661531441414,-1.556716790765112,2.803532757031727,0.6260702524077656,3.264014981369494,0.0
-0.3156890522400893,-1.3987173759971725,-1.4672018525507449,2.3088269502798417,0.6299598767968064,2.5100571517337458,0.0
-0.34118420602263616,-1.5644494024472986,-1.389362734373954,1.7665534657463555,0.2429378064107252,1.8906228922912842,0.0
-0.3539316713436036,-1.69891128273533,-1.3115236843242235,1.2986588664129588,-0.1823326957343252,1.3275009492549894,0.0
-0.36667924823487713,-1.7958488562596178,-1.2803880506789191,0.7537908441813153,-0.5758375999458378,0.4272878232008432,0.0
-0.4336039153437566,-1.808356849039841,-1.2103328238816888,0.4774648999348611,-0.378112718022128,0.06829751917126939,0.0
-0.4336039153437566,-1.8583892580581658,-1.1947650070590368,0.3421127754383906,-0.07342196355134217,-0.13114152855371866,0.0
-0.44316459801221164,-1.874024276402034,-1.1869811156794758,0.3628696255516988,-0.04489771927533854,-0.18510739669084736,0.0
-0.40492186733839114,-1.8990404809111965,-1.1986569697805822,0.3905454819620642,-0.2666088554717317,-0.2054423532011329,0.0
-0.41766944422966473,-1.905294532038487,-1.1363857024899737,0.44935663463962483,-0.3943196760753436,-0.32588790152844255,0.0
-0.3953612962402423,-1.8990404809111965,-1.1052500688446698,0.3537884904413559,-0.7204035860789902,-0.3321448170942294,0.0
-0.3539316713436036,-1.958453747671741,-1.0780063979209107,0.26340959041726336,-0.3204159587386141,-0.12566673697291594,0.0
-0.32843662913136284,-1.949072670980805,-1.0780063979209107,0.2742204665532542,0.0879993106682653,0.03701296131516266,0.0
-0.30612836957163425,-1.992851028871839,-1.0429788015540609,0.42730243128830664,0.1554202455743984,0.345947959002658,0.0
-0.2870071158050303,-2.0428832189414474,-1.0313029474529543,0.5583302559637399,-0.10259447855885263,0.4976780660803799,0.0
-0.26151196202248345,-2.074153474577901,-0.9962753510861045,0.5976818273770705,-0.06499434125208337,0.629855321554279,0.0
-0.26788575046811997,-2.06789942345061,-1.0118431679087567,0.46189725180126334,-0.323657344023739,0.5915317232530958,0.0
-0.2455774909083916,-2.0303753356355823,-0.9923833883645591,0.2928151667560437,-0.22252595550161028,0.19578208081638282,0.0
-0.22964313136460596,-2.014740207817356,-0.9729236088203612,-0.005564959744495652,-0.11685660860375219,0.14729102333857821,0.0
-0.2455774909083916,-2.0241212845082917,-0.9651397174408,-0.1456738878844224,-0.008594139245378283,0.11600646458816581,0.0
-0.2519512793540284,-1.9897240033081935,-0.9534638292761634,-0.1880525113669451,0.06919924399160508,0.09801784664541992,0.0
-0.2519512793540284,-1.93656478767494,-0.957355791997709,-0.15475502299476532,0.17292376090442285,0.30293169310565615,0.0
-0.22964313136460596,-1.905294532038487,-0.9729236088203612,-0.08945734147102527,0.11133732979048161,0.3928747875890159,0.0
-0.2583250677996649,-1.8771513019656791,-0.9651397174408,0.03205688119180367,0.02706116016945298,0.4570081530598088,0.0
-0.29656779847348536,-1.8615161741474529,-0.9534638292761634,0.1466521450263495,-0.25558812652575247,0.2732113632466905,0.0
-0.3539316713436036,-1.8052299329505535,-0.9301121210739502,0.09432751592066002,-0.337919458254843,0.033884505544457086,0.0
-0.34118420602263616,-1.7551976334065873,-0.9145443042512981,-0.007727133389401338,-0.17260852406515495,-0.18588950159731002,0.0
-0.3507447771207853,-1.7677056261868103,-0.9262201583524046,-0.17594433473602664,0.11587527235241557,0.0018178342114581888,0.0
-0.32843662913136284,-1.7739596773141006,-0.9534638292761634,-0.21053913415175052,0.4536282136611391,-0.006785417537053082,0.0
-0.3188759464629078,-1.780213728441391,-0.9729236088203612,-0.235187917395691,0.3563864969694376,-0.03572363295029546,0.0
-0.2901940100278486,-1.8021029073869086,-0.9417879751750567,-0.17291729321545116,0.3324001952553678,-0.1944927509610061,0.0
-0.24876438513120985,-1.786467779568682,-1.0196270592883176,-0.1305386697329285,0.25849647791863833,-0.43069118001980655,0.0
-0.22326934291896916,-1.7708326517504556,-1.0040592424656654,-0.16383615810510824,0.06725441005311593,-0.5792928293146352,0.0
-0.21689555447333236,-1.7708326517504556,-1.007951205187211,-0.1357278822612556,0.2020962759119333,-0.7505757879961801,0.0
-0.20414797758205905,-1.752070607842942,-1.0313029474529543,-0.21702566827223813,0.20339283318874235,-0.564432645306631,0.0
-0.2455774909083916,-1.7708326517504556,-1.066330509756274,-0.2239446112775966,0.3401795389162222,-0.26801147070195785,0.0
-0.2901940100278486,-1.7583245494958746,-1.1052500688446698,-0.08556542943762586,0.36222099680818065,-0.13739844411950541,0.0
-0.2901940100278486,-1.7583245494958746,-1.1052500688446698,0.01605678725317763,0.19042726042065183,-0.05527648455411839,0.0
-0.2933809042506669,-1.8052299329505535,-1.1130339602242305,0.10600326256947469,0.12819255857520379,-0.18980008336518744,0.0
-0.23601691981024248,-1.8333730535490034,-1.0780063979209107,0.08697612183596493,-0.011187253798996393,-0.28521796942934985,0.0
-0.23601691981024248,-1.8333730535490034,-1.0780063979209107,0.10427352154382685,-0.03906321943659553,-0.17493991843570458,0.0
-0.13084963359784876,-1.949072670980805,-1.0157350965667722,0.15573328013669244,-0.16418090967279392,-0.11471714427204982,0.0
-0.13084963359784876,-1.949072670980805,-1.0157350965667722,0.08178690930763785,-0.24132601229464826,0.07924711425695069,0.0
-0.11172826826093867,-1.949072670980805,-1.0196270592883176,0.035083927986687385,-0.16936713878003004,0.16058695937661438,0.0
-0.16271846425572653,-1.905294532038487,-1.0196270592883176,0.019948704560885273,-0.14602912361126266,0.1699723327252945,0.0
-0.18821361803827316,-1.874024276402034,-1.0040592424656654,0.059732716504936174,-0.23678805391891897,0.12148126570822922,0.0
-0.21689555447333236,-1.8427541302399393,-0.9768155715419067,0.011732439963366252,-0.36644371834464223,-0.028684607708415695,0.0
-0.24239070825587927,-1.839627104676294,-0.9417879751750567,-0.1344305817663279,-0.27762958441771085,-0.02320981135798262,0.0
-0.23601691981024248,-1.8239919768580675,-0.957355791997709,-0.2693502868293112,-0.001463082129826243,-0.05996916168919775,0.0
-0.23601691981024248,-1.7708326517504556,-0.957355791997709,-0.3173505633708811,0.13402706632084452,-0.12957729966227197,0.0
-0.23283002558742422,-1.7551976334065873,-0.9962753510861045,-0.24729610457522597,0.030302551384751176,-0.22577730971141854,0.0
-0.21689555447333236,-1.7426895311520059,-1.0157350965667722,-0.13702519330479965,-0.05786328413653129,-0.19214641716309677,0.0
-0.17227914692418156,-1.7489435822792965,-1.0313029474529543,-0.07734916484010687,-0.11491176478164088,-0.13974477791741474,0.0
-0.16909225270136305,-1.720800352206489,-1.0274109847314086,-0.012051483316366818,0.006316257577579201,0.13086662951764869,0.0
-0.16271846425572653,-1.73330845446107,-1.0313029474529543,0.00394861062225922,0.06336474019941321,0.2317593262411353,0.0
-0.18502672381545487,-1.7270544033337796,-1.0507626929336218,0.06665168060752753,0.09188898249869244,0.24583738626415552,0.0
-0.19777418913642228,-1.720800352206489,-1.058546618376713,0.12416553279016057,-0.05980812005174489,0.03544873339254714,0.0
-0.1659053584785448,-1.7364354800247155,-1.058546618376713,0.09692212745913177,-0.14602912361126266,-0.22030251813061583,0.0
-0.1340365278206673,-1.7239273777701343,-1.0118431679087567,0.077894986725622,-0.12917389482654046,-0.3297984642177986,0.0
-0.1404102046959979,-1.7301814288974249,-1.023519022009863,0.09475995645138019,0.00437142363909005,-0.07561144106440394,0.0
-0.14678399314163468,-1.7176733266428434,-1.0468707642756063,0.14103049196730222,0.026412882519410673,0.17388289541465055,0.0
-0.20096108335924054,-1.6926572316080393,-1.0313029474529543,0.23140941308862778,-0.12593249372762008,0.1918715181270268,0.0
-0.2901940100278486,-1.7145463010791984,-1.0429788015540609,0.3641669365952429,-0.34375395809358605,0.14650890889285487,0.0
-0.2933809042506669,-1.752070607842942,-1.0274109847314086,0.42254563819346697,-0.41376801941368385,0.04561621455418341,0.0
-0.25513817357684665,-1.8302460279853578,-0.9845994629214676,0.3485992884616453,-0.3670919890761489,0.04796255669894587,0.0
-0.22964313136460596,-1.8708972508383888,-0.9651397174408,0.17130094936752296,-0.20178103907266545,0.04952678439798497,0.0
-0.22326934291896916,-1.8677702252747435,-0.9612477547192545,0.027300098645580355,-0.009242417883782822,-0.02477404024942932,0.0
-0.22645623714178742,-1.8615161741474529,-0.9884914256430131,0.03811097478157109,0.07892341763749966,-0.06466184836353782,0.0
-0.1786529353698181,-1.8802783275293247,-0.9923833883645591,0.14405754403649423,-0.13241528011166534,-0.05996916168919775,0.0
0.1782784365936953,-2.2398856105023848,-1.525581157119808,1.5330386593534602,-3.7958352959938755,3.9319402792112377,0.0
0.283445722806089,-2.1054237302143535,-1.1247098483888673,3.638997018405412,-3.1883988206399616,4.750813617381286,0.0
-0.1404102046959979,-1.8177379257307769,-1.0624385810982588,3.8309980401827612,-3.9378082624561825,3.414963021697796,0.0
-0.3953612962402423,-1.6738950782261677,-0.8328132574164918,3.1736970411591034,-4.169892030818797,1.2969985144895608,0.0
-0.37942682512615045,-1.69891128273533,-0.8328132574164918,3.0893722452733945,-5.481358933528277,-2.4117857641583242,0.0
0.08267183304975691,-1.6582599504079412,-0.8328132574164918,2.9522901898761797,-1.3278402511984508,-5.755322739742317,0.0
0.06673747350597124,-1.5957196580837514,-0.7432983021703593,2.319637847513066,2.229262273564759,-7.085698257667182,0.0
-0.06711186071178786,-1.970961849926322,-0.3969143523187012,0.8995214148316728,3.027292684423399,-7.402454827588133,0.0
-0.31250215801727127,-1.9897240033081935,-0.3541028645722903,-0.8142183723526534,0.413434985521445,-6.229283883986929,0.0
-0.3379973117998179,-1.9303107365476493,-0.2879396345601361,-1.8762785604055754,0.16255130268995044,-2.7136816921867575,0.0
0.13684892326736275,-1.8646431997110982,-0.3463189391291992,-2.028495770662585,1.3391762169836978,-1.268335188573128,0.0
0.07948493882693838,-1.7739596773141006,-0.3696706643631772,-1.533790132688564,2.6791672849002035,0.4890747976381625,0.0
-0.10216758559248362,-1.7614515750595197,-0.4708614907421815,-0.6719472415591258,2.1171100770276734,2.366148170034736,0.0
-0.2583250677996649,-1.7739596773141006,-0.43972585709687717,0.43076191333960245,1.6659084609740331,2.400561243803606,0.0
-0.27425953891375676,-1.720800352206489,-0.4514017111979837,1.2977940486432171,1.4325283409139493,1.7295075263360107,0.0
-0.20733487180487734,-1.7239273777701343,-0.4008062980084816,1.4513084855548397,0.6520013346887649,0.7190163111311761,0.0
-0.18821361803827316,-1.720800352206489,-0.2606959295728472,1.479416750850076,1.830571187687396,0.11913492237105919,0.0
-0.19140051226109167,-1.7458165567156514,-0.15950513725737325,1.7609318126873088,3.968592539952179,-0.25549763957038435,0.0
-0.1340365278206673,-1.7145463010791984,-0.1400453577131757,1.8625541454128929,4.599367394192156,-0.23594480704508267,0.0
-0.11810205670657546,-1.6707680526625224,-0.15172121181428208,1.5256872019770655,3.7047435373733233,0.01198531485141615,0.0
-0.18821361803827316,-1.7301814288974249,0.050660406880195755,1.4236326291444743,4.09695172617007,0.31779185803513904,0.0
-0.159531570032908,-1.7426895311520059,0.24525813419511294,1.4608219873555868,4.763381502270514,0.43667315839248044,0.0
-0.11172826826093867,-1.752070607842942,0.32309725237190395,1.3341185890845888,5.362390869273522,-0.24141959862588552,0.0
-0.28382022158221204,-1.7583245494958746,0.4593156069906974,1.3678485074388722,6.061234624735578,0.05030889765130073,0.0
-0.22326934291896916,-1.7426895311520059,0.49434320335754717,1.1295768657566705,5.190596879865266,0.3482943118790888,0.0
-0.3507447771207853,-1.7301814288974249,0.5721823215343383,0.6556281200904238,3.811061075933709,0.8120878252403865,0.0
-0.37942682512615045,-1.6832761549171036,0.6850489679509186,0.2266526199937879,3.507018465684066,1.6966587386941516,0.0
-0.40492186733839114,-1.7301814288974249,0.8485111297475921,0.09475995645138019,3.2904937009190682,1.783473337237575,0.0
-0.4718465344472706,-1.7489435822792965,0.8991065088735638,0.06535438011259985,3.348190523457765,1.7998978073725902,0.0
-0.455912063333179,-1.73330845446107,0.9029984715951094,-0.08945734147102527,3.2846590429423705,1.713083056200995,0.0
-0.5005285824526358,-1.6301168298094915,0.8640788443796533,-0.23562036847502763,4.218179776203431,2.2050328040794622,0.0
-0.5005285824526358,-1.6301168298094915,0.8640788443796533,-0.265025944813808,4.988982373552515,2.903460536686635,0.0
-0.7905352873072702,-1.6801491293534583,0.8485111297475921,-0.24124202153407487,5.199672733361542,3.016084864242626,0.0
-0.9913092328487554,-1.6551329248442959,0.8485111297475921,-0.028916447767816784,3.999710041105959,2.702457171832039,0.0
-0.9913092328487554,-1.6551329248442959,0.8485111297475921,0.4320592243831466,2.92551307261115,1.935203444315297,0.0
-1.0837289421698757,-1.7270544033337796,1.023649043454781,1.168063535011328,1.9835647249577277,0.4014780560312335,0.0
-1.058233844172482,-1.6926572316080393,1.0859203107453896,2.2236373366243924,1.5576459520811705,-1.5412929679631433,0.0
-1.058233844172482,-1.6926572316080393,1.0859203107453896,2.7615863947534445,0.7998087693622238,-2.3781549097670447,0.0
-1.0996634132839673,-1.6144817019912652,1.1676513916437263,3.0309933327028418,0.47826278610671563,-2.867758304769081,0.0
-0.9913092328487554,-1.4894010078685278,1.3038698143895802,2.8852627620524838,-0.25882954343846837,-3.4394832873053365,0.0
-0.9913092328487554,-1.4894010078685278,1.3038698143895802,2.1012581959799657,-0.7839348768288382,-3.8798134245304974,0.0
-0.9211976715170576,-1.2673826307471443,1.3544651935155518,1.1507661669493154,-0.009890696522187334,-3.2071957261922344,0.0
-0.8160303853046639,-1.2329854590214042,1.4478720263244043,0.1535711091289408,-0.03517354760616837,-2.79658565172674,0.0
-0.7714139777555131,-1.220477356766823,1.4828996908183147,-0.6758391746897582,0.05882679170730597,-2.429774367792179,0.0
-0.7714139777555131,-1.220477356766823,1.4828996908183147,-0.9141108163719597,0.7058084695832383,-2.0997222052465765,0.0
-0.7204237259755722,-1.1923341266940153,1.471223802653678,-0.7234070212492242,1.9634681741430626,-1.9698913408061511,0.0
-0.7395450913124823,-1.186080185041083,1.4089525353630694,-0.4687028292747517,2.1508205345971176,-1.7860946654641612,0.0
-0.7395450913124823,-1.186080185041083,1.4089525353630694,-0.17594433473602664,0.6390357935482652,-1.771234481456157,0.0
-0.7459188797581192,-1.2017152033849512,1.373924870869159,0.18513885647547276,0.20793077575067628,-1.617940088251424,0.0
-0.780974660423968,-1.2017152033849512,1.4128444980846149,0.5726005930537934,-0.28216754279344014,-1.5233043643292887,0.0
-0.780974660423968,-1.2017152033849512,1.4128444980846149,0.899089005946802,-0.8766386351448102,-1.7641954228268648,0.0
-0.7204237259755722,-1.2017152033849512,1.5023593681719218,0.33519381133579923,-0.9323906138613949,-1.8267645784847324,0.0
-0.6694335299807846,-1.1172857321152443,1.5023593681719218,-0.14091710533819907,-0.33986430207695434,-1.3817417355067094,0.0
-0.6758073184264214,-1.0297292352818923,1.342789305350915,-0.4816758553212611,-0.6030652869450324,-1.4247580014037111,0.0
-0.6885548953176948,-1.0422372280621155,1.3077616408570045,-0.720812399162136,-1.2954263983472019,-1.5530245797171258,0.0
-0.7427319855353007,-1.0828885603895044,1.4439800636028588,-0.6559471423461916,-0.5894514434454353,-1.592912425988277,0.0
-0.6311909108772704,-1.145428852713694,1.5257111445011955,-0.4898921304673966,0.98521634924935,-1.6468783895180128,0.0
-0.5578925668930602,-1.1360478854971163,1.463439877210587,-0.3843779911945771,2.785484823460592,-1.3277757719769736,0.0
-0.6311909108772704,-1.1423018271500485,1.5101432936150128,-0.30956673930408224,3.4195011262408777,-1.253475004565124,0.0
-0.7267975144212091,-1.0735074836985685,1.3505732307940064,-0.6066495758583104,2.2513036682015355,-1.4576067890455704,0.0
-0.8096566526441802,-1.0703804581349232,1.187111068997333,-1.075409035155915,0.3959314543776251,-1.6554815816461448,0.0
-0.8542730601933312,-1.1266668088061802,1.2026789198835155,-1.3193024142860954,-1.2085570449872,-1.5936946453658682,0.0
-0.7969090757529067,-1.2267314078941136,1.3194375290216414,-1.1921665227412945,-1.6072482573749263,-1.4826344513087173,0.0
-0.6662466357579662,-1.2173503312031777,1.3856007590337958,-1.2055719576726749,-1.6493863293367317,-1.07749937828776,0.0
-0.6248171224316337,-1.2673826307471443,1.4361961381597674,-1.1130308866408307,-0.9550803108572693,-0.6137057886123767,0.0
-0.6025089744422113,-1.2580015540562084,1.463439877210587,-0.4475134858876411,1.0273544212111554,-0.5034277757757741,0.0
-0.5865745033281193,-1.2454934518016274,1.3972766471984326,0.11724656868756926,2.403648966367952,-0.828787118097386,0.0
-0.5451449900017868,-1.1985881778213061,1.3544651935155518,0.5276273685814155,3.1459275250203693,-1.1392863908821222,0.0
-0.5610793495455725,-1.2048422289485965,1.335005379907824,0.4951947190762104,2.5786841512957865,-1.3739206101279973,0.0
-0.6503122762141805,-1.2173503312031777,1.335005379907824,0.26340959041726336,1.385203976589726,-1.3825238022561293,0.0
-0.6503122762141805,-1.2392395101486946,1.3272214544647327,0.05497593395871284,0.28572416491783303,-1.0297904066378967,0.0
-0.682181106872058,-1.2611285796198537,1.3544651935155518,-0.018970443463227,-0.11167037949651598,-0.779514012948683,0.0
-0.7172369433230601,-1.1735720827865015,1.3972766471984326,0.11335465665416977,0.2208963485187668,-0.737279813801101,0.0
-0.7172369433230601,-1.186080185041083,1.440088100881313,0.2837340316457007,0.9041815906108638,-0.5581757297408441,0.0
-0.6885548953176948,-1.1923341266940153,1.5373870326658323,0.42470785139568434,1.3359348949537546,-0.30868140280105044,0.0
-0.6566860646598173,-1.1954611522576608,1.5685225981840758,0.35897773461553234,1.1226513257083364,-0.07873989884729732,0.0
-0.6598729588826356,-1.176699108350147,1.5529548835520146,0.2175714848834451,0.5191043166055075,-0.012260213887486156,0.0
-0.6598729588826356,-1.1329208599334708,1.5724145609056217,0.07832742725634219,0.21765494741984645,0.06986174567790089,0.0
-0.6598729588826356,-1.1360478854971163,1.5490629208304691,0.059732716504936174,0.2183032339651487,0.06438694932746783,0.0
-0.6439384877685439,-1.1204127576788898,1.5724145609056217,0.026867663389168385,0.1962617760731903,0.07924711425695069,0.0
-0.6407515935457253,-1.1047776298606633,1.5724145609056217,0.04113801630214659,0.28766899292614895,0.04796255669894587,0.0
-0.6789942126492396,-1.1047776298606633,1.5490629208304691,0.06016515703565635,0.36351753827119426,0.05969426503794293,0.0
-0.6758073184264214,-1.0953965531697274,1.5257111445011955,0.08092203879481395,0.21506183286622835,0.03857718901420176,0.0
-0.6885548953176948,-1.0860154764787917,1.5218191817796496,0.11854387973111324,0.12235805873646081,0.013549543742862841,0.0
-0.7108631548774234,-1.0828885603895044,1.5257111445011955,0.1284898853542801,0.0030748663622809994,-0.038852090733188835,0.0
-0.7267975144212091,-1.092269527606082,1.5451709581089237,0.08481395082821334,-0.002759635453186434,-0.01851712945327292,0.0
-0.7236106201983908,-1.1047776298606633,1.5334950699442869,0.0791922977691661,0.1450477952668237,0.08785036839027713,0.0
-0.7204237259755722,-1.0735074836985685,1.5529548835520146,0.060597587017760086,0.14245468071320563,0.09723573219969657,0.0
-0.7236106201983908,-1.0578723558803422,1.5451709581089237,0.04459749835344226,0.052344010265071794,0.10192841887403664,0.0
-0.7236106201983908,-1.0703804581349232,1.5607388089951055,0.07184090368447102,-0.018318314867997308,0.008074745007614596,0.0
-0.7172369433230601,-1.067253432571278,1.5840904490702585,0.02470548710710858,-0.07277368491293766,0.0018178342114581888,0.0
-0.7331713028668456,-1.0578723558803422,1.5840904490702585,-0.010321744927873095,-0.038414940798191015,-0.07013664948360124,0.0
-0.7331713028668456,-1.0735074836985685,1.5373870326658323,0.0017864343401994207,0.11004077251367256,-0.08734314821099344,0.0
-0.7427319855353007,-1.0703804581349232,1.5373870326658323,0.006543219523576869,0.07503374580707252,-0.10611388536909301,0.0
-0.7363581970896642,-1.0766345092622136,1.5529548835520146,0.04892184564325362,-0.045545997913743044,-0.11002445759770972,0.0
-0.7363581970896642,-1.0766345092622136,1.5529548835520146,0.09130047440008449,-0.09222202825127794,-0.08108624218446739,0.0
-0.7299844086440274,-1.045364253625761,1.5568468462735605,0.09519238643348393,-0.04684255519055211,-0.039634205178912196,0.0
-0.7076762606546048,-1.048491279189406,1.5918743745133495,0.056705674984360674,-0.002759635453186434,-0.019299239129365896,0.0
-0.7140500491002417,-1.045364253625761,1.5840904490702585,0.020381139817297222,-0.04165632608331591,-0.056058598999841724,0.0
-0.7140500491002417,-1.0391102024984702,1.5724145609056217,0.00394861062225922,-0.11102209295121372,-0.06466184836353782,0.0
-0.7204237259755722,-1.035983176934825,1.5296031072227407,0.04978671615607754,-0.0494356697441702,-0.06857242059215454,0.0
-0.7267975144212091,-1.045364253625761,1.5257111445011955,0.0740030746922226,-0.015076921675974672,-0.0427626581921752,0.0
-0.7076762606546048,-1.048491279189406,1.5529548835520146,0.03162444593539172,0.13143395176722644,0.01746011358666439,0.0
-0.69811557798615,-1.0641264070076326,1.5957663372348954,-0.011619048059954864,0.23126879091944375,0.08237556727021371,0.0
-0.7044893664317865,-1.0578723558803422,1.6035502626779865,-0.056159850461691425,0.1852410471272111,0.04952678439798497,0.0
-0.7044893664317865,-1.060999381443987,1.5685225981840758,-0.05270037104754988,0.05104745397662496,0.02606336652758325,0.0
-0.7140500491002417,-1.045364253625761,1.5218191817796496,-0.027186708060746002,0.000481753785387334,0.010421088344784635,0.0
-0.69811557798615,-1.0516183047530514,1.5451709581089237,-0.03583540717297737,0.09188898249869244,0.04718044225322252,0.0
-0.7013024722089682,-1.0516183047530514,1.5490629208304691,-0.028916447767816784,0.04261983711335832,0.07924711425695069,0.0
-0.7204237259755722,-1.0703804581349232,1.5763065236271672,-0.0012406098175301826,0.012150761369771054,0.056565809639864725,0.0
-0.7267975144212091,-1.089142502042437,1.5918743745133495,0.027300098645580355,-0.11361520750483182,0.0025999486571815296,0.0
-0.7395450913124823,-1.0641264070076326,1.5840904490702585,-0.002970350843178008,-0.05008394838257474,-0.02477404024942932,0.0
-0.7363581970896642,-1.0766345092622136,1.5763065236271672,-0.09551143506079271,0.09772348629088431,-0.0052211910304215715,0.0
-0.7299844086440274,-1.060999381443987,1.5568468462735605,-0.12059265883545343,0.14634435254363276,0.033884505544457086,0.0
-0.7267975144212091,-1.045364253625761,1.5412789953873778,-0.019835313976050917,0.030950829528974592,0.022934911129505044,0.0
-0.7140500491002417,-1.0328562608455378,1.5646306354625303,0.03162444593539172,-0.02285626138338012,-0.0036569621389748812,0.0
-0.7236106201983908,-1.035983176934825,1.5568468462735605,0.0009215638273755177,0.04650950647287993,0.018242226839980148,0.0
-0.7172369433230601,-1.026602209718247,1.5101432936150128,-0.044916541706442825,0.10031659689105352,-0.009913875319946473,0.0
-0.7076762606546048,-1.023475184154602,1.5373870326658323,-0.03756514704487028,0.02252321266570795,-0.045891111205438234,0.0
-0.7076762606546048,-1.023475184154602,1.5373870326658323,-0.016808268499744265,0.016040431223473782,-0.023991925803705984,0.0
-0.7267975144212091,-1.0328562608455378,1.5218191817796496,-0.005132524488083699,0.1145787150756065,0.061258493929389625,0.0
-0.7395450913124823,-1.048491279189406,1.5257111445011955,0.02513792236352055,0.0821648068760734,0.05265523979606317,0.0
-0.7395450913124823,-1.048491279189406,1.5257111445011955,0.04027314578932269,0.016688709861878308,0.006510518500983093,0.0
-0.7299844086440274,-1.0641264070076326,1.5996582999564408,0.03378662221745152,0.014743873946664722,-0.038852090733188835,0.0
-0.7331713028668456,-1.060999381443987,1.5763065236271672,0.0074080900364007765,0.0529922879151141,0.0033820631029048884,0.0
-0.7331713028668456,-1.060999381443987,1.5763065236271672,0.031192010678979757,0.1690340890739957,0.033884505544457086,0.0
-0.7076762606546048,-1.0516183047530514,1.5763065236271672,0.07962472775126984,0.1022614328062671,0.01746011358666439,0.0
-0.6885548953176948,-1.0328562608455378,1.5646306354625303,0.0740030746922226,0.02252321266570795,-0.020863468020812584,0.0
-0.6885548953176948,-1.0328562608455378,1.5646306354625303,0.05065158666890146,-0.12333937917400198,-0.0936000637767802,0.0
-0.69811557798615,-1.0203481585909566,1.587982411791804,0.018651398791649395,-0.16223608166447806,-0.13505211032159609,0.0
-0.7044893664317865,-1.0109670819000207,1.5529548835520146,-0.010321744927873095,-0.02739420789876294,-0.11080657204343308,0.0
-0.7044893664317865,-1.0109670819000207,1.5529548835520146,-0.03497053723703091,0.005667978939174664,-0.0365057473960188,0.0
-0.7013024722089682,-1.0109670819000207,1.5529548835520146,0.023408181337872716,0.059475070345710486,-0.061533390580644456,0.0
-0.7013024722089682,-1.023475184154602,1.5490629208304691,0.09432751592066002,0.029005995096304343,0.0205885689847426,0.0
-0.7044893664317865,-1.0328562608455378,1.5646306354625303,0.1643819852649316,-0.017670036229592782,0.029973935775181006,0.0
-0.7363581970896642,-1.0328562608455378,1.5685225981840758,0.24178783814528185,-0.11880143661206806,0.008074745007614596,0.0
-0.7427319855353007,-1.045364253625761,1.5296031072227407,0.3031936129099308,-0.2205811116794989,-0.06387973391781447,0.0
-0.7427319855353007,-1.0391102024984702,1.5451709581089237,0.46578914273743,-0.1687188522347278,-0.07873989884729732,0.0
-0.7363581970896642,-1.0015860052090848,1.5451709581089237,0.7576827773119476,-0.09611170008170512,0.03544873339254714,0.0
-0.7459188797581192,-1.0109670819000207,1.5685225981840758,1.1412525807596359,0.32137946630938863,0.1871788314526867,0.0
-0.7459188797581192,-0.9578077567924088,1.6307938654746843,1.3682809163237433,0.987161193071461,0.26695444768090376,0.0
-0.7427319855353007,-0.9515537056651182,1.6619295672470493,0.6850336964292041,0.7045118648650427,0.5367837692880257,0.0
-0.7395450913124823,-0.895267354993861,1.6385777909177757,0.11811143920039302,0.390096954538882,0.5798000351850278,0.0
-0.6598729588826356,-0.8202189056779112,1.5763065236271672,-0.14394414685877457,-0.29059515718580137,0.9020309960378319,0.0
-0.682181106872058,-0.8358540334961375,1.5140352563365587,0.021246010330121138,-1.0296322989255056,1.030297650665332,0.0
-0.780974660423968,-0.8827593074764589,1.6502536790824125,0.4407079084141527,-0.8293143340757684,0.6196878432991363,0.0
-0.7873483930844517,-0.895267354993861,1.825391729043723,0.8277372361076026,-0.35931264541529456,-0.0936000637767802,0.0
-0.7682270835326945,-0.8890133586037494,1.813715840879086,1.060387224730757,-0.22771216879505088,-0.43381963780270005,0.0
-0.7267975144212091,-0.8796322819128134,1.7592283627774472,1.0651440600200626,-0.1103738222197069,-0.3571724412003336,0.0
-0.7044893664317865,-0.8108378837241543,1.6852813435763232,0.6889256295598364,-0.15769812328874858,0.04092353086086231,0.0
-0.6311909108772704,-0.7357894344082044,1.69695723174096,0.22276070796038858,0.2636827070258746,0.6282910735843108,0.0
-0.5993220802193928,-0.7389164052346706,1.7670122882205386,-0.0021054803303540903,0.57291141987239,0.6501902780645644,0.0
-0.6662466357579662,-0.7264083577172685,1.7203090080702337,-0.07043020337466964,0.36222099680818065,0.3991317031548028,0.0
-0.6885548953176948,-0.7482974819256066,1.7242009707917794,0.08351663978466925,-0.1369532226735993,0.10974955856163975,0.0
-0.7140500491002417,-0.7608055841801876,1.770904250942084,0.17476043141881856,-0.05980812005174489,-0.045891111205438234,0.0
-0.7172369433230601,-0.763932555006654,1.763120325498993,0.04978671615607754,0.050399175338220435,-0.09594640711395022,0.0
-0.7427319855353007,-0.7952027559059277,1.7670122882205386,-0.033240797365138,0.19172381769746089,0.015895884695217702,0.0
-0.7586664008642396,-0.7826947083885257,1.7397685491697192,-0.02372722864660444,0.11198560842888612,0.05030889765130073,0.0
-0.7618532950870579,-0.7858217339521711,1.7125250826271425,0.021246010330121138,0.021226656377261118,0.08941459251209347,0.0
-0.7682270835326945,-0.8077108581605088,1.7670122882205386,0.15703059118023652,-0.04813911246736115,0.17153655207748048,0.0
-0.780974660423968,-0.7983297814695731,1.7747962136636297,0.35638311252844407,0.15606852421280293,0.11913492237105919,0.0
-0.780974660423968,-0.7983297814695731,1.7747962136636297,0.3840589267443437,0.2409929625886139,0.11053166823773274,0.0
-0.7873483930844517,-0.7952027559059277,1.7397685491697192,0.3667615586823312,0.2059859477423605,0.13555931619198874,0.0
-0.8192172795274822,-0.7795676828248804,1.7553364000559017,-0.09724117081213231,0.000481753785387334,-0.07795778440157398,0.0
-0.8160303853046639,-0.7826947083885257,1.751444437334356,-0.3000531742116355,0.1469926311820373,-0.16711877397847114,0.0
-0.7969090757529067,-0.7952027559059277,1.7670122882205386,-0.20794452261327873,0.10874421523686349,-0.10298542758619962,0.0
-0.7777877662011496,-0.7701866061339445,1.7670122882205386,-0.04621384615710165,-0.01442864303757016,-0.15382283794043497,0.0
-0.7714139777555131,-0.7576785586165424,1.7553364000559017,-0.0522679357911379,-0.25882954343846837,-0.1718114606528112,0.0
-0.7491057739809376,-0.7576785586165424,1.731984623726628,-0.1716199821719071,-0.35542298939866307,-0.013042328333209494,0.0
-0.7013024722089682,-0.7514245074892518,1.7397685491697192,-0.2178905282364456,-0.1985396537875405,0.26069755119363835,0.0
-0.691741789540513,-0.7701866061339445,1.8331756544868139,-0.31345865133748163,0.2559033633650204,0.6228163010820298,0.0
-0.6598729588826356,-0.7670595805702992,1.802039952714449,-0.6594066243974872,0.9489127454986964,0.8738748378347485,0.0
-0.6789942126492396,-0.7733136316975899,1.7786881763851754,-0.9348677086797337,0.8205536857911686,1.1945415888746274,0.0
-0.6885548953176948,-0.7952027559059277,1.7397685491697192,-1.1891394917693354,1.0403200256068366,1.2962163714260555,0.0
-0.7427319855353007,-0.7952027559059277,1.7164170453486882,-1.2362748450549992,1.1693273244182802,1.2258260903894758,0.0
-0.7841615546467865,-0.8233459312415564,1.7086331199055969,-1.2060044509464771,1.1369134715670313,1.1984521515639837,0.0
-0.8383385890792393,-0.9202835047658444,1.6697134926901407,-1.3037347661524976,1.0934787948870306,1.2532001055290536,0.0
-0.8638336870766331,-0.9734428846106352,1.6580376045255039,-1.3205997253296395,1.534956318340478,1.340014780386563,0.0
-0.9020763619653005,-1.00471303077273,1.619118113564169,-1.2380046493723458,1.8033435006882015,1.4542033940695642,0.0
-0.9913092328487554,-1.0391102024984702,1.5918743745133495,-1.2064368598313482,1.1894240017433093,1.6943123858177207,0.0
-1.0486731615040268,-1.0641264070076326,1.5257111445011955,-1.3041671750373687,0.06336474019941321,1.6481677002948683,0.0
-1.0932896248383308,-1.092269527606082,1.5607388089951055,-1.140274334166325,-0.5272166941586008,1.0177838195337585,0.0
-1.0901027306155122,-1.157936954968275,1.5801984863487126,-0.8604889078685755,-0.7242932737232127,-0.10846022870626303,0.0
-1.096476519061149,-1.2611285796198537,1.5685225981840758,-0.7956236088581652,-0.5849134534421148,-0.8061058850247554,0.0
-1.0422994288435432,-1.3017798024728846,1.6230100762857145,-0.83281305145821,-0.5991755993008099,-1.0211872145097647,0.0
-0.9721878675118453,-1.2705096563107894,1.6035502626779865,-1.1242741927589253,0.194316932251079,-0.8209659927186741,0.0
-0.9211976715170576,-1.2830177585653708,1.5840904490702585,-1.1701123193899763,0.4056556418605907,-0.6152700747393877,0.0
-0.8606468486389679,-1.3049068280365297,1.587982411791804,-0.9703273469624322,0.23386190547306185,-0.6794033638960949,0.0
-0.8000959699757252,-1.3674472298350775,1.6113341881210776,-0.6187577419406124,-0.105835879657773,-0.8545969234240385,0.0
-0.7618532950870579,-1.342431134800273,1.6230100762857145,-0.2715124578370627,-0.5142511530181013,-0.9437578748438928,0.0
-0.7459188797581192,-1.2486204773652723,1.5490629208304691,-0.03756514704487028,-0.5687065270164905,-0.8772782328107551,0.0
-0.752292668203756,-1.186080185041083,1.5023593681719218,0.13930075094165437,-0.48637516365980876,-0.517505816720273,0.0
-0.7937221815300884,-1.157936954968275,1.4361961381597674,0.21324714286794189,-0.40923006103795456,-0.17024723176136455,0.0
-0.8415254833020579,-1.1297938343698255,1.3583571562370977,0.1462197150442457,-0.3839472178608712,0.10271052855012966,0.0
-0.8925156792968454,-1.1235397832425351,1.1987869571619698,-0.09378169403514486,-0.5336994647288504,0.37566828886162384,0.0
-0.9371321426311494,-1.1204127576788898,1.2065708826050612,-0.2520528976700657,-0.14019462377251965,0.6056098023546375,0.0
-0.9435058752916331,-1.1704450572228564,1.2221387334912435,-0.27497193988835844,0.57291141987239,0.9536504540629657,0.0
-0.9180107772942391,-1.2017152033849512,1.2921939262249433,-0.36751303201743546,0.6753393972989185,1.2461611232138468,0.0
-0.8064697584213619,-1.1985881778213061,1.4673318399321325,-0.7173529171108403,1.0117957338894468,1.3838131130329847,0.0
-0.780974660423968,-1.2236043823304683,1.5179272190581041,-0.6875148896927235,0.9612300475352801,1.085045604630402,0.0
-0.8032828641985437,-1.254874528492563,1.5373870326658323,-0.5530276251604603,0.6118081065490705,0.6861675234893172,0.0
-0.8032828641985437,-1.254874528492563,1.5373870326658323,-0.502865156513906,0.4873386712305835,0.49689596117391727,0.0
-0.8478992717476945,-1.298652776909239,1.4478720263244043,-0.6715147904797891,1.0066095047822106,0.4014780560312335,0.0
-0.9562534521829065,-1.3142879047274656,1.218246770769698,-0.7618936905038818,1.857150509072311,-0.07639355551012728,0.0
-0.9403190368539677,-1.3830823576533038,1.113164049796209,-0.6797310656259246,1.8850265616857853,-0.469014740163947,0.0
-0.8542730601933312,-1.526925205157913,1.0275410061763266,-0.24297176255972272,0.6442220226555013,-1.2088945288551964,0.0
-0.7905352873072702,-1.5300522307215585,1.245490373566396,0.33346404921291845,-0.5097131630147809,-1.3629709124952634,0.0
-0.6789942126492396,-1.5425603329761395,1.3544651935155518,0.7490340932809412,-0.6367757445144768,-1.5717954027285717,0.0
-0.6503122762141805,-1.5707034535745892,1.5140352563365587,1.0997387961440879,0.6059735750827366,-1.1173872245589114,0.0
-0.6503122762141805,-1.5707034535745892,1.5140352563365587,1.2480639888815337,2.0620064639253686,-0.040416319624635516,0.0
-0.7777877662011496,-1.539433307412494,1.4517639890459497,0.8623320566205593,2.8723541768205934,0.3741040790486985,0.0
-0.9753747617346635,-1.4424957338882065,1.023649043454781,0.3239505052177048,2.8276228954223974,-0.2523691817874909,0.0
-0.9753747617346635,-1.4424957338882065,1.023649043454781,0.13021961583131156,2.174158660462454,-1.3707920378739755,0.0
-1.0677945268409368,-1.4925280334321729,0.9964053044039617,0.08913830339233295,0.10031659689105352,-2.6354704383996372,0.0
-1.0104305424005124,-1.5988466836473967,1.1209478389851788,-0.4898921304673966,-0.22447078350992616,-3.7812672142330928,0.0
-0.8224041737503008,-1.505036026212396,1.245490373566396,-0.5815683415350332,0.55540788872857,-3.904059020044225,0.0
-0.6758073184264214,-1.2611285796198537,1.315545566300096,-0.7856776137836148,1.2380448442753647,-3.33546230450565,0.0
-0.5865745033281193,-1.1297938343698255,1.1559755034790895,-1.006651887403804,1.3307486025913366,-2.824741886243909,0.0
-0.6534991704369988,-1.264255605183499,0.9691617016072637,-1.4416814705415908,1.5336597136222827,-2.9350200135516387,0.0
-0.6662466357579662,-1.4518767011047842,0.8524030924691377,-1.4875195127837102,0.1878341616808292,-3.3823890567779227,0.0
-0.6758073184264214,-1.4581307522320748,0.8601868816581075,-1.507411671710674,-0.5395339961951843,-3.637358385162254,0.0
-0.8797681581907251,-1.2173503312031777,0.8640788443796533,-1.3391944044351962,1.1252444086343636,-4.668966394684538,0.0
-1.013617436623331,-1.2267314078941136,0.8018075770890448,-1.5177899912811639,2.187124201602954,-6.251182973996053,0.0
-1.0231780635066328,-1.4862739823048823,0.8056995398105904,-1.2470857422882229,3.122589652175763,-7.015308587143286,0.0
-0.8797681581907251,-1.6707680526625224,1.0392168943409634,-1.6025473648296065,2.0503374009927002,-6.7149766399855215,0.0
-0.6056958686650296,-1.6176087275549105,0.976945627050355,-1.9273060155997337,3.2146451713878204,-5.272758250741401,0.0
-0.9084501504109374,-1.5738304791382343,0.8640788443796533,-1.6008175605122599,4.484621988218683,-5.348623609536605,0.0
-1.0837289421698757,-1.6394979065004274,1.0041892298470527,-1.1835178387102883,3.628246515717428,-6.518665675627445,0.0
-1.0263649577294514,-1.6770221037898128,1.346681268072461,-1.3257888851148845,3.6839986209443785,-7.170949027968108,0.0
-1.007243648177694,-1.54881438410343,1.5101432936150128,-1.7910889467501243,3.449970135270014,-7.46893416436493,0.0
-1.0168043308461492,-1.4831469567412372,1.0664604971376612,-1.8434136285988962,4.660305412250432,-8.08445793743212,0.0
-0.895702573519664,-1.5519413001927174,1.1520835407575438,-1.227193752139122,4.898872077693663,-7.594854847686426,0.0
-0.8542730601933312,-1.6113546764276199,1.373924870869159,-0.8756241471173022,4.204565995959018,-6.980895208118073,0.0
-1.0295518519522697,-1.6645140015352318,1.6346858281962302,-1.4827628462722677,6.091055647681527,-7.199105262485277,0.0
-1.1697749188305122,-1.6394979065004274,1.6113341881210776,-1.6751964457123507,6.032062346935,-7.982001088131272,0.0
-1.0231780635066328,-1.4894010078685278,1.6307938654746843,-1.3612486077865142,5.269038871853634,-7.621446338192071,0.0
-0.8702074755222698,-1.4456227594518516,1.6774974181332318,-0.7778938319112817,4.146220934316407,-6.165150747458391,0.0
-0.7363581970896642,-1.3611931787077869,1.7592283627774472,0.13627370942107894,3.309293647015538,-4.476566374586245,0.0
-0.8415254833020579,-1.3799553320896583,1.825391729043723,0.37151835177717085,3.407183824204292,-4.451538712323098,0.0
-1.1634011303848757,-1.3236689814184015,2.0238812828260646,-0.47475689121866976,4.179283152781934,-4.4882982915965695,0.0
-1.0454863230663614,-1.4956550589958182,2.1562077428503725,-0.9560570098723786,3.21334844015926,-4.416343571804806,0.0
-1.0040567539548757,-1.4894010078685278,2.0783687609277033,-1.3327078492174758,2.9326439557749526,-3.085185681874178,0.0
-0.9403190368539677,-1.1360478854971163,1.8331756544868139,-0.44362159495147446,2.587111765688148,-2.1450848240200093,0.0
-0.9626272406285431,-0.8983943805575062,1.4867916535398606,0.9371432663165886,1.9945855487864794,-1.3668815514987052,0.0
-1.1187847228357246,-0.97031585904699,1.5451709581089237,1.5771470660560962,1.239989688097476,-1.8244182256083017,0.0
-1.096476519061149,-1.1516829038409846,1.8915548228017558,1.0954144541285846,1.2646242921706432,-1.9174896634034264,0.0
-0.8797681581907251,-1.0078400563363754,1.988853618332154,0.9124944408781823,1.048747639999198,-0.7857708522003843,0.0
-0.8478992717476945,-0.7201543065899778,2.0511250218768833,1.0915225209979524,0.07892341763749966,0.36471870570001846,0.0
-0.9626272406285431,-0.6951381568179946,2.331345792811682,0.2050308677218064,0.450386828376014,0.9129805410423946,0.0
-1.0008698597320576,-0.7952027559059277,2.39361692384817,-0.5915143366095837,0.7913811549698628,1.0913025201961888,0.0
-1.1251585112813611,-0.8983943805575062,2.0783687609277033,-0.7052447510285385,0.9923474221786973,1.9993367334720045,0.0
-1.1474667150559368,-0.9640618079196992,1.743660511891265,-0.1884849518976653,0.8996436006075436,1.1327545762802655,0.0
-1.0996634132839673,-0.838981059059783,1.5179272190581041,1.1135767243492705,-0.34375395809358605,0.9121984742929747,0.0
-1.0805420479470573,-0.9578077567924088,1.3778168335907044,2.390989701741197,-0.3113400736147462,0.5860569507508144,0.0
-1.4725292145227082,-1.0953965531697274,1.69695723174096,2.6180180373053044,-0.3742230620054965,0.0761186564740573,0.0
-1.510771875465087,-1.3580661531441414,2.1289640037995534,0.6694660061011407,0.6299598767968064,-2.191229662171033,0.0
-1.249447107045512,-1.286144784129016,2.0472330591553374,-0.39778346832042333,0.9190919755734748,-2.334356424492452,0.0
-0.9180107772942391,-1.060999381443987,1.7592283627774472,-0.21356617567232594,-0.05786328413653129,-1.0509075062116877,0.0
-0.9913092328487554,-0.829599982368847,1.5023593681719218,0.5133569892968961,0.08410964279128698,0.16606176049667778,0.0
-1.0741682595014206,-0.5888195066027708,1.5490629208304691,1.589687598828803,0.23645502002667995,-0.332926922000692,0.0
-1.013617436623331,-0.5512953093133854,1.5763065236271672,2.1094744711261018,-0.8448730213974771,-0.494042402427094,0.0
-0.8797681581907251,-0.4512306828568626,1.7164170453486882,2.0009332586868576,-0.8118108661871305,1.4432538490650018,0.0
-0.8797681581907251,-0.4512306828568626,1.7164170453486882,1.7799589850666677,-1.2351364928824786,2.0048116586024567,0.0
-1.2876897540416026,-0.6763760581733018,1.868203046472482,1.594876843002979,-0.4876717367504133,1.363478156522699,0.0
-1.2717553108200876,-0.6075816052474636,2.0083134319398814,1.5840659457697563,-0.4500715915367464,-0.2734862622827604,0.0
-1.2717553108200876,-0.6075816052474636,2.0083134319398814,0.5587626648486107,0.015392152585069254,0.937226060242036,0.0
-0.7427319855353007,-0.13540177145913138,2.3352377555332295,0.14881431603410109,-2.291181754384734,3.3883712259358094,0.0
-0.8192172795274822,-0.2354663842313593,2.514267495707843,0.49303254806845875,-3.6921109668698797,4.15797130632898,0.0
-0.8192172795274822,-0.2354663842313593,2.514267495707843,0.51941109343528,-1.4873166855493958,3.0849110117803646,0.0
-1.1028502517216328,-0.2542284965603469,2.265182426545407,0.27811237858665355,-1.6215102767232576,0.9161090369823307,0.0
-1.2398864243770569,-0.4449766590981617,2.09004464909234,0.13670614995179917,-1.1891087332764505,-0.321195233932624,0.0
-1.1347191381646633,-0.4324685842121699,1.9421503381818483,0.22146339691684444,-1.2143915764535338,-0.5832033920039911,0.0
-0.8287779621959374,-0.5262791595414021,1.856527158307845,1.0344411726377383,-1.9793598953570104,-0.9617465547918335,0.0
-0.933945248408331,-0.6044546344209972,1.6269020390072602,1.7120667394732298,0.21765494741984645,-3.1078671438890657,0.0
-1.0837289421698757,-0.5294061851050474,1.401168609919978,1.6182282730089097,-1.236433097600674,-3.1790394916750655,0.0
-0.5706400322140276,-0.23233935866771402,1.7670122882205386,1.0154140002583791,1.0422648061737663,-0.09281794933105686,0.0
-0.8287779621959374,-0.047845242125579286,1.4556559517674956,1.1585499488216486,2.4814424662316754,-0.8272229082844607,0.0
-1.22713887537836,-0.17918003356010215,1.187111068997333,1.82579719608665,0.5884701071940988,-2.1951401485463036,0.0
-0.9116370446337554,-0.004066976603534823,1.6113341881210776,1.672715168059899,-0.09481514280489604,-1.3442002421119887,0.0
-0.6343778051000888,0.0021870608394610135,2.1523157801288275,0.4039509590879102,0.025764603881006147,1.0701854206223977,0.0
-0.6630598531054539,0.03033023104347906,2.560971048366388,-0.9737868712081936,-0.08573924977413043,2.0681628810097443,0.0
-0.7650401893098762,0.08974359017301307,2.6621618066183323,-1.9601709474064128,0.19107554696595416,2.196429459323159,0.0
-0.978561655957482,0.08974359017301307,2.3585895318625023,-1.6124932755152253,0.43029021430616704,0.9215838094846122,0.0
-1.0837289421698757,-0.08224244977259317,1.918798561852575,-0.38870233321008035,0.04650950647287993,-1.1080018130531886,0.0
-1.0741682595014206,-0.21357724633872655,1.7475524746128104,0.2690312434763106,0.06271646156100869,-2.105197130377029,0.0
-0.9817485501803003,-0.2448474335537057,1.88766286008021,0.08740856236668511,-0.25040189741851615,-2.3359207106194626,0.0
-0.8702074755222698,-0.18230705912374742,2.0744767982061574,-0.8518402238375691,0.340827809647729,-1.0125839460675474,0.0
-0.9052632561881189,-0.04159120468258346,2.0433410964337924,-1.6981154668334093,0.4860421297675699,0.5047170865526295,0.0
-0.9594403464057248,-0.06973437488660152,2.000529506496791,-1.9000625680742405,0.7194223130828354,1.0154374666573278,0.0
-1.1060371459444511,-0.12289369657313973,1.88766286008021,-1.4857898772442275,0.5404975037659592,0.28494307039328,0.0
-1.2207651148252998,-0.10100456552265434,1.731984623726628,-0.8721646228715407,0.9184436732143769,-0.4189594537946957,0.0
-1.1283453497190266,-0.20419618333208545,1.7242009707917794,-0.3497831917788533,0.7278499274751966,-0.7302408314858945,0.0
-1.0295518519522697,-0.2886257093389712,1.802039952714449,0.0471921046176058,0.7537810097561957,-0.546444041672776,0.0
-0.9913092328487554,-0.3324039577556472,1.88766286008021,0.09519238643348393,0.7453533953638346,-0.12097405029857587,0.0
-0.978561655957482,-0.33553098331929265,1.9732860399542136,-0.0963763002993084,0.6059735750827366,0.17857558208899063,0.0
-0.9498796637372696,-0.33553098331929265,2.02777324554761,-0.2961612621782362,0.5917114924792235,0.474214651787201,0.0
-0.9530665579600882,-0.3449120326416389,1.9849616556106076,-0.37486442610213055,0.7764707700072518,0.7604683672152528,0.0
-0.9466927695144514,-0.4011983833128959,1.9577181890680315,-0.21053913415175052,0.5865252633719874,0.6494081731581021,0.0
-0.9180107772942391,-0.4637387577428543,1.953826226346486,-0.06999777075541178,0.5262353895348549,0.6024813445717441,0.0
-0.8733943697450882,-0.4856278819511924,2.031665208269155,-0.006862265513731538,0.32915880997024305,0.474214651787201,0.0
-0.8893288408591802,-0.5012630097694187,2.0861526863707938,-0.0790789032286006,0.44260748471515987,0.5031528767397042,0.0
-0.9020763619653005,-0.5262791595414021,2.1250720410780075,-0.2684854268651037,0.2520136915345932,0.4507512374940222,0.0
-0.9403190368539677,-0.5106440317231755,2.062800910041521,-0.34199936771205447,0.5709665760502787,0.333434146949606,0.0
-0.9466927695144514,-0.5075170061595303,2.0160973573829732,-0.21270130515950203,0.24553092096434337,0.1136601260206261,0.0
-0.9180107772942391,-0.4574847339841534,1.981069965397305,-0.0219974876209566,0.23126879091944375,0.11209589712917942,0.0
-0.9211976715170576,-0.4043254088765415,1.981069965397305,-0.028484012511404824,0.31035873736340935,0.2520942827514209,0.0
-0.9307583541855126,-0.3636741586549211,2.0199893201045183,-0.08599786469403783,0.35962788225456255,0.3326520229646219,0.0
-0.9211976715170576,-0.3574201075276306,2.0550169845984287,-0.19324173444388856,0.299986279148937,0.4867284829187746,0.0
-0.9052632561881189,-0.3886903084269045,2.0472330591553374,-0.16556589913075606,0.17486858891273868,0.6071740121675627,0.0
-0.9211976715170576,-0.39807135774925073,1.9966375437752444,-0.035402972163798604,0.04261983711335832,0.665050423915526,0.0
-0.9658141348513616,-0.379309259104558,1.981069965397305,0.1764901724444664,0.0017783110621963853,0.5078455443355226,0.0
-0.9753747617346635,-0.4011983833128959,2.000529506496791,0.23659861506833837,0.024468047592559314,0.4272878232008432,0.0
-0.9626272406285431,-0.44184963353451634,2.0160973573829732,0.1803820844778659,0.00761281485438826,0.38192520442741046,0.0
-0.9466927695144514,-0.4481036572932174,2.066692872763066,0.06492193958187968,-0.007297585922018113,0.449186989524054,0.0
-0.9594403464057248,-0.42934155864852463,2.0550169845984287,-0.15216041145629355,0.04780606276132677,0.4538796952769155,0.0
-0.978561655957482,-0.3886903084269045,2.0238812828260646,-0.23302574638793955,0.07114407793009421,0.40304226584415886,0.0
-0.978561655957482,-0.3761822335409128,1.988853618332154,-0.19886338750293578,0.06855096535320053,0.2833788415018333,0.0
-0.9626272406285431,-0.3918173339905497,1.9732860399542136,-0.0648085503156224,-0.05851156277493583,0.24270892848126213,0.0
-0.9626272406285431,-0.3918173339905497,1.9732860399542136,0.028164969158404253,-0.11167037949651598,0.23254145022611933,0.0
-0.9594403464057248,-0.39494433218560554,2.0238812828260646,-0.060916635645068856,-0.11685660860375219,0.3999138080612654,0.0
-0.9913092328487554,-0.4324685842121699,2.0199893201045183,-0.12275483511751323,0.04456467154602857,0.4773431095700945,0.0
-0.9913092328487554,-0.4324685842121699,2.0199893201045183,-0.10329526440189973,-0.04424944063693399,0.26069755119363835,0.0
-1.007243648177694,-0.45435770842050793,2.0705848354846115,-0.09724117081213231,-0.12722905100442913,0.14650890889285487,0.0
-0.9466927695144514,-0.46999280887014483,2.1289640037995534,-0.18459303986426578,-0.3197676880071073,0.1699723327252945,0.0
-0.9466927695144514,-0.46999280887014483,2.1289640037995534,-0.32989118053251965,-0.3243056147552456,0.3999138080612654,0.0
-0.9435058752916331,-0.4606117321792091,2.0705848354846115,-0.38697259218443253,-0.35671953086167646,0.7549935183988857,0.0
-0.9562534521829065,-0.4449766590981617,2.0122053946614273,-0.2308635753801879,-0.4682233934120731,0.8488472518856872,0.0
-0.9721878675118453,-0.4512306828568626,1.9421503381818483,-0.056159850461691425,-0.5142511530181013,0.8504114616986126,0.0
-0.9881223386259371,-0.46999280887014483,1.938258375460303,0.04113801630214659,-0.4208990923430313,0.6713073394813129,0.0
-1.0263649577294514,-0.45435770842050793,1.94993426362494,0.06708411058963125,-0.3353263437012249,0.3897463298061227,0.0
-1.0422994288435432,-0.4637387577428543,1.9071226736879385,0.07097603317164711,-0.2666088554717317,0.23410567911756602,0.0
-1.0040567539548757,-0.46999280887014483,1.9071226736879385,0.15054405705974896,-0.25753297034786377,0.2732113632466905,0.0
-0.9594403464057248,-0.4637387577428543,1.9149065991310292,0.16135493319573965,-0.14991879544168982,0.403824408907664,0.0
-0.9658141348513616,-0.4512306828568626,1.9304744500172117,0.16957120834187508,-0.21345005456394697,0.45622600999630325,0.0
-0.9690009732890268,-0.4512306828568626,1.9460423009033947,0.16005764324942853,-0.20048449760965187,0.4296341379202312,0.0
-0.9626272406285431,-0.4387226079708709,1.9616101517895768,0.10513839205665074,-0.20242932561796778,0.4476227797111287,0.0
-0.9626272406285431,-0.44184963353451634,2.0122053946614273,0.014327051501838014,-0.2730916576695723,0.4022601609376962,0.0
-0.9307583541855126,-0.46999280887014483,1.988853618332154,0.004813481135083137,-0.3268987293088638,0.47812521447655715,0.0
-0.9084501504109374,-0.4574847339841534,1.938258375460303,0.04200288681497051,-0.3411608751675589,0.6142130326398121,0.0
-0.9020763619653005,-0.44184963353451634,1.88766286008021,0.09994916897970722,-0.4610923204827256,0.781585390474958,0.0
-0.895702573519664,-0.4762468326288461,1.8954467855233017,0.09303021542573237,-0.4623888935733302,0.9208016664211067,0.0
-0.9148239388565739,-0.47937385819249134,1.8993387482448467,-0.018105572950403076,-0.44683020625162145,0.9208016664211067,0.0
-0.924384565739876,-0.491881933078483,1.9071226736879385,-0.0851329941812139,-0.4170094046988088,0.9356618504291108,0.0
-0.9498796637372696,-0.5137710572868209,1.8954467855233017,-0.11021422323018286,-0.3677402598076557,0.8410260501928896,0.0
-0.9753747617346635,-0.5200251084141114,1.8370676172083598,-0.10329526440189973,-0.27244335531047453,0.7854959531643142,0.0
-0.9849354444031188,-0.5168980828504662,1.8292836917652684,-0.12361970563033715,-0.19659482577922466,0.6580114034432768,0.0
-1.0008698597320576,-0.5262791595414021,1.813715840879086,-0.07302481491314139,-0.06304951324376752,0.5406943319773819,0.0
-1.0008698597320576,-0.5262791595414021,1.8098238781575402,0.053246192933065005,-0.08184957794370327,0.4249414703244125,0.0
-0.9913092328487554,-0.5294061851050474,1.821499766322177,0.18167937442417717,-0.026745929260358407,0.31153494246935237,0.0
-1.0040567539548757,-0.5544223348770306,1.879878934637119,0.10513839205665074,-0.05656672685972225,0.131648743963372,0.0
-0.9753747617346635,-0.5200251084141114,1.953826226346486,-0.08945734147102527,0.10096487552945807,0.08237556727021371,0.0
-0.9626272406285431,-0.491881933078483,1.926582487295666,-0.18329572882072181,0.14439951662841918,0.0010357197657348302,0.0
-0.9307583541855126,-0.48250088375613653,1.8720950091940276,-0.03886245190758443,0.04261983711335832,-0.027902493262692358,0.0
-0.933945248408331,-0.4355955824072257,1.8448515426514507,0.20027409572419957,-0.002111360768230761,0.04952678439798497,0.0
-0.9307583541855126,-0.416833483762533,1.8331756544868139,0.2694636734584143,0.05169573261502949,0.12539183793684594,0.0
-0.9180107772942391,-0.45435770842050793,1.88766286008021,0.19897678468065544,0.016688709861878308,0.1918715181270268,0.0
-0.9020763619653005,-0.4481036572932174,1.88766286008021,0.03811097478157109,0.10420626476803183,0.32404877360092593,0.0
-0.8797681581907251,-0.46999280887014483,1.879878934637119,-0.05529498126744457,0.06984752065328519,0.5352195213180577,0.0
-0.895702573519664,-0.4606117321792091,1.879878934637119,-0.0219974876209566,0.07308891384530782,0.6494081731581021,0.0
-0.9084501504109374,-0.4574847339841534,1.825391729043723,0.1457872850621421,-0.023504540021784637,0.5891854085337078,0.0
-0.9307583541855126,-0.47937385819249134,1.88766286008021,0.24351757917092973,-0.057215005498126775,0.42650568013733775,0.0
-0.933945248408331,-0.504389980595885,1.9616101517895768,0.1972470436550076,-0.037766662159786475,0.2802503837189399,0.0
-0.9020763619653005,-0.5168980828504662,1.988853618332154,0.06881385161527909,0.03743361158893515,0.24896584404704888,0.0
-0.8638336870766331,-0.535660181495159,1.953826226346486,-0.05572741520527946,0.029005995096304343,0.4179024498521629,0.0
-0.8797681581907251,-0.535660181495159,1.9577181890680315,-0.09594387031720465,-0.024801097298593696,0.571978871649273,0.0
-0.8797681581907251,-0.535660181495159,1.9577181890680315,-0.15129554094346964,-0.061752955966958456,0.5539902680154181,0.0
-0.9180107772942391,-0.5606763312671421,1.9849616556106076,-0.18156598779507394,-0.10064965055053679,0.2880715281761733,0.0
-0.8638336870766331,-0.5888195066027708,1.981069965397305,-0.22048512922630084,-0.10778070766608884,0.09410727918643354,0.0
-0.8638336870766331,-0.5888195066027708,1.981069965397305,-0.3112964803297301,-0.11491176478164088,0.42650568013733775,0.0
-0.8032828641985437,-0.5919465321664161,1.953826226346486,-0.5807034815708257,-0.07342196355134217,1.0389009191075496,0.0
-0.8510861659705128,-0.6075816052474636,1.9304744500172117,-0.7169204660315037,-0.026097654575402748,1.3454895528888442,0.0
-0.8510861659705128,-0.6075816052474636,1.9304744500172117,-0.48037854427771703,-0.22576734078673522,0.7620325770281781,0.0
-0.9530665579600882,-0.6701220070460114,1.856527158307845,-0.17767407576167452,-0.3080986567020303,0.0761186564740573,0.0
-0.9084501504109374,-0.6638679559187207,1.8448515426514507,-0.015510964049085436,-0.2523467412406275,-0.1389626730109521,0.0
-0.9084501504109374,-0.6638679559187207,1.8448515426514507,0.007840522655658632,-0.3301401462215797,-0.15851552461477503,0.0
-0.8287779621959374,-0.6951381568179946,1.9616101517895768,-0.13918736431255127,-0.3742230620054965,0.006510518500983093,0.0
-0.8128434910818456,-0.7076462590725757,2.0433410964337924,-0.38048607916117777,-0.35412641630805847,0.3741040790486985,0.0
-0.8383385890792393,-0.7139002554626873,2.031665208269155,-0.5858926835505364,-0.47276135178780254,0.5383479791009511,0.0
-0.8478992717476945,-0.7139002554626873,1.988853618332154,-0.5577844182553001,-0.4818372369116704,0.37019347820229964,0.0
-0.9116370446337554,-0.7295353832809138,1.8331756544868139,-0.3895672142715207,-0.5097131630147809,0.046398327807499175,0.0
-0.9084501504109374,-0.7201543065899778,1.8331756544868139,-0.20491748109270333,-0.5071200800887535,-0.2820895116464567,0.0
-0.8574599544161496,-0.7264083577172685,1.8292836917652684,-0.11367370000717034,-0.5654651417313654,-0.2797431778485473,0.0
-0.8255910679731188,-0.7264083577172685,1.8643110837509362,-0.1945390454874327,-0.534996069447046,-0.14130900680886144,0.0
-0.8319648564187556,-0.6982651823816399,1.88766286008021,-0.35367510381225276,-0.47081650796569124,-0.04510900152934524,0.0
-0.8064697584213619,-0.6951381568179946,1.8993387482448467,-0.47778396438509446,-0.44229224787589194,0.048744669952261614,0.0
-0.7937221815300884,-0.688884105690704,1.825391729043723,-0.44578376595922603,-0.4960993827703653,0.1746650098603739,0.0
-0.7905352873072702,-0.7045192335089303,1.8059319154359947,-0.32513440853491277,-0.5388856938360865,0.1402520028663288,0.0
-0.7937221815300884,-0.732662408844559,1.802039952714449,-0.19021469292331314,-0.5537961420538794,-0.0005285067408966757,0.0
-0.7969090757529067,-0.7139002554626873,1.8448515426514507,-0.24124202153407487,-0.5816720681569898,-0.12566673697291594,0.0
-0.7682270835326945,-0.7045192335089303,1.856527158307845,-0.32340466750926494,-0.4870234660189065,-0.12566673697291594,0.0
-0.7427319855353007,-0.7045192335089303,1.8370676172083598,-0.37183737403293854,-0.560927151728045,-0.056058598999841724,0.0
-0.7331713028668456,-0.7295353832809138,1.794256027271358,-0.34459396870190984,-0.5505546935135726,-0.002874850078066707,0.0
-0.7299844086440274,-0.7295353832809138,1.7242009707917794,-0.16426858808721198,-0.6380722859774904,-0.11706347806995913,0.0
-0.7140500491002417,-0.7514245074892518,1.7280926610050822,0.02643522813275643,-0.7781003453625042,-0.24767651419167214,0.0
-0.69811557798615,-0.742043430798316,1.7747962136636297,0.05497593395871284,-0.7508726583633097,-0.3016423823288009,0.0
-0.6726204242036031,-0.7451704563619612,1.825391729043723,-0.048808456376996344,-0.7515209607224075,-0.27896107294208466,0.0
-0.6566860646598173,-0.7232813321536233,1.763120325498993,-0.2408095915519711,-0.8733972498596854,-0.27817894895710055,0.0
-0.6311909108772704,-0.7295353832809138,1.6891733062978687,-0.3579994669249888,-0.7962521788654218,-0.12801307077082527,0.0
-0.6216302282088153,-0.7295353832809138,1.6152261508426233,-0.3186478744144252,-0.7398519610449215,-0.02477404024942932,0.0
-0.6375646993229073,-0.7170272810263325,1.6269020390072602,-0.1672956401564039,-0.7651348042220045,-0.00913176087422311,0.0
-0.6407515935457253,-0.7170272810263325,1.6035502626779865,-0.11670074680205403,-0.7677279504032137,-0.1546049428468976,0.0
-0.6088827628878478,-0.7201543065899778,1.5918743745133495,-0.12145752934827737,-0.7858797206509494,-0.21404560256482905,0.0
-0.6088827628878478,-0.7201543065899778,1.5918743745133495,-0.15129554094346964,-0.7106794302236153,-0.18276104381441663,0.0
-0.5993220802193928,-0.6920111312543493,1.5685225981840758,-0.17637677526674686,-0.6017686822268371,0.007292632946706425,0.0
-0.5929482917737563,-0.6920111312543493,1.5607388089951055,-0.1413495353203028,-0.5596306102650316,0.10271052855012966,0.0
-0.5802007148824828,-0.6826301093005926,1.5568468462735605,-0.09378169403514486,-0.5421270791212116,0.14963736667574826,0.0
-0.5674531379912093,-0.7107732298990419,1.5257111445011955,-0.07561942381445905,-0.4208990923430313,0.12226338015395255,0.0
-0.5770138206596644,-0.7357894344082044,1.4984675417044975,-0.09507899980438074,-0.3599609161468014,-0.023991925803705984,0.0
-0.5961351859965746,-0.7107732298990419,1.459547914489041,-0.07475455330163512,-0.19529826850241555,-0.09594640711395022,0.0
-0.5770138206596644,-0.7170272810263325,1.459547914489041,-0.003402783462435868,-0.11880143661206806,-0.12488462252719261,0.0
-0.5483318842246051,-0.6795030837369472,1.463439877210587,0.03940827527649876,-0.12398766571930424,-0.05527648455411839,0.0
-0.5387712015561503,-0.6920111312543493,1.5257111445011955,-0.02545696835367522,-0.08444269249732138,0.0221527966837817,0.0
-0.554705672670242,-0.688884105690704,1.5490629208304691,-0.1305386697329285,-0.01961487214480636,0.024499138828544147,0.0
-0.5451449900017868,-0.6951381568179946,1.5296031072227407,-0.09810604132495623,0.06401301883781775,0.03544873339254714,0.0
-0.5387712015561503,-0.7013922079452853,1.5023593681719218,0.03465149273027543,0.028357716457899817,-0.01851712945327292,0.0
-0.5132760477736034,-0.7389164052346706,1.5023593681719218,0.2050308677218064,-0.061752955966958456,0.031538163772322006,0.0
-0.5100891535507849,-0.7482974819256066,1.587982411791804,0.1483818860519973,0.011502482731366535,0.030756049922802457,0.0
-0.5005285824526358,-0.7733136316975899,1.6502536790824125,0.006543219523576869,-0.002111360768230761,0.08159345282449038,0.0
-0.4845941113385442,-0.7889487047786372,1.6774974181332318,-0.1262143171688089,0.04456467154602857,0.1801398109804373,0.0
-0.4845941113385442,-0.7889487047786372,1.6269020390072602,-0.11064665848659481,-0.037766662159786475,0.17544712430609724,0.0
-0.49096789978418093,-0.7920757303422827,1.6113341881210776,-0.003835218718847822,-0.03906321943659553,0.0729902010759791,0.0
-0.4941547940069992,-0.8014568070332184,1.6230100762857145,0.06578681009470362,-0.07601507810496026,-0.09594640711395022,0.0
-0.4782203228929074,-0.7920757303422827,1.619118113564169,0.05584080447153676,-0.1032427651041549,-0.06387973391781447,0.0
-0.4590989575559973,-0.7764406572612349,1.619118113564169,0.019516269304473303,-0.1363049519420925,0.09958207553686661,0.0
-0.4718465344472706,-0.7858217339521711,1.6113341881210776,0.019083834048061344,-0.10064965055053679,0.10192841887403664,0.0
-0.4782203228929074,-0.7733136316975899,1.6035502626779865,-0.027186708060746002,-0.11815315006676577,0.048744669952261614,0.0
-0.46865964022445233,-0.7764406572612349,1.5296031072227407,-0.04837602112058439,-0.09740824945161643,-0.010695989765669808,0.0
-0.4718465344472706,-0.7858217339521711,1.5179272190581041,-0.07605185907087099,-0.07860818475168065,0.10818532967019305,0.0
-0.455912063333179,-0.7733136316975899,1.5334950699442869,-0.09205195300949705,-0.160939524387669,0.237234117821938,0.0
-0.4718465344472706,-0.7764406572612349,1.4984675417044975,-0.047078716669925566,-0.1875189248415613,0.2700829054637971,0.0
-0.4845941113385442,-0.7952027559059277,1.5062513308934673,0.009137828424894509,-0.19594653923392233,0.16058695937661438,0.0
-0.4941547940069992,-0.7764406572612349,1.4790077280967693,0.010002698937718426,-0.14732568088807171,0.03857718901420176,0.0
-0.4973416882298175,-0.7858217339521711,1.5062513308934673,-0.02545696835367522,-0.0358218262445729,-0.08812526265671677,0.0
-0.4718465344472706,-0.7826947083885257,1.5062513308934673,-0.05053819608406713,-0.02869076517557199,-0.1405269019023988,0.0
-0.44953838645784816,-0.7701866061339445,1.5062513308934673,-0.05270037104754988,-0.02415281866018917,-0.013824442778932857,0.0
-0.4527252806806667,-0.7795676828248804,1.5062513308934673,-0.014213659598426612,-0.02739420789876294,0.11287801157490278,0.0
-0.4782203228929074,-0.7858217339521711,1.5373870326658323,-0.005564959744495652,-0.05786328413653129,0.1011463044283133,0.0
-0.47503342867008913,-0.7983297814695731,1.5373870326658323,-0.009024439158637224,0.03159910767319801,-0.02555615469515266,0.0
-0.47503342867008913,-0.7733136316975899,1.5296031072227407,-0.029348882364940213,0.05753023640722136,-0.10611388536909301,0.0
-0.46228585177881554,-0.7858217339521711,1.5412789953873778,-0.03583540717297737,0.02965427324052776,-0.10611388536909301,0.0
-0.4463514922350301,-0.7545515330528972,1.5801984863487126,-0.0215650536831217,0.03743361158893515,0.007292632946706425,0.0
-0.46228585177881554,-0.7482974819256066,1.5840904490702585,-0.05875446068158613,0.060771627622519545,0.07220808901507093,0.0
-0.4782203228929074,-0.7514245074892518,1.5763065236271672,-0.10243039388907582,0.0776268603606906,-0.05449437010839503,0.0
-0.46865964022445233,-0.7357894344082044,1.5412789953873778,-0.05832202542517416,0.06660613141471142,-0.1514764850640042,0.0
-0.46228585177881554,-0.7357894344082044,1.5296031072227407,0.0013539990837874668,0.02965427324052776,-0.1592976295212377,0.0
-0.44316459801221164,-0.742043430798316,1.5257111445011955,0.08351663978466925,-0.04165632608331591,0.0010357197657348302,0.0
-0.44316459801221164,-0.742043430798316,1.5257111445011955,0.03421905747386348,-0.08120129930529876,0.11600646458816581,0.0
-0.44953838645784816,-0.7545515330528972,1.5646306354625303,-0.05961932987583299,-0.06758745580570145,0.16293330271378442,0.0
-0.4654727460016341,-0.7733136316975899,1.5490629208304691,-0.09205195300949705,-0.013780368352614487,0.11757069347961249,0.0
-0.4654727460016341,-0.7733136316975899,1.5490629208304691,-0.07561942381445905,0.016040431223473782,0.026845480377102802,0.0
-0.4654727460016341,-0.7764406572612349,1.5101432936150128,0.013029745732602148,0.017985265161962923,-0.010695989765669808,0.0
-0.455912063333179,-0.7733136316975899,1.5218191817796496,0.077894986725622,-0.024801097298593696,-0.017735015007549572,0.0
-0.455912063333179,-0.7733136316975899,1.5218191817796496,0.07832742725634219,-0.068235734444106,0.011203202790507981,0.0
-0.4463514922350301,-0.7920757303422827,1.5412789953873778,0.013894616245426046,-0.004056192729995493,0.01198531485141615,0.0
-0.4399777037893931,-0.7826947083885257,1.5451709581089237,-0.03972732192594196,0.02511632524260162,-0.008349646428499773,0.0
-0.4399777037893931,-0.7826947083885257,1.5451709581089237,-0.03886245190758443,0.020578377738856592,-0.013042328333209494,0.0
-0.43679080956657484,-0.7764406572612349,1.5218191817796496,0.002651304853023343,-0.012483811075805451,-0.041980543746451875,0.0
-0.41766944422966473,-0.7764406572612349,1.5412789953873778,0.006110784267164901,0.0030748663622809994,-0.05527648455411839,0.0
-0.41766944422966473,-0.7764406572612349,1.5412789953873778,-0.032808362438370306,-0.12269110844249519,-0.03728786184174213,0.0
-0.41766944422966473,-0.7795676828248804,1.5840904490702585,-0.12751161766373656,-0.04035977671340458,0.08628613949883045,0.0
-0.42404323267530153,-0.763932555006654,1.5646306354625303,-0.17594433473602664,-0.04813911246736115,0.06986174567790089,0.0
-0.4399777037893931,-0.7795676828248804,1.5179272190581041,-0.10891691746094699,0.00761281485438826,-0.03337728961312544,0.0
-0.44953838645784816,-0.7795676828248804,1.5179272190581041,-0.030646187474887565,-0.04878739110576569,-0.1475659223746482,0.0
-0.4399777037893931,-0.7733136316975899,1.490683616261406,-0.002537915586766059,-0.0688840130825105,-0.18354316779940066,0.0
-0.41129565578402794,-0.7858217339521711,1.4867916535398606,-0.027619142657869432,-0.04813911246736115,-0.04667322565116158,0.0
-0.4017350846858791,-0.7795676828248804,1.5101432936150128,-0.09983578235060407,-0.07212540627453314,0.07533654202833397,0.0
-0.42404323267530153,-0.7608055841801876,1.5373870326658323,-0.1404846648074789,0.00437142363909005,0.031538163772322006,0.0
-0.4399777037893931,-0.7514245074892518,1.5179272190581041,-0.09551143506079271,-0.038414940798191015,-0.0990748648968436,0.0
-0.44953838645784816,-0.7514245074892518,1.4867916535398606,-0.03151105732842296,0.001130032423791867,-0.12410250808146925,0.0
-0.43679080956657484,-0.7576785586165424,1.4751157653752238,0.011300004706954303,-0.03906321943659553,-0.10689599981481637,0.0
-0.420856338452483,-0.7576785586165424,1.5140352563365587,0.00870539316848255,-0.03063559713733669,0.0018178342114581888,0.0
-0.42404323267530153,-0.7576785586165424,1.5296031072227407,-0.04232193148654813,-0.03906321943659553,0.07455442996742578,0.0
-0.44953838645784816,-0.7920757303422827,1.5412789953873778,-0.06048420038865691,0.021226656377261118,0.06360483488174448,0.0
-0.46228585177881554,-0.7858217339521711,1.5490629208304691,-0.0851329941812139,0.07568202444547703,-0.0834325855216374,0.0
-0.455912063333179,-0.7733136316975899,1.5218191817796496,-0.0665382887041161,0.030950829528974592,-0.1804147100165073,0.0
-0.44316459801221164,-0.7670595805702992,1.5451709581089237,-0.04837602112058439,0.0328956642087354,-0.13270575744516533,0.0
-0.4336039153437566,-0.7701866061339445,1.5334950699442869,-0.04924089163340831,0.030950829528974592,-0.13270575744516533,0.0
-0.4272301268981198,-0.7482974819256066,1.5023593681719218,-0.04188949688942469,0.023819768954154788,-0.08656104330453078,0.0
-0.41766944422966473,-0.7576785586165424,1.5140352563365587,-0.02805157791428139,0.005667978939174664,0.033884505544457086,0.0
-0.38580061357178724,-0.7764406572612349,1.5101432936150128,-0.010321744927873095,0.012799040008175593,0.1871788314526867,0.0
-0.3889875077946055,-0.8014568070332184,1.5490629208304691,-0.009889309671461127,-0.045545997913743044,0.16684387494240113,0.0
-0.4017350846858791,-0.8264729568052016,1.5646306354625303,-0.03583540717297737,-0.03063559713733669,0.048744669952261614,0.0
-0.4144825500068462,-0.829599982368847,1.5607388089951055,-0.07734916484010687,-0.0494356697441702,-0.027902493262692358,0.0
-0.4017350846858791,-0.8170918801142658,1.5179272190581041,-0.14005223482537518,-0.013780368352614487,0.024499138828544147,0.0
-0.40492186733839114,-0.8108378837241543,1.4751157653752238,-0.09507899980438074,-0.02415281866018917,0.09801784664541992,0.0
-0.3953612962402423,-0.8202189056779112,1.4673318399321325,-0.05875446068158613,-0.07018057035931957,0.181704039871884,0.0
-0.37942682512615045,-0.8452350554498943,1.5179272190581041,-0.11929535834052579,-0.026097654575402748,0.24192680449627807,0.0
-0.3698661424576954,-0.8671241796582323,1.5373870326658323,-0.2581069807112166,-0.06953229172091505,0.2825967365953706,0.0
-0.36667924823487713,-0.8702512052218778,1.5296031072227407,-0.29789100320388406,-0.05591844822131771,0.22159184798599255,0.0
-0.37305303668051365,-0.8452350554498943,1.463439877210587,-0.2274040933288922,-0.03517354760616837,0.10349264299585298,0.0
-0.4017350846858791,-0.8421080298862491,1.366141081680189,-0.037997582054049045,-0.01637347895278373,0.05421946749510227,0.0
-0.4081087615612097,-0.8170918801142658,1.335005379907824,0.07616524569997417,0.0529922879151141,0.19343574701847346,0.0
-0.39854819046306056,-0.8045838325968636,1.3116536035785502,0.15919276218798814,0.005667978939174664,0.44214796905180476,0.0
-0.4017350846858791,-0.8014568070332184,1.3622491189586432,0.20330112669615868,0.07438547112211684,0.8089594056145359,0.0
-0.36667924823487713,-0.8264729568052016,1.3856007590337958,0.13281422736978324,0.09642692901407525,1.340014780386563,0.0
-0.34118420602263616,-0.873378230785523,1.4361961381597674,0.010435134194130375,0.2779448212569788,1.884366053039583,0.0
-0.4272301268981198,-0.9359186325840708,1.4478720263244043,-0.03886245190758443,0.39657972510913164,1.5926376032662932,0.0
-0.4782203228929074,-0.9515537056651182,1.401168609919978,0.11421952716699368,0.292855222033385,1.0162196097208334,0.0
-0.48778100556136245,-0.9421726837113613,1.3972766471984326,0.4817892419503643,0.07503374580707252,0.4053886187205894,0.0
-0.4336039153437566,-0.9390456581477161,1.366141081680189,0.8030884106691963,-0.03258043305255027,0.23645201291547535,0.0
-0.3220628406857261,-0.9546807312287635,1.4361961381597674,0.8830888645394019,-0.4883200074819201,0.6916422959915984,0.0
-0.37942682512615045,-0.9327916070204255,1.5646306354625303,0.6569254311339678,-0.6322377545111565,0.9239301623610426,0.0
-0.32524973490854436,-0.9452996545378276,1.4945755789829518,0.5981142362619414,0.034192220497182235,1.7905123958668674,0.0
-0.32843662913136284,-0.9390456581477161,1.4478720263244043,0.5609248358563624,-0.0552701695829132,2.3684945229111665,0.0
-0.4782203228929074,-0.8921403294302158,1.4945755789829518,0.37151835177717085,0.13726845160596943,2.063470175256883,0.0
-0.5228367304420585,-0.9077754572484421,1.5451709581089237,0.1276250148414562,-0.12269110844249519,1.4456002019414325,0.0
-0.5323974131105135,-0.9015214061211516,1.5451709581089237,0.27811237858665355,-0.27568477222319043,1.1796814048666235,0.0
-0.4941547940069992,-0.9202835047658444,1.4673318399321325,0.6980067224757136,-0.2782778867768086,1.2797919776051259,0.0
-0.5005285824526358,-0.9890779029545035,1.432304311692343,1.2182260036578825,-0.08573924977413043,1.741239138089993,0.0
-0.6311909108772704,-0.9515537056651182,1.868203046472482,0.41389695416246064,-1.0801979852796721,1.533979086611867,0.0
-0.6630598531054539,-1.0109670819000207,1.8292836917652684,-0.09205195300949705,0.8212019881502663,1.5582245294974228,0.0
-0.6152564397631785,-0.9953319540817943,1.6774974181332318,-0.158214505046061,0.7628569265076545,1.793640815492718,0.0
-0.6120696571106662,-0.9046484316847969,1.490683616261406,0.25951767838386397,0.7388706247935849,1.9367677304423079,0.0
-0.5833876091053012,-0.8327270079324923,1.3544651935155518,0.7715207055171303,1.6931361479732276,1.6708490096815847,0.0
-0.6503122762141805,-0.8045838325968636,1.3933846844768871,1.452605712209452,1.0344854941405028,1.8358750146403,0.0
-0.618443333985997,-0.838981059059783,1.6930652690194143,1.054333162786839,0.2818344930874058,2.7618979078640553,0.0
-0.6375646993229073,-0.8577431577044757,1.9421503381818483,0.532816570561126,0.7596155412225297,3.1482620815594813,0.0
-0.7491057739809376,-0.8483620810135398,1.8720950091940276,0.42773488236764334,0.9489127454986964,2.828377549897194,0.0
-0.7331713028668456,-0.8264729568052016,1.7008491944625055,0.8692510207231507,0.48993178578420166,2.492068548099891,0.0
-0.7013024722089682,-0.8827593074764589,1.5724145609056217,1.216063790455665,0.15477196693599388,2.6125140010345924,0.0
-0.7204237259755722,-0.8765052563491685,1.6035502626779865,1.6156338196996856,0.26238614974906554,2.8721760351717878,0.0
