acc_x,acc_y,acc_z,gyro_x,gyro_y,gyro_z,activity
-2.019431122717485,-0.14473837097757022,2.6907784819225853,0.40609965840095247,-0.561579264609645,-0.8788652696756946,0.0
-2.019431122717485,-0.14473837097757022,2.6907784819225853,0.2953710965448925,-0.44151982105484994,-0.630539820196286,0.0
-1.8972934273427273,-0.16570516683484074,2.720559966997491,0.13563153940101433,0.32620716086690466,-0.14711951734654752,0.0
-1.8678119261058537,-0.18667196842672298,2.677542266333741,-0.05859723309579837,0.9028191386525874,0.10222358531394025,0.0
-1.9267749285796008,-0.13949667201325258,2.578270881111411,-0.24011946383197538,0.8309467769580933,0.13987948386904817,0.0
-2.015219469151774,-0.1132881743243586,2.469072334197446,-0.15359386607407222,0.3907289102309456,-0.07282545410176844,0.0
-2.0531242775200695,-0.10804647536004097,2.4161274718420636,0.3280450884834733,-0.11727769116066179,-0.4137639902091459,0.0
-2.006796198881904,-0.14473837097757022,2.435981795225332,0.5724950273508476,-0.33942848784662843,-0.38933855122035765,0.0
-1.909928388039861,-0.16570516683484074,2.5253260187560276,0.5779406606941743,-0.30757597387531654,-0.12778270423951973,0.0
-1.9394098892767344,-0.1290132712173115,2.5915070967002567,0.5222738683602329,-0.29450827174904487,0.17855311008310373,0.0
-1.99416123818477,-0.02942098229335896,2.624597403978358,0.43151277144201183,-0.2103850090414967,0.2172267362971593,0.0
-2.015219469151774,0.028237712048746647,2.6510698351560493,0.3576937302046386,0.02973386312588084,0.10934767892657402,0.0
-2.0447009703886474,0.043962808941699544,2.6709241585393193,0.3056573551796172,0.15469368003581516,-0.0748609094196638,0.0
-2.0741825084870733,0.05444620687033478,2.7106328053058557,0.23304846288514633,0.13264195262068196,-0.17561587938410436,0.0
-2.0741825084870733,0.002029211492546791,2.6477607812588384,0.14410258200133216,0.14407618201969455,-0.21123632262131692,0.0
-2.0741825084870733,-0.00845418643608848,2.657687942950472,0.03942476670477164,0.10242291137662898,-0.1745981517251567,0.0
-2.0489126239543585,0.002029211492546791,2.617979296183935,-0.0731190130306819,0.2592352273156626,-0.21123632262131692,0.0
-2.0573359310857806,0.028237712048746647,2.5981252044946794,-0.15964459602869113,0.434015623716845,-0.3221685753817233,0.0
-2.0447009703886474,-0.00845418643608848,2.558416557728142,-0.18929323774985646,0.4070634980428848,-0.4127462749631763,0.0
-2.023642776283196,-0.05038778101793534,2.5087807492699707,-0.05315156285273693,0.4511669727961012,-0.35473583564209277,0.0
-2.019431122717485,-0.09756307599775278,2.5087807492699707,0.06907339551102977,0.20778118007789334,-0.21632494850307724,0.0
-2.0489126239543585,-0.09756307599775278,2.541871288242085,0.19432372623205282,-0.11564422839487784,0.006557251316804668,0.0
-2.0657592013556507,-0.09756307599775278,2.584888988905834,0.358298797296143,-0.023353639406566117,-0.013797287121737405,0.0
-2.0868174323226545,-0.04514608205361772,2.6212883500811466,0.33651614584368506,0.070570407366792,-0.09725089929704557,0.0
-2.095240739454077,0.007270910456864407,2.677542266333741,0.24212457257696846,-0.036421334061731446,-0.1664563304535753,0.0
-2.0657592013556507,0.017754314120111428,2.6973965897170102,0.15922942902772003,-0.018453256089951808,-0.2549985747171328,0.0
-2.0573359310857806,0.03872110997738193,2.6609969968476825,0.1065879869111942,0.0958890603134931,-0.33438128246313914,0.0
-2.0741825084870733,0.012512609421182022,2.6510698351560493,0.11808439448882142,0.25841850589424586,-0.40765764908141583,0.0
-2.095240739454077,0.002029211492546791,2.6609969968476825,0.10114232035810627,-0.026620564938134042,-0.42902991750633906,0.0
-2.0741825084870733,0.017754314120111428,2.657687942950472,-0.0604124565101522,-0.5877146688621884,-0.5470862266404449,0.0
-2.019431122717485,-0.00845418643608848,2.6676151046421075,-0.0241080103629168,-0.6318181037695045,-0.5185898521899102,0.0
-2.019431122717485,-0.00845418643608848,2.6676151046421075,-0.015636975142545993,-0.5199259939665793,-0.38832081114843187,0.0
-1.935198235711023,-0.034662684124982454,2.6014342583918912,-0.1160792636039874,-0.43825289552328195,-0.18884632653744607,0.0
-1.8972934273427273,-0.08707967699387782,2.604743312289102,-0.09006108347142362,-0.3083926952967334,0.023858609881748226,0.0
-1.8972934273427273,-0.08707967699387782,2.604743312289102,-0.26129704819292904,-0.22753635812075315,0.35869079400003967,0.0
-1.909928388039861,-0.09232137631660868,2.6345245656699925,-0.7023960648228679,-1.1561593527419014,0.5734311686692848,0.0
-1.8846584666455932,-0.16046346787052307,2.6510698351560493,-1.4599487422038904,-1.8332291810470716,1.163712813643639,0.0
-1.8467536582772972,-0.23908895806989922,2.588198042803045,-1.6904819903677264,-2.2538455344307122,2.0593126569984714,0.0
-1.8046372700663953,-0.2652974528914873,2.5319441265504508,-1.2033973434272784,-2.0374118474635146,2.016568120148625,0.0
-1.8256954641718466,-0.15522176890620545,2.4955447653751377,-0.8530595122749239,-2.101116835560238,1.3774354978928702,0.0
-1.8678119261058537,-0.4015816259637455,2.439290849122543,-0.5341854650786722,-2.7496012148863165,1.7316044749471005,0.0
-1.7667324616980995,-0.6689083075516149,2.4558361186086004,0.09388143223565121,-2.925198272940065,2.259804695486712,0.0
-1.7583091545666771,-0.595524499112721,2.336710410003002,-0.2316484064717637,-3.701909310035105,2.6872500639851746,0.0
-1.6824995378300849,-0.5064156052500979,2.247366186472306,-0.9922264783498832,-4.990710615397689,2.0186034513367397,0.0
-1.6319598424877606,-0.48020714483618065,2.2076575397057687,-1.428484899208212,-6.699311751951999,0.9174229436119063,0.0
-1.7456741938695433,-0.6217330054035327,2.270529563752786,-1.5265068897838483,-6.388136945648028,-0.2661935913785353,0.0
-1.6361714223303665,-0.6112496304133446,2.5484893960365076,-1.3304629086325757,-4.410014950813121,-1.4498100270651524,0.0
-1.3413563362385266,-0.6374580908272622,2.475690441991869,-1.0134040922306247,-2.1893238647584723,-2.2446549190750114,0.0
-1.1728904885024976,-0.8838179306809667,2.340019463900213,-0.7459613677277839,-1.1267569831118898,-2.1723962925286604,0.0
-1.1391974074230182,-1.0096187975783784,2.1679490087862376,-0.5922725552984186,-1.021398764218001,-1.7642877619631814,0.0
-1.1897371027653425,-1.1301778622884602,2.0388961384890045,-0.6848489125307281,-1.9067349855843996,-0.9409465451547,0.0
-1.2487001052390894,-0.9834102454106726,2.062059515769485,-1.382499327937279,-4.642783225592257,-0.8208547558767428,0.0
-1.0086364417783904,-0.8104341681189674,2.1116952083806497,-2.307052352800337,-5.475848797837172,-1.9973470855377478,0.0
-0.8106891665285936,-0.7894673722616968,2.177876170477872,-2.2156862478301877,-3.648005138378986,-2.8827695778252354,0.0
-0.7475145104891353,-0.7318086951234264,2.1183133161750725,-1.4623691286490592,-2.747150851392563,-3.63079887339372,0.0
-0.6001069305816625,-1.1825948748700836,1.9528609688555203,-1.2639047610526177,-3.8472875559587294,-2.686348400320873,0.0
-0.44006438997705594,-1.1983199144169183,1.8668257992220356,-1.5361880813270685,-3.125297372095321,-1.8233159413561908,0.0
-0.31371507789813985,-1.0725191392732958,1.9098433840387778,-0.9958569399384847,-2.8092224763382534,-1.296133287106812,0.0
-0.30108011720100575,-1.0830025601403779,1.9462428610610973,-0.17416638334352152,-1.4967361302168796,-1.1902897098800784,0.0
-0.2842335029381608,-1.0096187975783784,2.0752957313583305,0.6517597314513354,0.5091548710970064,-1.7622522321674179,0.0
-0.14103757659639948,-1.0410689684258372,2.1083861544834384,0.7171077448482849,1.0065439147036426,-2.979453767490155,0.0
-0.12419096233355423,-0.9047847724151316,2.0322781465415884,-0.23527886806036516,-0.31982693465722106,-3.2277790680138265,0.0
-0.1831541122535119,-0.590282834556074,1.9495519149583087,-0.7907368638552841,-2.4400602498841826,-2.168325232937133,0.0
-0.23790546116154784,-0.3858565405400162,1.936315699369463,-1.1925060767406253,-4.639516180522987,-1.2798496445636494,0.0
-0.30108011720100575,-0.33343955089684,1.8734439070164586,-1.6045614597013276,-4.356927460732517,-1.2116619783050013,0.0
-0.27159854224102703,-0.4382735301831925,1.9230795996276238,-0.8010230929702209,-0.9389089045073862,-0.7058516421324578,0.0
-0.031534731334117334,-0.6112496304133446,1.9462428610610973,-0.033789194526190204,1.7832550314904845,-0.559298958547817,0.0
-0.07786292055694126,-0.590282834556074,1.9925694997750507,-1.1289732350984008,1.2123601036547198,-0.7862520899503902,0.0
-0.07786292055694126,-0.590282834556074,1.9925694997750507,-2.333675659063982,-1.606177996063753,-2.3881543079660066,0.0
-0.24632876829297012,-0.6007662095462624,1.8833709528610865,-2.0093559194848267,-3.216771127595622,-1.98615216818017,0.0
-0.24632876829297012,-0.6007662095462624,1.8833709528610865,-1.3897601330353306,-2.7259158553603218,-1.5078205408641043,0.0
-0.27159854224102703,-0.6060079199798035,1.764245360102494,-1.1580168097280619,-0.763311766761837,-1.1017474407905645,0.0
-0.2758101958067382,-0.7370504055569674,1.5822477432968844,-1.0279259385850308,1.9188323015899014,-1.824333606950248,0.0
-0.242117114727259,-0.6951168138424266,1.5987930127829417,-1.1180819684117476,3.0181518464297463,-2.531653895464651,0.0
-0.3684664268061754,-0.5064156052500979,1.7510091445136484,-1.4006515178011354,3.4052825019975943,-3.0313576919018153,0.0
-0.2589637289901039,-0.45924032604046283,1.8833709528610865,-1.6457064942402262,2.955263858675742,-3.489335014298491,0.0
-0.3768897339375977,-0.6322164262706153,2.098458992791804,-1.7316270249066248,-0.3859821268640958,-2.807457755889063,0.0
-0.21263553976727997,-0.6636665971180739,2.022350984849954,-1.5488946968871742,-0.12381153226232251,-2.806440090295006,0.0
-0.14946088372782176,-0.5745577032554507,2.0322781465415884,-1.1531762729960273,2.2006044991884575,-2.2863815917231514,0.0
-0.16630749799066702,-0.5011739406934509,2.071986677461119,-1.1592270029506462,4.0259977951528905,-1.4905191334230594,0.0
-0.28002184937244967,-0.4015816259637455,2.0819138391527536,-1.4962532400107544,4.101953963183972,-1.5851677932922155,0.0
-0.44006438997705594,-0.49069051982636874,2.009114769261108,-1.528927276229017,2.3704844674463876,-1.5057850110683404,0.0
-0.46954596493703493,-0.5273824011073684,1.9263886535248351,-1.2221546889420027,-0.07480768415396666,-1.7266317516912715,0.0
-0.5200856602793594,-0.48020714483618065,1.9098433840387778,-0.620105995745071,0.9322214285907984,-2.5062106667520245,0.0
-0.499027392450803,-0.3491646363205693,1.9760243461360003,-0.07190886408777938,2.888291825509748,-2.938744561828423,0.0
-0.553778741358839,-0.5221407365507215,2.055441407975062,0.30142184125940513,2.2977953444845762,-2.6924547911005154,0.0
-0.5285089674107817,-0.7737422868379673,1.9627881305471546,0.113848876878636,0.8636160322737725,-1.866060478206037,0.0
-0.5495670877931275,-0.6584248866845325,2.0322781465415884,-0.30486238061763254,1.508016605263263,-1.0081165458192904,0.0
-0.6127417438325857,-0.4382735301831925,2.2275118630890374,-0.42890255132583277,3.8626515982662966,-1.6177349790747164,0.0
-0.6380116652268533,-0.3124727550395695,2.25729334816394,-0.2806594017595818,4.714501803049697,-2.4176683976625113,0.0
-0.7306678962262905,-0.5011739406934509,2.1183133161750725,-0.272188373919158,3.315442109648326,-2.9417977572182443,0.0
-0.7475145104891353,-0.6584248866845325,1.9230795996276238,-0.6884793150797541,0.5320233099720814,-2.0248258440461377,0.0
-0.6927630141348888,-0.7475337805471559,1.8767528450666635,-0.9686285961031246,-1.9173524836005202,-0.9226274721195983,0.0
-0.6422233187925643,-0.6164912949699916,1.9859513919806282,-0.4174061585080994,-2.101116835560238,-0.48907581214531753,0.0
-0.6295883580954306,-0.4015816259637455,2.138167639558341,0.04063491380268743,0.3253904195225375,-1.0518788475670189,0.0
-0.6632815866211207,-0.3072310446060283,2.1679490087862376,-0.3205943021154718,1.2270612486238253,-1.4345441494198716,0.0
-0.650646625923987,-0.3910982280351103,2.161330900991815,-0.2600868844901325,1.8216412969101812,-1.6238413698543586,0.0
-0.6085302377130851,-0.6112496304133446,1.9694062383415774,-0.05315156285273693,0.8660662363839237,-0.6488589428833004,0.0
-0.5706253556216838,-0.6479415116943443,1.8833709528610865,-0.11547419651248304,-1.6331300818918129,0.2752371756182426,0.0
-0.5622020484902612,-0.5326241115409096,1.9760243461360003,0.3419618087067994,-2.450677747900304,0.39939987553199074,0.0
-0.5874719698845288,-0.3648897446827458,2.095149938894593,0.9428003382009349,-1.9916749697133644,-0.026010012822620488,0.0
-0.6380116652268533,-0.2652974528914873,2.1646399548890263,0.7897166223828616,-0.5305434919827,-0.8839538955574551,0.0
-0.650646625923987,-0.23384725910558157,2.2506752403695174,0.04063491380268743,0.5083381496755895,-1.1984315311516598,0.0
-0.6295883580954306,-0.3072310446060283,2.260602402061152,-0.2957862561659166,1.885346285006905,-1.2645837669183684,0.0
-0.5790486627531062,-0.4644820364740044,2.148094685402969,-0.2854999975311919,1.1200695071953017,-0.48195170611970595,0.0
-0.5200856602793594,-0.4539986385453689,2.0190419309527425,-0.21289111999661503,-0.8719369510331941,-0.29977856688487436,0.0
-0.5495670877931275,-0.3701314321778398,2.0024966614666853,0.15862435455626872,-1.9361372755226103,-0.6346107308320768,0.0
-0.5664137020559724,-0.3177144425346636,2.0190419309527425,0.5948827754145977,-1.203529673334885,-0.7679329672633759,0.0
-0.4906040853193804,-0.3229561529682048,1.979333400033212,0.7243686089859123,-1.6968350699885366,-0.49212895788322647,0.0
-0.36004311967475283,-0.380614830106475,1.9925694997750507,0.6971402651505519,-2.6319918957498705,-0.07078999878387307,0.0
-0.3389848518461964,-0.33868123839193404,2.0256600387471653,0.6668865563378823,-2.0447624597939673,0.035053606372061376,0.0
-0.3052917707667172,-0.26005575392716973,2.058750461872273,0.38915757320031696,-0.3590300011901356,-1.2228568956625796,0.0
-0.6043185841473737,-0.1132881743243586,1.9958785536722625,-0.2570615195128231,-0.21936904429183338,-0.11556998474512567,0.0
-0.4484876971084786,-0.2181221622126287,2.015732877055531,-0.34237698308771747,-0.17036520116421508,-0.1522081556412859,0.0
-0.4484876971084786,-0.3229561529682048,1.999187607569474,-0.12091985937559754,-0.6359017507224892,-0.047382281247543616,0.0
-0.3895246946347318,-0.33343955089684,1.972715292238789,-0.020477563534209185,-1.5490067793383644,0.010628159431209204,0.0
-0.44006438997705594,-0.23908895806989922,2.0289690926443766,0.08541039517029364,-1.1341075954423427,-0.12676498899355013,0.0
-0.4906040853193804,-0.13425497304893497,2.015732877055531,0.05939221042526303,0.23473330575185353,-0.4982353486628688,0.0
-0.5706253556216838,-0.06087118038022353,1.9760243461360003,-0.36960529740328996,0.8088950993503357,-0.285530379659607,0.0
-0.39373634820044295,-0.23908895806989922,1.92969759157504,-0.4391888394803452,0.714971060048084,0.510332128292397,0.0
-0.33056169216098474,-0.22860556014126393,1.9396247532666744,-0.0725139311792837,0.21513177248539625,1.2400424004776927,0.0
-0.33056169216098474,-0.3701314321778398,1.8337352602499215,0.4194112820129866,-0.011102678624661544,1.147429171100476,0.0
-0.44006438997705594,-0.22860556014126393,1.8866800067582978,0.6057741011408266,-1.7001021150578057,1.039550163381803,0.0
-0.44006438997705594,-0.22860556014126393,1.8866800067582978,0.25725142698330333,-1.373409721284616,0.6406011693338753,0.0
-0.4779691246222466,-0.34392294882547525,2.071986677461119,0.6705170179264838,-0.7216585359646719,-0.1562790662770766,0.0
-0.15367253729353325,0.002029211492546791,1.9396247532666744,0.5948827754145977,0.309872533209065,0.12461358139781108,0.0
-0.15367253729353325,0.002029211492546791,1.9396247532666744,0.796977486520489,0.47730237704864453,1.2980528149728199,0.0
-0.3221383850295621,-0.380614830106475,1.840353368044344,0.8018180822920992,0.8848510283060135,-0.9633365784775052,0.0
-0.3221383850295621,0.07541300272760529,1.9065343301415665,0.5004912169077751,-0.27735692266978834,0.40041759077796035,0.0
-0.3221383850295621,0.07541300272760529,1.9065343301415665,0.24817531729148115,-0.8474350693152857,-0.06671908814808239,0.0
-0.5411437806617049,-0.15522176890620545,2.105077100586227,0.12655542970919223,0.24045041547062224,-0.055524096312636016,0.0
-0.41900612214849986,-0.33868123839193404,2.0058057153638966,0.15620406405041062,0.7860265807834599,0.3688680457635605,0.0
-0.41900612214849986,-0.33868123839193404,2.0058057153638966,0.2784290261041509,1.1535555237782982,0.7016647792188235,0.0
-0.3811013875033092,-0.2652974528914873,1.8502805297359783,0.12837065312354604,1.2940332020980172,0.4197544038849882,0.0
-0.41900612214849986,-0.13425497304893497,1.9065343301415665,0.08541039517029364,1.0759660722879856,0.8217565684967809,0.0
-0.41900612214849986,-0.13425497304893497,1.9065343301415665,-0.03802471582634909,0.191446572343004,0.48081803859589256,0.0
-0.4653343113713238,-0.05038778101793534,1.9032252762443551,-0.3792864889465103,0.587561044008736,-0.0036200182903719335,0.0
-0.45691100423990116,-0.09232137631660868,1.8999162223471435,-0.36234440374587473,0.3980794827154981,-0.03211637256981749,0.0
-0.43164108284563363,-0.3019893571109343,1.959479076649943,-0.14875327030246216,0.28047022334790395,0.1693935735655527,0.0
-0.43164108284563363,-0.40682333639728674,2.009114769261108,-0.019872489062757914,0.22003214085979791,0.1561631139992329,0.0
-0.42742942927992217,-0.3701314321778398,2.0455142462834277,-0.019872489062757914,0.18899636823285298,-0.06671908814808239,0.0
-0.4105828150170773,-0.3491646363205693,1.966097184444366,-0.00535071650782133,-0.008652485721169997,-0.20512995666763087,0.0
-0.46954596493703493,-0.3491646363205693,1.9760243461360003,0.10356261824391134,-0.4047669586320863,-0.10539272056862697,0.0
-0.5579903949245494,-0.3019893571109343,2.055441407975062,-0.021082638005660445,-0.20221769521257693,-0.18579314356060309,0.0
-0.499027392450803,-0.35964803424920455,1.9925694997750507,0.02490298861487483,-0.2177355815260494,-0.11048134645038729,0.0
-0.4442760435427674,-0.3910982280351103,1.9826424539304233,0.058787136415058436,-0.17689903230440068,-0.16747405811252297,0.0
-0.35583146610904165,-0.3648897446827458,1.9330066454722514,-0.16206489391449627,0.7770426053019738,-0.21530723325710763,0.0
-0.33056169216098474,-0.3910982280351103,1.9197705457304124,-0.14814818845106387,0.4683183218753577,-0.38628535583053647,0.0
-0.33056169216098474,-0.4382735301831925,1.9528609688555203,-0.12636552223871203,0.2126815683752452,-0.42292352672669664,0.0
-0.3768897339375977,-0.3701314321778398,1.966097184444366,-0.19836933268178464,0.39644600002676395,-0.46770354372039435,0.0
-0.4484876971084786,-0.3019893571109343,1.9495519149583087,-0.37202559528909507,0.7337558519701739,-0.5257139582155217,0.0
-0.553778741358839,-0.19715536635535824,2.0388961384890045,-0.378681421855006,0.10323964275952094,-0.24482132295361217,0.0
-0.7053979748320226,-0.375373142611381,1.979333400033212,-0.2570615195128231,-0.9674945128700806,0.33426533018529553,0.0
-0.49481573888509184,-0.5745577032554507,1.9859513919806282,-0.263717346078734,-0.2487713541529944,-0.1664563304535753,0.0
-0.48639243175366925,-0.4539986385453689,2.085222893049965,-0.051941421289781374,-0.0045688312970788795,0.2019608338259222,0.0
-0.5200856602793594,-0.3910982280351103,2.071986677461119,-0.06767335016756745,0.32294023533533667,0.08797541050165085,0.0
-0.46954596493703493,-0.3281978404632988,2.0388961384890045,-0.09006108347142362,0.4029798510898999,0.2009431061669745,0.0
-0.4653343113713238,-0.29150595918229905,2.009114769261108,-0.1735613014921233,0.494453726127901,0.17448219944731302,0.0
-0.46954596493703493,-0.2652974528914873,2.0289690926443766,-0.15540908210847906,0.5352902355036493,-0.05348864099474066,0.0
-0.4484876971084786,-0.3177144425346636,2.0058057153638966,-0.16751057153750457,0.430748698185277,-0.12167635069881173,0.0
-0.46112265780561235,-0.4487569281118277,1.979333400033212,-0.07069871514487684,-0.09767614793272941,-0.009726379589191217,0.0
-0.4779691246222466,-0.4854488093928276,2.015732877055531,-0.05254649576123264,-0.17934923641455175,-0.03008092035516668,0.0
-0.499027392450803,-0.43303184268809836,2.042205192386216,-0.06646320122466491,-0.1540305735063755,-0.0748609094196638,0.0
-0.5158740067136479,-0.40682333639728674,2.01242382315832,-0.02168771247711173,-0.41130076984932173,-0.0026022906314242572,0.0
-0.4442760435427674,-0.375373142611381,2.0190419309527425,0.07088861800289022,-0.537077343045836,-0.060612728400885364,0.0
-0.40215950788565463,-0.41206502389238076,2.022350984849954,0.0660480252293835,-0.17934923641455175,-0.05348864099474066,0.0
-0.499027392450803,-0.3910982280351103,2.0322781465415884,0.1071930613826455,0.10242291137662898,0.19178355723644544,0.0
-0.5495670877931275,-0.375373142611381,1.999187607569474,0.06483787709366266,0.1873629253900192,0.1612517522939713,0.0
-0.48639243175366925,-0.4015816259637455,1.9396247532666744,-0.021082638005660445,0.08118790538291261,0.04319542143715375,0.0
-0.40215950788565463,-0.4749654344026392,1.936315699369463,-0.0011151952076624183,-0.17526556953861674,-0.028045465037271317,0.0
-0.4484876971084786,-0.4644820364740044,1.9694062383415774,0.035189247249599466,-0.42845211892857826,0.16430493527081433,0.0
-0.553778741358839,-0.4277901322545572,2.022350984849954,0.004935545816876798,-0.19486712272802423,0.2548826224392891,0.0
-0.553778741358839,-0.3910982280351103,1.9760243461360003,-0.09792704422034317,-0.03315441102053231,0.2782903461821076,0.0
-0.4737574710565355,-0.4277901322545572,1.9859513919806282,-0.11305389862667799,-0.08460845576793287,0.29966261460703075,0.0
-0.43164108284563363,-0.4644820364740044,2.0190419309527425,-0.08461542060830912,0.19226329376442086,0.23859900472208243,0.0
-0.48639243175366925,-0.49069051982636874,2.0256600387471653,-0.03076382216893385,0.13917579372234268,0.28032580150000297,0.0
-0.48639243175366925,-0.49069051982636874,2.0256600387471653,0.036399396192502015,-0.5313602134041169,0.46046348541693904,0.0
-0.5200856602793594,-0.375373142611381,1.9925694997750507,-0.0731190130306819,0.015849439578192317,0.40347078616778154,0.0
-0.5200856602793594,-0.375373142611381,1.9925694997750507,-0.23467380096886079,0.579393710256866,0.3607262493179351,0.0
-0.5200856602793594,-0.375373142611381,1.9925694997750507,-0.23467380096886079,0.579393710256866,0.3607262493179351,0.0
-0.499027392450803,-0.5326241115409096,2.0256600387471653,-0.11849956148979246,-0.1540305735063755,0.8176856578609901,0.0
-0.4484876971084786,-0.6374580908272622,1.999187607569474,-0.11849956148979246,0.25188465483111,0.9041924964585646,0.0
-0.4484876971084786,-0.679391682541803,1.9495519149583087,0.027928357282157704,-0.5166590684350114,1.1494646015924153,0.0
-0.46954596493703493,-0.6269747158370738,1.9065343301415665,0.15801928008481747,-0.8686700653475267,0.7301611536693584,0.0
-0.20842388620156885,-0.6898751034088856,1.959479076649943,0.09872202616227466,-0.5623959860310619,0.21010264268452555,0.0
-0.22948215403012556,-0.7737422868379673,2.0322781465415884,0.25301591306309135,-0.7298258298706413,-0.24482132295361217,0.0
-0.21263553976727997,-0.7318086951234264,2.048823300180639,0.3461973078671175,-0.7069573909955664,-0.6315575850941679,0.0
-0.22105884689870262,-0.5116573156836393,2.01242382315832,0.21792162323870545,0.8121619850360032,-0.9144856508480167,0.0
-0.3768897339375977,-0.39633993846865145,2.009114769261108,0.1404721351726245,1.65747841844807,-1.0803751723656414,0.0
-0.5411437806617049,-0.4539986385453689,1.9462428610610973,0.4883897274787497,0.019116362619391453,-1.0793574074677594,0.0
-0.6338000116611417,-0.3544063467541105,1.92969759157504,0.548897145104089,-0.6130333118474143,-0.9277160980013585,0.0
-0.6969746677005999,-0.23908895806989922,1.9230795996276238,0.09025098725193033,1.3046507001141379,0.08797541050165085,0.0
-0.46954596493703493,-0.6112496304133446,2.1580218470946035,0.5307448962006568,-0.33289463678349274,-1.3979060033496675,0.0
-0.46954596493703493,-0.6112496304133446,2.1580218470946035,0.24272965442836666,0.6537162362156106,-0.66107162513876,0.0
-0.4105828150170773,-0.5431075324079921,2.009114769261108,0.34075164500400296,1.157639170731283,-0.6519120886212092,0.0
-0.5579903949245494,-0.380614830106475,1.9495519149583087,0.5017013510907836,0.3441752313675777,-0.5562457631579958,0.0
-0.4526993506741897,-0.380614830106475,1.959479076649943,0.6644662879718651,-0.7976144649203497,-0.41885261609090596,0.0
-0.40637116145136576,-0.23384725910558157,1.9627881305471546,0.5966980062088986,-0.7453437361070642,-0.4738098848481244,0.0
-0.4779691246222466,-0.22860556014126393,2.0024966614666853,0.4079148596754654,-0.18751653032052132,-0.32623946119155794,0.0
-0.4442760435427674,-0.2181221622126287,1.9263886535248351,-0.07069871514487684,1.2915829979878661,-0.34048764841682533,0.0
-0.4442760435427674,-0.2181221622126287,1.9263886535248351,-0.4978810263113837,2.4170380267720537,-0.33845219309892993,0.0
-0.5790486627531062,-0.22336386117694634,2.0256600387471653,0.1247402099848119,1.7040321371573381,0.22842172813260567,0.0
-0.4484876971084786,-0.3124727550395695,2.0885319469471764,0.420621416195995,0.060769635752825804,-0.2773885832139817,0.0
-0.4105828150170773,-0.28102256125366376,1.972715292238789,-0.4773085090419344,1.080866480508288,-1.7500394506081336,0.0
-0.27159854224102703,-0.42254844475946324,1.612029112524781,-1.1664878080486978,0.8889346752589985,-1.3571968969917605,0.0
-1.2823933337647797,-0.00845418643608848,2.21096659360298,-0.4609714909328032,1.8796291952110864,0.8349870156501226,0.0
-1.0381178692921587,0.012512609421182022,2.220893755294614,-0.30244208273182743,2.765782257536603,1.0181778949568798,0.0
-0.6885513605691777,-0.48020714483618065,2.4823085497862927,0.3818966795429015,0.10323964275952094,0.9164051787140243,0.0
-0.6001069305816625,-0.5640743282652627,2.3135470327225214,0.10779813585409675,-1.7703408745258644,0.628388437426503,0.0
-0.8401705940423616,-0.4539986385453689,2.0752957313583305,0.024297914143423544,-2.073348068156662,0.6986115838290023,0.0
-0.7727842844371919,-0.3177144425346636,1.972715292238789,0.5797558914884751,-3.581849786788507,1.0212310903467008,0.0
-0.6969746677005999,-0.4539986385453689,2.2275118630890374,0.7122671490766747,-5.301885102934455,1.3886305145542726,0.0
-0.6295883580954306,-0.7056001888326148,2.0819138391527536,0.08117487756010823,-2.4857971276343327,0.5032080222667854,0.0
-0.5285089674107817,-0.7265669846898853,2.105077100586227,-0.29699641986871306,-0.14586326963893084,-0.5012884944007777,0.0
-0.46112265780561235,-0.6479415116943443,2.1348585856611297,-0.7665338849972332,-0.6906227234918263,-1.0152406021929903,0.0
-0.5285089674107817,-0.7999507931287789,2.128240477866707,-0.6049791118189481,-0.7812798771084108,-1.8843794519373145,0.0
-0.3853130410690203,-0.6951168138424266,1.9032252762443551,1.4062871028946242,-0.8735704735678289,-2.216158494972564,0.0
-0.25475207542439277,-0.49069051982636874,1.5293029967885081,1.2344460415618268,-0.12952865194256638,-2.160183510969376,0.0
-0.3684664268061754,-0.22860556014126393,1.9627881305471546,0.488994794570254,-1.0516177357317282,-2.03093223482578,0.0
-0.3431965054119079,0.10162149754919339,1.9859513919806282,-0.26795287475883994,-0.6816386683185396,-2.2843462605350364,0.0
-0.16630749799066702,-0.04514608205361772,1.8535895836331902,-1.416988476870691,-1.9688064511464887,-1.353126036007882,0.0
-0.5116623531479367,-0.6269747158370738,1.5921749049885188,-2.509147181985381,-6.845506041916731,1.651204027129168,0.0
-1.0296945621607358,-1.0358272579922956,0.9138202462242515,-5.262839190153852,-17.085678044116545,4.061181633959898,0.0
-0.242117114727259,-0.595524499112721,2.1646399548890263,-2.3651395020596593,-7.7185915614995775,2.4938820818706335,0.0
-0.10734449551691994,-0.3124727550395695,1.741081982822014,-2.3832918100026674,-7.221202517892943,2.039975819065488,0.0
0.8950269888754115,-0.4539986385453689,1.8734439070164586,-0.3889676804897306,-0.37291442473782416,0.34138943621090745,0.0
0.5791535612319088,-0.7632589118477792,1.1950892482521913,-0.6195008991337787,-3.2224882173914393,0.07067405271251843,0.0
0.41489936706159036,-0.9309932328290488,0.7847674338505216,-1.996649422003874,-10.092011665191903,-1.5709195812409917,0.0
0.7981592517564724,-0.7318086951234264,0.711968392920628,-3.257623764434476,-13.906144772774567,-3.011003188374774,0.0
0.9961063795600584,-0.8471260952768612,0.47702607304926936,-4.193673565872509,-16.746734151641792,-3.458803060400279,0.0
0.8276405318240312,-0.8995430619815904,0.21892040847940095,-4.03151357800378,-16.170938576510324,-3.1463608552980125,0.0
1.067704490177152,-0.8628511807005907,0.03692283149619973,-3.0373768634647274,-11.52945730524577,-3.10565184824393,0.0
0.7139261804422462,-0.9414766536961313,-0.22449186162934734,-2.241099478950398,-5.185092624757128,-3.0283046951196435,0.0
0.48228582411297105,-0.5168990261171804,-0.30059992749470077,-2.147918025106796,-2.774919937563341,-1.8172095505765486,0.0
0.9582014974686568,-0.05038778101793534,0.026995684285441218,-1.916779739371244,-1.7433887886978046,-1.6228236049564768,0.0
0.5370373204672186,-0.1132881743243586,-0.148383795763994,-2.0934613374360773,-4.053103744909806,-0.6295221049503164,0.0
0.3096083228112307,-0.21288046324831106,-0.07558475483410036,-1.6650688773266669,-5.881763767176304,0.30780443587861217,0.0
-0.17051915155637815,-0.6007662095462624,-0.09212999535840596,-0.9105415058833782,-6.9353467530332,1.7845262635604673,0.0
-0.17051915155637815,-0.5535909073981802,-0.13514760913689974,-0.5232941393524431,-2.274263848887437,3.844405754320845,0.0
0.11587284857335549,-0.17618856476347597,0.12957613788585867,0.07996472861720569,3.101458467407678,4.135475591694362,0.0
0.21695223925800372,0.05968790583465242,-0.0226400083257238,-0.5251093111071682,2.7273956733497022,4.048968852400612,0.0
0.2969733621140969,-0.6426998012608033,0.00383236492846437,-0.4990911604943923,1.5366022136259576,3.127925879636979,0.0
-0.07786292055694126,-0.7003584783990736,-0.045803327682700845,-1.030346206951048,-0.9527933679009752,3.389481825921643,0.0
-0.018899770636983566,-0.4539986385453689,-0.06234856820700618,-1.5047242383313906,-1.4117959867043128,2.3086556231162003,0.0
0.3643598191654772,-0.8471260952768612,0.020377590971894028,-0.9238531590152,0.7141542987807665,1.4384991077778182,0.0
-0.22527050046441374,-1.2454952165650004,-0.35354467400307726,-0.9746793260577433,-2.4490442253656686,2.9752669045765208,0.0
0.6296934040204432,-1.2454952165650004,-0.287363769829358,-0.15964459602869113,0.13427541538646592,1.9789121098767146,0.0
0.7728893303622042,-1.0305855475587544,-0.3932532628461112,-0.045890676575268664,0.7500904397821131,1.7092144416242954,0.0
0.08639127361337648,-1.145902901835295,-0.30059992749470077,-0.11184374968377545,-0.7935308179673652,2.200776714701352,0.0
0.18747066429802506,-1.444679846024412,-0.42634374389472235,-0.11426404756958053,-1.235382167383247,1.4558005152188631,0.0
0.5538836398376406,-1.2140450457175422,-0.472670382608676,-0.5608087123027403,-2.895796142385454,0.5836084700847176,0.0
0.7265611411393816,-1.3083956500137064,-0.608341302776829,-0.25645645242131876,-1.1798444731924929,0.5591830062699735,0.0
0.5875768683633311,-1.3188789791270001,-0.54216039860311,-0.0029304186220162455,0.9706077737022959,-0.39035626646632726,0.0
0.3348782442054979,-0.8314009639762376,-0.598414199008698,-0.4815440082022525,2.5150458724108917,0.15209221577642026,0.0
-0.0820745741226524,-1.0410689684258372,-0.6248865722628862,-0.794972363015602,5.762367380343572,-0.07893181384896547,0.0
-0.08628622768836389,-1.0830025601403779,-0.20463759616958194,-0.38957274758123495,1.528434919719988,-0.988779707886307,0.0
0.71813783400796,-0.5535909073981802,-0.42634374389472235,-0.7526171942936949,3.0500046592453116,-2.876663187045593,0.0
0.7981592517564724,-0.49069051982636874,-0.15169284966120533,-0.5983232852530372,1.2572802998293535,-3.1127759046176298,0.0
0.49070913124439264,-0.49069051982636874,-0.03256714105560663,-0.3405617522934169,-1.2533502777298209,-1.4793241167616569,0.0
-0.29686846363529457,-0.4277901322545572,-0.24765518098632408,-0.2110758892023144,-1.596377179623149,0.6426365998258146,0.0
0.5875768683633311,-0.4644820364740044,-0.09212999535840596,0.10598291243974296,-1.9108185528455834,3.0902700679727175,0.0
0.5875768683633311,-0.6479415116943443,-0.350235678029369,0.4551106536887706,-0.7518775871702001,3.778253518554137,0.0
0.7349844482708039,-0.9047847724151316,-0.5090699175544988,0.6396582125025222,0.279653501926487,3.1340322704166215,0.0
0.5707302541004845,-1.0358272579922956,-0.5818689295226406,0.3534582015245327,0.24045041547062224,2.836856042263461,0.0
0.47807417054725987,-1.1092110205542953,-0.5090699175544988,0.5779406606941743,0.7043535620319634,2.7401718525985417,0.0
0.2590687749151168,-1.0620357184062132,-0.3469266241321577,0.7649085469135186,0.9363050755437828,3.204255367167209,0.0
0.5791535612319088,-1.3660542812750827,-0.4131075283058766,0.5186434362914194,0.44953352995326745,2.7177820178833856,0.0
0.5286140133357969,-1.4813717273054112,-0.38001710518076887,0.49020495827305033,0.18899636823285298,2.450119680819081,0.0
0.20852893212658177,-1.1196944414213774,-0.24434612708911266,0.02490298861487483,0.26903600391036636,2.5803888211643837,0.0
0.1495657822066241,-0.9834102454106726,-0.19801948837515915,-0.32906532995589566,0.02891713298817325,2.9121678641996334,0.0
0.11166119500764402,-1.381779412575706,-0.26089139657516985,-0.23406870435756863,0.10568982694672176,2.9050436092182848,0.0
0.36014816559976576,-1.6333809628629516,-0.2840547159321467,-0.1838475601268479,0.023200017043482565,2.400251087595535,0.0
0.5075557455072393,-1.7329732775926574,-0.3634718356947117,0.029138506225060236,0.3221235139139198,1.6888599380972544,0.0
0.17062405003518014,-1.6333809628629516,-0.30059992749470077,0.08843576568256327,0.21431503114102918,1.7896149887460517,0.0
0.2464338142179834,-1.575722239847787,-0.2807456620349353,0.0370044706639533,0.0166661703384921,1.4191622698448347,0.0
0.39805304769116673,-1.6333809628629516,-0.2509642348835355,-0.23527886806036516,-0.12626172641099845,0.7006470639728539,0.0
0.747619408967936,-1.7749067775534098,-0.3866351550516885,-0.0694885662019743,0.14570964478547851,-0.25703403003502817,0.0
0.4317459813244353,-1.6228975419958693,-0.2774366081377239,0.0630226548900814,0.08935521423109485,-0.3496471849343766,0.0
0.19589397142944734,-1.4708883064383291,-0.23110996942377035,-0.003535493093467517,0.26086869008144664,-0.9460351710364605,0.0
0.5623069469690629,-1.3031539395801652,-0.24765518098632408,-0.2782391333935646,0.14325945063680257,-1.8518121668509888,0.0
0.48228582411297105,-1.2821870978460006,-0.40979847440866524,-0.4113554285534807,-0.7257421829176568,-3.323445592084688,0.0
0.1285075143780677,-1.5547554898674112,-0.22118283669388752,-0.2709782397361494,0.03055059450877282,-4.218027273326342,0.0
-0.09892118838549764,-1.381779412575706,-0.4428889554572763,0.3268349543004647,0.0419848263981542,-4.614941085141892,0.0
-0.3052917707667172,-1.5075801877193291,-0.2774366081377239,0.2965812454877951,-0.35576307565856763,-4.296392290652334,0.0
-0.039958038465539955,-1.5285470294534935,-0.2840547159321467,0.2227622042504217,-0.4807229274336649,-2.6680292279819464,0.0
0.46122755628441264,-1.235011795697918,-0.37008994348913443,-0.1947389006129708,-0.48562329580806635,-1.5332636702729059,0.0
0.5707302541004845,-1.235011795697918,-0.39656231674332265,-0.5069571212433118,-0.17036520116421508,-0.583724372710649,0.0
0.2717034407198294,-1.3660542812750827,-0.35685372790028874,-0.16932578757191147,0.17347849188085557,-1.2248924254583433,0.0
0.2295871999551385,-1.0253438371252133,-0.38001710518076887,0.15862435455626872,-0.4121175311166391,-1.48339507704936,0.0
0.4191110206273019,-1.1983199144169183,-0.2840547159321467,-0.05799215862434711,-0.24387096585564252,-2.398331559729527,0.0
0.5075557455072393,-0.957201784996755,-0.3767080512835575,0.05273639585176589,-0.17118192258563195,-1.9149112072278769,0.0
0.7602543696650721,-0.9729268245435901,-0.3932532628461112,0.1428924330584296,0.1947134978745719,-0.5460685113944753,0.0
0.566518600534774,-0.9938936662777547,-0.3899442089488998,0.17072583660534718,0.5067046669868553,-0.1399954361468918,0.0
0.17483570360089162,-0.9047847724151316,-0.30059992749470077,0.113848876878636,0.7468235540964455,-0.7221352846756206,0.0
0.280126747851252,-0.7999507931287789,-0.3072180352891237,-0.16206489391449627,0.00033155388731202014,-0.0626481837187807,0.0
0.28855005498267394,-0.8628511807005907,-0.2774366081377239,-0.031368896640385106,-0.29450827174904487,0.3444426067747724,0.0
0.339089897771209,-1.0096187975783784,-0.406489478434957,0.7455462228666536,0.39154563165236245,0.8929974797971623,0.0
0.423322674193013,-1.0148604162581312,-0.42634374389472235,1.475870556412316,1.5668213445232866,0.9571142850719315,0.0
0.10744954144193287,-0.8523677598335082,-0.3369994624405232,0.9270684167030958,1.637060103991345,-0.01888592231323127,0.0
0.10744954144193287,-0.8523677598335082,-0.3369994624405232,-0.5819863261834818,-0.45458752318112156,0.3108576064424771,0.0
0.4696508634158383,-0.7265669846898853,-0.21456472889946476,-1.2409119163775755,-1.4869353137762753,0.8349870156501226,0.0
0.545460332706219,-1.0253438371252133,-0.2840547159321467,-0.21833678285972963,-1.348090998607589,1.0772060743498888,0.0
0.545460332706219,-1.0253438371252133,-0.2840547159321467,0.21247594561569705,-0.30512578968811566,0.9092811223403251,0.0
0.4949207848101031,-1.16686974356946,-0.350235678029369,0.2808493239899558,-0.05438941452387986,0.3566553386821446,0.0
0.3643598191654772,-1.0987276914410016,-0.35685372790028874,0.27116813244673554,0.0958890603134931,-0.02702773737832365,0.0
0.3643598191654772,-1.0987276914410016,-0.35685372790028874,0.1410772096440758,0.5254894987548461,0.10120585765499261,0.0
0.4317459813244353,-1.0358272579922956,-0.3039089813919121,-0.10700315391216526,0.22574927050151689,-0.049417730358949946,0.0
0.42753432775872446,-1.0987276914410016,-0.4164165822030881,0.11747932001737013,0.5712264163508963,0.0045217975505315745,0.0
0.42753432775872446,-1.0987276914410016,-0.4164165822030881,0.1313960254808024,0.39399583576251324,-0.13185361487531042,0.0
0.368571472731188,-1.0201021266916723,-0.30059992749470077,0.4284874064647026,0.43973275335856377,0.24470537067576847,0.0
0.2295871999551385,-1.0253438371252133,-0.31052708918633515,0.08238502465802404,-0.01518633304875266,0.2782903461821076,0.0
0.2295871999551385,-1.0253438371252133,-0.31052708918633515,0.13502647230951004,0.3376413803044421,0.005539524433668122,0.0
0.2464338142179834,-1.0672774288397542,-0.2939818776237811,0.10295754377246008,-0.023353639406566117,0.4401089322379857,0.0
0.39805304769116673,-1.1196944414213774,-0.27412755424051233,0.0908560617233816,-0.2479546128086273,0.24572308592173814,0.0
0.4570159027187021,-1.0305855475587544,-0.2840547159321467,-0.031368896640385106,-0.2659227032322509,0.2894853628435102,0.0
0.28433840141696315,-1.0463106788593781,-0.2972909315209925,0.05031609981094755,-0.5223761980767305,0.9469369340045865,0.0
0.12008450213906663,-1.0096187975783784,-0.24434612708911266,0.15257361722170296,-0.6105831077372632,1.2084927809854242,0.0
0.13693082150948999,-1.0830025601403779,-0.30059992749470077,0.3649546238620539,-0.1654648128668632,0.7718879256213229,0.0
0.031639777259129934,-1.235011795697918,-0.30059992749470077,0.7667237777078194,0.0967057916963851,0.18465947603678978,0.0
0.04848639152197518,-1.3712959917086232,-0.3932532628461112,0.602143639552225,0.23146638022028562,-2.582540154282254,0.0
0.09902623431051025,-1.3555709521617887,-0.4461980093544878,0.3195740606430493,-0.3908825350843977,-1.9322127139727456,0.0
0.4064760599301681,-0.9781685349771312,-0.4031804245377456,0.01401165550869891,0.14979330169993837,-3.0557832550203843,0.0
0.35593651203405424,-0.8051925035623204,-0.37008994348913443,0.14652287988713722,0.7092538905604644,-1.145509643234468,0.0
0.4738625169815494,-0.7737422868379673,-0.37008994348913443,0.3080776530654223,0.38827870612079446,-1.0040456848354125,0.0
0.20852893212658177,-0.9624434954302961,-0.30059992749470077,0.18887806336893836,0.1938967565302048,-1.2208214651706402,0.0
0.09902623431051025,-1.0463106788593781,-0.2840547159321467,-0.14996341924536472,-0.1425963441073629,-1.517997792627625,0.0
0.9961063795600584,-0.9100264828486726,-0.3998713706405343,-0.39017781467273926,0.4389160319371469,-1.8273868023400692,0.0
0.8192172246926062,-0.752775490980697,-0.3469266241321577,-0.2316484064717637,1.2172605118750222,-1.0773219769758204,0.0
0.6465400182832898,-0.7160836096996973,-0.3469266241321577,0.08420024807237785,1.489231813341173,-0.3445585590526161,0.0
0.5328256669015081,-0.7999507931287789,-0.2509642348835355,0.33349075134658773,1.0686154599575326,-0.08300272448475617,0.0
0.39805304769116673,-0.878576312001214,-0.18147427681260517,-0.023502935891465543,0.2968048510057436,-0.3394699331708557,0.0
0.46543920985012716,-0.8471260952768612,-0.20132854227237051,-0.00716593992217513,0.3041554234902961,-0.36287763208771817,0.0
0.3854180869940333,-0.7999507931287789,-0.20463759616958194,0.05213132138031462,0.584294118477168,-0.1695095134304183,0.0
0.4696508634158383,-0.7894673722616968,-0.20132854227237051,0.30444720623671456,2.2512417851589097,0.16735811824765734,0.0
0.39805304769116673,-0.7632589118477792,-0.148383795763994,0.4018641297208465,2.0323578940815605,-0.10946361879143963,0.0
0.3264549370740756,-0.7685005764044262,-0.19140140954248774,0.25664635989179896,0.9975599392221565,-0.285530379659607,0.0
0.376994779862611,-0.7475337805471559,-0.22118283669388752,0.11203365346428219,0.5377404396138005,0.022840882998611683,0.0
0.5244023597700831,-0.8261592994195907,-0.16161998239108816,-0.10639808682066096,0.4650513963437897,-0.19495269249113217,0.0
0.4991324383758143,-0.836642674409779,-0.14507474186678257,-0.2873152283254927,0.2788367605821199,-0.16034997691286731,0.0
0.46543920985012716,-0.836642674409779,-0.13514760913689974,-0.43374314709744277,-0.051939220375203925,-0.03109864801411437,0.0
0.4443809420215701,-0.7842257077050498,-0.025949062222935446,-0.31938416793246316,-0.3459623389097644,-0.026010012822620488,0.0
0.4191110206273019,-0.7737422868379673,0.04354092480974682,-0.3224095329097724,-0.6367185119898064,-0.11760544006302105,0.0
0.4864974776786815,-0.7894673722616968,-0.016021929493052613,-0.3097029763892428,-1.0001636884939586,-0.30486719276663476,0.0
0.5538836398376406,-0.836642674409779,-0.05903954327154638,-0.2068403900419963,-1.2231312265242926,-0.2651758513066096,0.0
0.5707302541004845,-0.9100264828486726,-0.13183855523968838,-0.15843444708578852,-1.5841263184559955,-0.3700017381133298,0.0
0.47807417054725987,-0.9152681932822138,-0.13845666303411142,-0.06827841725907173,-1.9002010548294628,-0.3496471849343766,0.0
0.545460332706219,-0.7370504055569674,-0.13514760913689974,-0.21833678285972963,-2.2571124201163797,-0.28349494916766776,0.0
0.2295871999551385,-0.44351524061673364,-0.495833701965653,0.8550646357798111,-2.45149442947582,-0.3689839980414041,0.0
0.368571472731188,-0.5011739406934509,-0.42303468999751104,0.21610639244440466,0.03300078616707998,0.48997757511344375,0.0
0.4864974776786815,-0.7737422868379673,-0.09543904925561739,0.5761254889394491,1.6035742467919505,0.4278962251565695,0.0
0.2969733621140969,-0.7108418992661558,0.06339520475038803,0.3232044927118631,-0.4554042446025384,-0.004637745949319613,0.0
0.3517248584683431,-0.7999507931287789,-0.08882094146119461,0.5234840320630294,-0.38924905239566376,-0.10132180993283625,0.0
0.44859259558728054,-0.7370504055569674,-0.3601627817975001,0.17072583660534718,0.16204426248184298,-0.11149907410933498,0.0
0.41489936706159036,-0.7580172014142381,-0.3634718356947117,-0.16388012470879687,0.37194407846295485,0.036071334031009046,0.0
0.376994779862611,-0.7475337805471559,-0.21125567500225315,-0.07130378223638116,-0.2740900170611706,-0.0768963585310701,0.0
0.3475132049026323,-0.7737422868379673,-0.18147427681260517,-0.09127123241432614,-0.537077343045836,0.009610432354119873,0.0
0.47807417054725987,-0.8314009639762376,-0.2642004504723813,0.20703028275258262,0.2126815683752452,0.0930640425899002,0.0
0.4317459813244353,-0.8471260952768612,-0.2509642348835355,0.08904084015401453,-0.1474967324047148,0.01775224819502338,0.0
0.4022644063644566,-0.7789839972715087,-0.26089139657516985,0.07633428455597817,-0.15566403627215947,-0.012779561014411984,0.0
0.423322674193013,-0.7475337805471559,-0.2642004504723813,0.008565988955610945,-0.3818984799111109,-0.012779561014411984,0.0
0.4443809420215701,-0.7370504055569674,-0.2906728237265697,0.1295808020664486,-0.12789518917678241,-0.009726379589191217,0.0
0.4864974776786815,-0.6426998012608033,-0.4693613287114645,-0.041655155275109754,0.0035984769285111588,0.027929517414294412,0.0
0.44016928845585895,-0.7056001888326148,-0.3039089813919121,0.047895803770129204,0.14162598787101863,0.048284056628647626,0.0
0.42753432775872446,-0.7160836096996973,-0.2642004504723813,0.07149369155184812,0.12937502708911405,0.023858609881748226,0.0
0.4570159027187021,-0.7737422868379673,-0.3072180352891237,0.21368609455859958,0.4438164003115486,-0.06468363903667605,0.0
0.16641239646946934,-0.5693159928219097,-0.26089139657516985,-0.16327504285739863,-0.6252842527063687,0.042177696881450594,0.0
0.35593651203405424,-0.7056001888326148,-0.2774366081377239,-0.07977482483669898,-0.6195671629105503,0.1836417483778421,0.0
0.5370373204672186,-0.7894673722616968,-0.36678088959192306,-0.057387084152895826,-0.12707845779389043,-0.013797287121737405,0.0
0.44016928845585895,-0.7475337805471559,-0.27081855826680434,-0.1427025255879493,-0.41701789949104084,0.05846132701163536,0.0
0.41489936706159036,-0.7999507931287789,-0.2906728237265697,0.020667471004689412,-0.05683960369181826,-0.08300272448475617,0.0
0.46122755628441264,-0.7737422868379673,-0.27412755424051233,-0.1293909019759153,-0.0037520999141869007,-0.0697722711249254,0.0
0.3896297405597444,-0.7370504055569674,-0.37008994348913443,-0.01140145384238708,0.01258251622569708,0.12359585373886338,0.0
0.3011850156798077,-0.7213252742563443,-0.3039089813919121,0.08843576568256327,-0.10992710871463397,0.1266490367157064,0.0
0.3475132049026323,-0.7894673722616968,-0.26089139657516985,0.3056573551796172,0.15551041141870714,0.06660314207672773,0.0
0.31803162994265294,-0.7632589118477792,-0.2774366081377239,-0.015031900671094707,-0.44968715480671984,0.1419149391869435,0.0
0.44016928845585895,-0.752775490980697,-0.39656231674332265,0.1767765813198599,0.24780098795517497,0.18058856540099907,0.0
0.4359576348901468,-0.7213252742563443,-0.3469266241321577,-0.28186956546237835,0.21104810560946125,0.06049678232953071,0.0
0.39805304769116673,-0.7894673722616968,-0.23441902332098172,-0.2074454571335006,-0.36311368798902094,0.03301815260578828,0.0
0.34330155133692014,-0.7737422868379673,-0.287363769829358,-0.08945601637991929,-0.7036904256180979,-0.07994954150791314,0.0
0.41489936706159036,-0.7265669846898853,-0.495833701965653,-0.272188373919158,-0.15321384212348352,0.042177696881450594,0.0
0.4864974776786815,-0.7422920701136144,-0.3998713706405343,-0.0731190130306819,0.4291152553424432,0.11341858335587567,0.0
0.5075557455072393,-0.7422920701136144,-0.35685372790028874,0.06967846952123435,0.665967177074565,0.07779814011866312,0.0
0.39805304769116673,-0.8523677598335082,-0.2939818776237811,0.13805183728681944,0.519772369113127,-0.09928635461494092,0.0
0.35593651203405424,-0.7894673722616968,-0.24434612708911266,-0.015031900671094707,0.08282136814869658,-0.06570136669562372,0.0
0.2969733621140969,-0.7056001888326148,-0.2675095043695929,-0.14391267453085188,-0.34759578175259814,0.12156039842096802,0.0
0.39805304769116673,-0.7370504055569674,-0.3072180352891237,0.15862435455626872,-0.025803833555242055,0.042177696881450594,0.0
0.44859259558728054,-0.752775490980697,-0.32376330477518084,0.043055209843505776,-0.04622210567569764,-0.0036200182903719335,0.0
0.3896297405597444,-0.7108418992661558,-0.33038135464610047,0.02248269072906973,-0.3361615623150607,0.019787702349202036,0.0
0.31803162994265294,-0.7422920701136144,-0.2840547159321467,0.1271605041806435,-0.43498596999171396,0.12156039842096802,0.0
0.39805304769116673,-0.8104341681189674,-0.3072180352891237,0.06665309923958808,-0.5289100491398662,0.11545403867377102,0.0
0.6465400182832898,-0.8051925035623204,-0.3039089813919121,0.7267889363915052,0.7729589583489889,-0.1552613386181289,0.0
0.3222432835083641,-0.7003584783990736,-0.39656231674332265,0.23123324685073948,0.39317907449519623,-0.10132180993283625,0.0
0.2927617085483854,-0.7108418992661558,-0.35685372790028874,0.0037253968739742634,-0.19160019719645632,0.021823156115475136,0.0
0.339089897771209,-0.7580172014142381,-0.3469266241321577,0.10235246930100879,0.03055059450877282,-0.009726379589191217,0.0
0.41489936706159036,-0.7842257077050498,-0.35354467400307726,0.11868946896027269,-0.03152094825474835,0.057443599352687655,0.0
0.44016928845585895,-0.7999507931287789,-0.3469266241321577,0.09146113619483288,0.024833478564082138,0.0645676898620769,0.0
0.4359576348901468,-0.7737422868379673,-0.34030851633773473,0.15015331933589787,0.0967057916963851,0.015716794428750284,0.0
0.3812064334283218,-0.7632589118477792,-0.35685372790028874,0.1295808020664486,0.11630733492431748,-0.04229364295280524,0.0
0.3938413941254559,-0.7632589118477792,-0.3469266241321577,0.0944865067071025,0.04606848082224531,0.0045217975505315745,5.0
0.36014816559976576,-0.7108418992661558,-0.3369994624405232,0.12534528445626317,0.08445483091448054,0.03200042649846286,5.0
0.36014816559976576,-0.7108418992661558,-0.3369994624405232,0.043055209843505776,-0.22100250705761734,0.10527676829078329,5.0
0.47807417054725987,-0.7475337805471559,-0.40979847440866524,-0.09429659739163554,-0.15811423042083542,0.054390419479089167,5.0
0.44859259558728054,-0.7737422868379673,-0.34030851633773473,0.01643195339450398,0.2812869646922711,-0.0880913565730055,5.0
0.44859259558728054,-0.7737422868379673,-0.34030851633773473,-0.08461542060830912,0.0166661703384921,-0.028045465037271317,5.0
0.3348782442054979,-0.7265669846898853,-0.30059992749470077,-0.14693803950816134,-0.5321769348255337,0.03708906168995672,5.0
0.39805304769116673,-0.6846333929753441,-0.34030851633773473,-0.2600868844901325,-0.7927140567000478,0.25081173662945455,5.0
0.39805304769116673,-0.6846333929753441,-0.34030851633773473,-0.04770589998962246,-0.529726770561283,-0.19291723717323678,5.0
0.4570159027187021,-0.7056001888326148,-0.35685372790028874,-0.25645645242131876,-0.5983321668783089,-0.038222735420259044,5.0
0.4191110206273019,-0.7422920701136144,-0.383326101154477,0.32925525218626983,-0.6685709661922679,-0.04229364295280524,5.0
0.4191110206273019,-0.7422920701136144,-0.383326101154477,-0.021082638005660445,-0.6236508098635348,-0.047382281247543616,5.0
0.44016928845585895,-0.7003584783990736,-0.4131075283058766,-0.18989830484136075,-0.657136786600631,-0.023974557504725123,5.0
0.4570159027187021,-0.6951168138424266,-0.4428889554572763,-0.2951811890744122,-0.6015990924098769,0.0635499622031292,5.0
0.4191110206273019,-0.7265669846898853,-0.43627084766285346,-0.21652155206542878,-0.416201178069624,0.021823156115475136,5.0
0.4022644063644566,-0.7999507931287789,-0.43957990156006493,0.08056980308865697,0.2281994546887177,-0.06773681580703005,5.0
0.44016928845585895,-0.8104341681189674,-0.41972563610029967,0.1743562834340548,-0.04948902622652799,-0.1420308914647872,5.0
0.39805304769116673,-0.7475337805471559,-0.3866351550516885,0.05939221042526303,-0.06990730083735236,-0.026010012822620488,5.0
0.3854180869940333,-0.7108418992661558,-0.49252464806844143,-0.16932578757191147,-0.11809442254355378,-0.03109864801411437,5.0
0.368571472731188,-0.7370504055569674,-0.4594342249433336,0.07028354353143894,0.13427541538646592,-0.14101316380583953,5.0
0.339089897771209,-0.752775490980697,-0.3932532628461112,0.43816856848813507,0.2682192625659993,-0.13592452551110112,5.0
0.41489936706159036,-0.7632589118477792,-0.34030851633773473,0.6741474795150855,0.17837887021673232,-0.13897770848794416,5.0
0.4191110206273019,-0.7422920701136144,-0.4164165822030881,0.2899254336817779,0.21023138418804438,-0.0636659113777284,5.0
0.3854180869940333,-0.7632589118477792,-0.4528161171489109,0.10840321032554802,0.20206407035912463,-0.055524096312636016,5.0
0.31803162994265294,-0.8156758785525083,-0.38001710518076887,0.13986706070117325,0.027283671467573684,-0.12371180601670709,5.0
0.3096083228112307,-0.7737422868379673,-0.3899442089488998,0.28205947293285843,-0.037238065444623415,-0.173580424066209,5.0
0.3938413941254559,-0.7894673722616968,-0.35685372790028874,0.37645101667978714,-0.03315441102053231,-0.24380358288168644,5.0
0.376994779862611,-0.6898751034088856,-0.40979847440866524,0.24757025019997686,-0.22345269124481812,-0.1786690623609474,5.0
0.4443809420215701,-0.7265669846898853,-0.4428889554572763,0.3280450884834733,-0.04867229484363603,-0.20920086730342152,5.0
0.3896297405597444,-0.7370504055569674,-0.43296185168914547,0.2953710965448925,0.12692483294043808,-0.22548450984658439,5.0
0.4064760599301681,-0.7108418992661558,-0.39656231674332265,0.2227622042504217,0.17756214879531546,-0.2590694853529235,5.0
0.368571472731188,-0.7213252742563443,-0.35685372790028874,0.14712794697864154,0.13590886819077477,-0.2590694853529235,5.0
0.3475132049026323,-0.7475337805471559,-0.43296185168914547,0.2493854662343837,0.26086869008144664,-0.23769721692800036,5.0
0.3727831262968992,-0.7318086951234264,-0.40979847440866524,0.32199435852885444,0.35805965491526626,-0.11964089538091638,5.0
0.3896297405597444,-0.7108418992661558,-0.35685372790028874,0.369190123022372,0.36704371008855335,-0.03618728320560822,5.0
0.376994779862611,-0.6479415116943443,-0.350235678029369,0.2451499523141718,0.2943546468955925,-0.11658771240407335,5.0
0.368571472731188,-0.7003584783990736,-0.3634718356947117,0.13502647230951004,-0.04540537429280566,-0.30181402220276976,5.0
0.4022644063644566,-0.7318086951234264,-0.3866351550516885,0.15317869169315426,-0.3908825350843977,-0.3832321852666718,5.0
0.3264549370740756,-0.6007662095462624,-0.4131075283058766,0.06907339551102977,-0.5975154056109915,-0.08605590125511016,5.0
0.3011850156798077,-0.6374580908272622,-0.3072180352891237,0.172541060019701,-0.6220173271748006,0.041159969222502917,5.0
0.3896297405597444,-0.7213252742563443,-0.3866351550516885,0.37705608377129146,-0.47418907637052893,-0.0626481837187807,5.0
0.41068771349587957,-0.679391682541803,-0.4693613287114645,0.1477330214500928,-0.37373118600514144,-0.16747405811252297,5.0
0.3938413941254559,-0.679391682541803,-0.4461980093544878,0.0019101734596204498,-0.34432885622103016,-0.11048134645038729,5.0
0.42753432775872446,-0.6636665971180739,-0.406489478434957,0.05273639585176589,-0.31329308359408514,-0.09725089929704557,5.0
0.39805304769116673,-0.6951168138424266,-0.45612517104612194,-0.09974227501464397,-0.005385562679970861,0.051337239605490644,5.0
0.26749178715411825,-0.6531832221278854,-0.472670382608676,-0.15298878422267392,0.130191758472006,0.22333310225084535,5.0
0.376994779862611,-0.7003584783990736,-0.4164165822030881,-0.07735452695089387,0.30252196072451215,0.3841339730607537,5.0
0.4359576348901468,-0.7003584783990736,-0.4428889554572763,0.09993217141520373,0.6308477574946353,0.43705578650007687,5.0
0.4570159027187021,-0.679391682541803,-0.472670382608676,0.002515247931071721,0.888117993683482,0.3841339730607537,5.0
0.39805304769116673,-0.7003584783990736,-0.3733989973863459,-0.15964459602869113,0.8987354916996027,0.17142901647047,5.0
0.2464338142179834,-0.7894673722616968,-0.23110996942377035,0.09025098725193033,0.6504493106840429,0.14802130514062958,5.0
0.4022644063644566,-0.6898751034088856,-0.2972909315209925,0.16407002479933017,0.6790349190467371,0.4818357538418622,5.0
0.4738625169815494,-0.6898751034088856,-0.33038135464610047,0.1519685427502517,0.6038956318206751,0.49303077050326455,5.0
0.48228582411297105,-0.6846333929753441,-0.37008994348913443,0.09509157933356704,0.36867715293138686,0.3790453223530371,5.0
0.44859259558728054,-0.6846333929753441,-0.3899442089488998,-0.06464797043036413,0.25841850589424586,0.09102859347849387,5.0
0.3812064334283218,-0.7370504055569674,-0.3469266241321577,0.05697191438444468,-0.051122488992311955,-0.14101316380583953,5.0
0.368571472731188,-0.7999507931287789,-0.3601627817975001,0.036399396192502015,-0.15893096180372737,-0.029063192696219004,5.0
0.4317459813244353,-0.7422920701136144,-0.32376330477518084,0.10235246930100879,0.036267711698647905,0.08186905075445385,5.0
0.46122755628441264,-0.7265669846898853,-0.3469266241321577,-0.03197397111183639,0.006048669520706609,0.34138943621090745,5.0
0.4570159027187021,-0.7894673722616968,-0.32376330477518084,0.18040702076862056,0.36949387435280373,0.3220526231038796,5.0
0.30539666924551956,-0.7370504055569674,-0.2807456620349353,0.7939521215431796,0.3221235139139198,-0.1450840744416302,5.0
0.3306665906397864,-0.6164912949699916,-0.20463759616958194,-0.019267421971253605,-0.2749067384825875,0.1419149391869435,5.0
0.3643598191654772,-0.7422920701136144,-0.27081855826680434,0.20218968698097245,-0.20793480493134567,-0.01888592231323127,5.0
0.4022644063644566,-0.8523677598335082,-0.33038135464610047,0.041239988274138696,-0.22426943258918525,0.08085132309550618,5.0
0.4738625169815494,-0.8104341681189674,-0.3469266241321577,0.11445395135008726,0.1832792585140842,0.0035040706673950244,5.0
0.42753432775872446,-0.7580172014142381,-0.3171451969807579,0.04850087731908711,0.1122236780098576,-0.004637745949319613,5.0
0.39805304769116673,-0.7475337805471559,-0.3270723007488891,0.05213132138031462,0.10568982694672176,-0.01176183490708657,5.0
0.3854180869940333,-0.7632589118477792,-0.32376330477518084,0.051526247831356724,0.0615863671357178,0.016734521311886835,5.0
0.3896297405597444,-0.7475337805471559,-0.3336904085433119,0.042450137217041245,-0.008652485721169997,0.05947905467058302,5.0
0.3896297405597444,-0.7789839972715087,-0.3336904085433119,0.06544295121917891,0.03871790335695506,0.04014224156355524,5.0
0.3812064334283218,-0.7894673722616968,-0.3469266241321577,0.04668565482722666,0.03463424893286394,0.014699067351660957,5.0
0.3896297405597444,-0.7685005764044262,-0.3336904085433119,0.05757698839464927,0.04606848082224531,-0.010744107248138892,5.0
0.3854180869940333,-0.7422920701136144,-0.34030851633773473,0.04426535878640832,0.01094905470509751,0.010628159431209204,5.0
0.3854180869940333,-0.7422920701136144,-0.34030851633773473,0.036399396192502015,-0.027437293830657215,0.026911791306968996,5.0
0.4064760599301681,-0.7632589118477792,-0.33038135464610047,0.043055209843505776,-0.02988748797933318,0.04014224156355524,5.0
0.39805304769116673,-0.752775490980697,-0.3469266241321577,0.042450137217041245,-0.01518633304875266,0.06965632505357074,5.0
0.3896297405597444,-0.7737422868379673,-0.32376330477518084,0.043055209843505776,-0.010285947241769565,0.051337239605490644,5.0
0.3896297405597444,-0.7737422868379673,-0.32376330477518084,0.04184506274558998,-0.01926998747284378,0.046248604413996794,5.0
0.3854180869940333,-0.7894673722616968,-0.32376330477518084,0.0345841727781482,-0.03152094825474835,0.044213149096101426,5.0
0.4022644063644566,-0.7737422868379673,-0.3369994624405232,0.04487043325785959,-0.024170370789458086,0.05031951194654298,5.0
0.3896297405597444,-0.7842257077050498,-0.35685372790028874,0.06423280302580224,-0.051939220375203925,0.044213149096101426,5.0
0.3938413941254559,-0.7789839972715087,-0.350235678029369,0.06725817348041602,-0.051122488992311955,0.041159969222502917,5.0
0.3938413941254559,-0.7789839972715087,-0.350235678029369,0.06181250669670471,-0.05602287230892626,0.038106787797282146,5.0
0.3938413941254559,-0.7737422868379673,-0.3469266241321577,0.08541039517029364,-0.07317422138818272,0.03708906168995672,5.0
0.39805304769116673,-0.7632589118477792,-0.3336904085433119,0.10053724588665498,-0.079708067470581,0.044213149096101426,5.0
0.39805304769116673,-0.7632589118477792,-0.3336904085433119,0.08420024807237785,-0.08787538129950077,0.05540814713803683,5.0
0.41068771349587957,-0.7632589118477792,-0.3270723007488891,0.08601546964174493,-0.07807460470479703,0.04319542143715375,5.0
0.4064760599301681,-0.7632589118477792,-0.3171451969807579,0.08783069121111198,-0.09849287931562141,0.07678041245971545,5.0
0.4022644063644566,-0.752775490980697,-0.32376330477518084,0.09025098725193033,-0.08297499300214889,0.0747449571418201,5.0
0.39805304769116673,-0.7475337805471559,-0.3171451969807579,0.08177995018657276,-0.08869210272091765,0.05235496416119381,5.0
0.3938413941254559,-0.7475337805471559,-0.3469266241321577,0.09388143223565121,-0.0903255654867016,0.035053606372061376,5.0
0.4022644063644566,-0.7475337805471559,-0.3601627817975001,0.08238502465802404,-0.07807460470479703,0.05846132701163536,5.0
0.4022644063644566,-0.7422920701136144,-0.3336904085433119,0.0829900991294753,-0.03968825959329935,0.05337269182014147,5.0
0.39805304769116673,-0.7632589118477792,-0.3469266241321577,0.08056980308865697,-0.01926998747284378,0.036071334031009046,5.0
0.4022644063644566,-0.7737422868379673,-0.31383614308354646,0.07875458059679652,-0.024987102172350076,0.03301815260578828,5.0
0.39805304769116673,-0.7475337805471559,-0.35685372790028874,0.08783069121111198,-0.009469215858877587,0.01775224819502338,5.0
0.4064760599301681,-0.7475337805471559,-0.3767080512835575,0.05818206240485385,0.011765785465397296,0.054390419479089167,5.0
0.4064760599301681,-0.7632589118477792,-0.37008994348913443,0.058787136415058436,0.007682131274778251,0.02894724507324209,5.0
0.3812064334283218,-0.7789839972715087,-0.37008994348913443,0.05394654387217507,-0.022536910514042916,0.047266332072944464,5.0
0.3896297405597444,-0.7894673722616968,-0.350235678029369,0.05818206240485385,-0.01926998747284378,0.027929517414294412,5.0
0.4064760599301681,-0.7999507931287789,-0.35685372790028874,0.07693935810493607,0.0011482846476118045,0.05031951194654298,5.0
0.3896297405597444,-0.7789839972715087,-0.36678088959192306,0.07451906206411774,0.007682131274778251,0.027929517414294412,5.0
0.3938413941254559,-0.7894673722616968,-0.35354467400307726,0.075124136535569,0.011765785465397296,0.023858609881748226,5.0
0.3854180869940333,-0.7685005764044262,-0.350235678029369,0.07209876602329938,0.006048669520706609,0.0075749785878467795,5.0
0.3812064334283218,-0.7894673722616968,-0.36678088959192306,0.06544295121917891,0.006048669520706609,0.022840882998611683,5.0
0.3854180869940333,-0.7894673722616968,-0.3634718356947117,0.058787136415058436,-0.011102678624661544,0.035053606372061376,5.0
0.3854180869940333,-0.7737422868379673,-0.3634718356947117,0.06544295121917891,0.0068654004366544424,0.020805429232338583,5.0
0.3854180869940333,-0.7685005764044262,-0.39656231674332265,0.06241758082222097,-0.01518633304875266,0.0014686169011219315,5.0
0.376994779862611,-0.7737422868379673,-0.38001710518076887,0.06423280302580224,-0.009469215858877587,0.0075749785878467795,5.0
0.3727831262968992,-0.7789839972715087,-0.37008994348913443,0.05636683991299341,-0.002118638393587332,0.015716794428750284,5.0
0.42753432775872446,-0.7632589118477792,-0.3469266241321577,0.05818206240485385,-0.008652485721169997,0.010628159431209204,5.0
0.3854180869940333,-0.7737422868379673,-0.3601627817975001,0.042450137217041245,-0.011102678624661544,0.02894724507324209,5.0
0.39805304769116673,-0.7580172014142381,-0.3998713706405343,0.04366028431495704,-0.017636524707059818,0.041159969222502917,5.0
0.3854180869940333,-0.7737422868379673,-0.3767080512835575,0.05999728443546761,-0.047038837058589626,0.0004508892421742551,5.0
0.3812064334283218,-0.7789839972715087,-0.3601627817975001,0.05757698839464927,-0.03152094825474835,0.014699067351660957,5.0
0.3812064334283218,-0.7894673722616968,-0.3733989973863459,0.07209876602329938,-0.03315441102053231,0.005539524433668122,5.0
0.3854180869940333,-0.7789839972715087,-0.37008994348913443,0.06423280302580224,-0.017636524707059818,0.010628159431209204,5.0
0.3812064334283218,-0.7894673722616968,-0.3601627817975001,0.06846832150082519,-0.018453256089951808,0.021823156115475136,5.0
0.3854180869940333,-0.7894673722616968,-0.38001710518076887,0.0630226548900814,-0.04540537429280566,0.023858609881748226,5.0
0.3896297405597444,-0.7894673722616968,-0.36678088959192306,0.0757292100845269,-0.050305757609419986,0.02894724507324209,5.0
0.3854180869940333,-0.7737422868379673,-0.383326101154477,0.0660480252293835,-0.05438941452387986,0.0045217975505315745,5.0
0.3812064334283218,-0.7737422868379673,-0.3866351550516885,0.06483787709366266,-0.0552061409260343,0.03708906168995672,5.0
0.3854180869940333,-0.7999507931287789,-0.38001710518076887,0.07330891404370855,-0.06500691254000049,0.057443599352687655,5.0
0.3896297405597444,-0.7894673722616968,-0.36678088959192306,0.06423280302580224,-0.05602287230892626,0.042177696881450594,5.0
0.3812064334283218,-0.7737422868379673,-0.3634718356947117,0.06241758082222097,-0.043771911527021694,0.04930178428759528,5.0
0.376994779862611,-0.7842257077050498,-0.38001710518076887,0.0630226548900814,-0.021720179131150947,0.0452308767550491,5.0
0.3727831262968992,-0.7632589118477792,-0.37008994348913443,0.05394654387217507,-0.023353639406566117,0.046248604413996794,5.0
0.3854180869940333,-0.7632589118477792,-0.350235678029369,0.06181250669670471,-0.051939220375203925,0.044213149096101426,5.0
0.3812064334283218,-0.7737422868379673,-0.3866351550516885,0.07693935810493607,-0.07317422138818272,0.0635499622031292,5.0
0.3727831262968992,-0.7737422868379673,-0.39656231674332265,0.07028354353143894,-0.051122488992311955,0.06762086973567538,5.0
0.3727831262968992,-0.7737422868379673,-0.3866351550516885,0.06967846952123435,-0.041321717378345765,0.08593995518375552,5.0
0.376994779862611,-0.7737422868379673,-0.3932532628461112,0.05697191438444468,-0.042955180144129725,0.06253223454418154,5.0
0.3896297405597444,-0.7842257077050498,-0.38001710518076887,0.05213132138031462,-0.07480768415396666,0.08797541050165085,5.0
0.36014816559976576,-0.7842257077050498,-0.38001710518076887,0.06120743268650013,-0.06909056945446039,0.07881586777761082,5.0
0.376994779862611,-0.8051925035623204,-0.35685372790028874,0.0630226548900814,-0.07317422138818272,0.07779814011866312,5.0
0.3812064334283218,-0.8156758785525083,-0.3866351550516885,0.04184506274558998,-0.04213844876123776,0.10425904063183564,5.0
0.3896297405597444,-0.7947090826952379,-0.383326101154477,0.041239988274138696,-0.035604602678839456,0.10222358531394025,5.0
0.368571472731188,-0.8051925035623204,-0.4031804245377456,0.03397910015168367,-0.040504985995453796,0.08797541050165085,5.0
0.3643598191654772,-0.8156758785525083,-0.3932532628461112,0.0376095432904178,-0.024987102172350076,0.0757626848007678,5.0
0.36014816559976576,-0.7947090826952379,-0.3932532628461112,0.05697191438444468,-0.00048517687298776306,0.07779814011866312,5.0
0.376994779862611,-0.7894673722616968,-0.3932532628461112,0.05394654387217507,0.01339924729729296,0.08695768284270318,5.0
0.376994779862611,-0.8156758785525083,-0.3998713706405343,0.04547550772931086,-0.002118638393587332,0.03912451390460756,5.0
0.3854180869940333,-0.7842257077050498,-0.3634718356947117,0.0630226548900814,0.015032708817892527,0.048284056628647626,5.0
0.376994779862611,-0.8104341681189674,-0.3866351550516885,0.05273639585176589,0.015849439578192317,0.03708906168995672,5.0
0.3812064334283218,-0.8156758785525083,-0.3866351550516885,0.05394654387217507,0.0011482846476118045,0.027929517414294412,5.0
0.3812064334283218,-0.7947090826952379,-0.3899442089488998,0.051526247831356724,0.027283671467573684,0.05337269182014147,5.0
0.376994779862611,-0.8209175889860495,-0.3932532628461112,0.04971102533949628,0.033817517549971955,0.03708906168995672,5.0
0.3854180869940333,-0.8261592994195907,-0.39656231674332265,0.05394654387217507,0.02973386312588084,0.015716794428750284,5.0
0.368571472731188,-0.8314009639762376,-0.3866351550516885,0.06120743268650013,0.03545098031575592,-0.0005668368651511628,5.0
0.36014816559976576,-0.8156758785525083,-0.37008994348913443,0.06846832150082519,0.024833478564082138,0.0014686169011219315,5.0
0.36014816559976576,-0.8261592994195907,-0.3634718356947117,0.07209876602329938,-0.0037520999141869007,-0.007690925822918125,5.0
0.3812064334283218,-0.836642674409779,-0.3866351550516885,0.07814950704783862,0.02891713298817325,-0.01176183490708657,5.0
0.368571472731188,-0.8209175889860495,-0.3998713706405343,0.09267128513773543,-0.00048517687298776306,-0.020921377631126635,5.0
0.3643598191654772,-0.8314009639762376,-0.4031804245377456,0.10356261824391134,0.010132323789149677,-0.0015845645240988363,5.0
0.3643598191654772,-0.8314009639762376,-0.3767080512835575,0.09811695169082339,0.009315592951025868,-0.010744107248138892,5.0
0.36014816559976576,-0.7999507931287789,-0.4031804245377456,0.12231991209900683,0.00441520800010704,0.0004508892421742551,5.0
0.3475132049026323,-0.8051925035623204,-0.3932532628461112,0.12171484131752904,-0.03233767963764032,0.0014686169011219315,5.0
0.3727831262968992,-0.8261592994195907,-0.38001710518076887,0.11868946896027269,-0.06092326060627815,0.03200042649846286,5.0
0.36014816559976576,-0.8156758785525083,-0.38001710518076887,0.12776557865209479,-0.06337344977421652,0.056425874796984535,5.0
0.3475132049026323,-0.7894673722616968,-0.38001710518076887,0.10295754377246008,-0.10829364594885003,0.057443599352687655,5.0
0.339089897771209,-0.7789839972715087,-0.40979847440866524,0.0908560617233816,-0.1287119205596744,0.08492222752480783,5.0
0.3517248584683431,-0.7737422868379673,-0.3932532628461112,0.09388143223565121,-0.12707845779389043,0.12563130905675876,5.0
0.36014816559976576,-0.7737422868379673,-0.406489478434957,0.07814950704783862,-0.15974768322514427,0.13580857323325746,5.0
0.368571472731188,-0.8051925035623204,-0.41972563610029967,0.05757698839464927,-0.11809442254355378,0.15412765868133754,5.0
0.3727831262968992,-0.7947090826952379,-0.43296185168914547,0.06120743268650013,-0.10747691456595804,0.17448219944731302,5.0
0.376994779862611,-0.8104341681189674,-0.4296527977919339,0.07270383957225729,-0.09195902825248559,0.16430493527081433,5.0
0.3896297405597444,-0.7999507931287789,-0.42634374389472235,0.06181250669670471,-0.10175980484718931,0.16430493527081433,5.0
0.4022644063644566,-0.7842257077050498,-0.39656231674332265,0.055156691892584236,-0.08134153023636495,0.12563130905675876,5.0
0.39805304769116673,-0.7999507931287789,-0.4131075283058766,0.0678632474906206,-0.04540537429280566,0.11748948778517734,5.0
0.3727831262968992,-0.7999507931287789,-0.40979847440866524,0.047895803770129204,0.0035984769285111588,0.10934767892657402,5.0
0.376994779862611,-0.7894673722616968,-0.4164165822030881,0.04668565482722666,-0.01518633304875266,0.06049678232953071,5.0
0.376994779862611,-0.7842257077050498,-0.3932532628461112,0.03276895120878113,-0.010285947241769565,0.05337269182014147,5.0
0.3854180869940333,-0.7947090826952379,-0.4131075283058766,0.02490298861487483,0.0166661703384921,0.054390419479089167,5.0
0.3854180869940333,-0.7789839972715087,-0.4131075283058766,-0.017452198556899792,0.037901171974063064,0.027929517414294412,5.0
0.3727831262968992,-0.7842257077050498,-0.3932532628461112,-0.036814566883446545,0.06321982990150177,0.0635499622031292,5.0
0.3727831262968992,-0.7842257077050498,-0.3932532628461112,-0.0398399392407029,0.05260232690464357,0.051337239605490644,5.0
0.3643598191654772,-0.7999507931287789,-0.3899442089488998,-0.05557186073854203,0.026466940084681704,0.030982698839515183,5.0
0.3727831262968992,-0.8156758785525083,-0.39656231674332265,-0.02592323377727064,0.05260232690464357,0.0075749785878467795,5.0
0.3727831262968992,-0.8156758785525083,-0.39656231674332265,-0.0029304186220162455,0.08282136814869658,0.0035040706673950244,5.0
0.3643598191654772,-0.836642674409779,-0.37008994348913443,-0.00535071650782133,0.07547079068340631,-0.009726379589191217,5.0
0.3517248584683431,-0.8261592994195907,-0.3998713706405343,-0.005955790979272615,0.07302059653473038,-0.0005668368651511628,5.0
0.3517248584683431,-0.8261592994195907,-0.3998713706405343,-0.014426826199643436,0.10160617999373699,-0.004637745949319613,5.0
0.376994779862611,-0.836642674409779,-0.38001710518076887,-0.00535071650782133,0.08282136814869658,0.0045217975505315745,5.0
0.368571472731188,-0.8261592994195907,-0.3932532628461112,-0.0241080103629168,0.06403656128439374,0.019787702349202036,5.0
0.368571472731188,-0.8261592994195907,-0.3932532628461112,-0.01140145384238708,0.060769635752825804,0.014699067351660957,5.0
0.35593651203405424,-0.8261592994195907,-0.40979847440866524,-0.013216677256740894,0.04851867248055247,0.0035040706673950244,5.0
0.36014816559976576,-0.8418843848433201,-0.42634374389472235,-0.018057273028351063,0.060769635752825804,0.015716794428750284,5.0
0.36014816559976576,-0.8418843848433201,-0.42634374389472235,0.002515247931071721,0.02810040285046566,0.005539524433668122,5.0
0.368571472731188,-0.8261592994195907,-0.40979847440866524,0.0013051026781426525,-0.026620564938134042,-0.04840000270000228,5.0
0.3475132049026323,-0.8418843848433201,-0.37008994348913443,0.0188522475903356,-0.035604602678839456,-0.0809672691668608,5.0
0.34330155133692014,-0.8156758785525083,-0.38001710518076887,0.036399396192502015,-0.06337344977421652,-0.055524096312636016,5.0
0.34330155133692014,-0.8261592994195907,-0.3866351550516885,0.05636683991299341,-0.12136133811364658,-0.0697722711249254,5.0
0.35593651203405424,-0.8104341681189674,-0.3767080512835575,0.05576176636403551,-0.12217806949653856,-0.038222735420259044,5.0
0.3517248584683431,-0.8104341681189674,-0.3932532628461112,0.05455161834362634,-0.12299480087943056,-0.044329098270700584,5.0
0.36014816559976576,-0.8209175889860495,-0.42303468999751104,0.0660480252293835,-0.12136133811364658,-0.026010012822620488,5.0
0.368571472731188,-0.8471260952768612,-0.43296185168914547,0.0757292100845269,-0.09277575963537754,-0.023974557504725123,5.0
0.368571472731188,-0.8576094702670494,-0.41972563610029967,0.10840321032554802,-0.079708067470581,-0.016850470098580435,5.0
0.3643598191654772,-0.8471260952768612,-0.42303468999751104,0.10416769271536262,-0.08379172438504089,-0.03109864801411437,5.0
0.3727831262968992,-0.836642674409779,-0.406489478434957,0.12231991209900683,-0.03805479682751541,-0.0056554720566450245,5.0
0.3854180869940333,-0.8576094702670494,-0.42303468999751104,0.1404721351726245,0.033817517549971955,-0.04840000270000228,5.0
0.39805304769116673,-0.836642674409779,-0.42303468999751104,0.12837065312354604,0.06893694460100804,-0.04229364295280524,5.0
0.3896297405597444,-0.7947090826952379,-0.3932532628461112,0.13260617442370495,0.07955444261712868,-0.08707362891405784,5.0
0.3727831262968992,-0.7894673722616968,-0.40979847440866524,0.1156641002929898,0.059952904369933835,-0.0748609094196638,5.0
0.36014816559976576,-0.7894673722616968,-0.40979847440866524,0.10356261824391134,0.06403656128439374,-0.0514531856768453,5.0
0.3643598191654772,-0.7737422868379673,-0.40979847440866524,0.10961335926845057,0.043618289163938166,-0.060612728400885364,5.0
0.3727831262968992,-0.7685005764044262,-0.40979847440866524,0.12776557865209479,0.02238328690577498,-0.052470913335792964,5.0
0.376994779862611,-0.7842257077050498,-0.3998713706405343,0.1386569117582707,0.0370844405911711,-0.07180772644282075,5.0
0.368571472731188,-0.7894673722616968,-0.39656231674332265,0.1271605041806435,0.0411680950152622,-0.04127591529385757,5.0
0.368571472731188,-0.7737422868379673,-0.4031804245377456,0.13018587653789987,0.02973386312588084,-0.0697722711249254,5.0
0.36014816559976576,-0.7947090826952379,-0.3932532628461112,0.1289757275949973,0.01258251622569708,-0.03720500776131138,5.0
0.36014816559976576,-0.7789839972715087,-0.406489478434957,0.09811695169082339,0.01993309400228343,-0.026010012822620488,5.0
0.36014816559976576,-0.7947090826952379,-0.40979847440866524,0.07330891404370855,0.021566555522883,-0.024992285163672825,5.0
0.35593651203405424,-0.7685005764044262,-0.40979847440866524,0.07028354353143894,0.018299632481683863,-0.009726379589191217,5.0
0.368571472731188,-0.7737422868379673,-0.43296185168914547,0.058787136415058436,0.02973386312588084,0.0045217975505315745,5.0
0.376994779862611,-0.7737422868379673,-0.42303468999751104,0.06241758082222097,0.02238328690577498,-0.01888592231323127,5.0
0.35593651203405424,-0.7842257077050498,-0.406489478434957,0.0533414694007238,-0.002118638393587332,-0.019903649972178947,5.0
0.3643598191654772,-0.7737422868379673,-0.41972563610029967,0.07875458059679652,-0.0029353697764793085,-0.01176183490708657,5.0
0.3727831262968992,-0.7894673722616968,-0.41972563610029967,0.06060235867629554,-0.007835754338278019,-0.022956829845777463,5.0
0.376994779862611,-0.7737422868379673,-0.41972563610029967,0.04971102533949628,-0.010285947241769565,0.01164588641132214,5.0
0.3812064334283218,-0.7842257077050498,-0.4164165822030881,0.0345841727781482,-0.01926998747284378,0.021823156115475136,5.0
0.368571472731188,-0.7685005764044262,-0.41972563610029967,0.02853343175360897,-0.03152094825474835,0.02894724507324209,5.0
0.36014816559976576,-0.7685005764044262,-0.4164165822030881,0.035794321721050744,-0.06010652922338616,0.051337239605490644,5.0
0.3643598191654772,-0.7475337805471559,-0.42303468999751104,0.027323286500679902,-0.07235749000529072,0.06049678232953071,5.0
0.36014816559976576,-0.7580172014142381,-0.42303468999751104,0.04729072929867793,-0.06582364392289246,0.06151450998847838,5.0
0.3727831262968992,-0.7632589118477792,-0.4131075283058766,0.043055209843505776,-0.04948902622652799,0.05031951194654298,5.0
0.3812064334283218,-0.7632589118477792,-0.406489478434957,0.05213132138031462,-0.06173999198917012,0.09102859347849387,5.0
0.3896297405597444,-0.7685005764044262,-0.3998713706405343,0.042450137217041245,-0.02825402521354921,0.014699067351660957,5.0
0.3896297405597444,-0.7632589118477792,-0.40979847440866524,0.03216387858231659,0.00441520800010704,0.01164588641132214,5.0
0.3896297405597444,-0.7737422868379673,-0.39656231674332265,0.04668565482722666,0.023200017043482565,-0.019903649972178947,5.0
0.376994779862611,-0.7685005764044262,-0.3932532628461112,0.026113137557777354,0.0313673258916648,-0.03109864801411437,5.0
0.376994779862611,-0.7737422868379673,-0.3998713706405343,0.020667471004689412,0.059952904369933835,-0.0748609094196638,5.0
0.376994779862611,-0.7842257077050498,-0.41972563610029967,0.00796091448415968,0.07792098483208226,-0.05857727308299001,5.0
0.376994779862611,-0.7685005764044262,-0.406489478434957,0.02490298861487483,0.06812021321811607,-0.0636659113777284,5.0
0.368571472731188,-0.7737422868379673,-0.40979847440866524,0.03216387858231659,0.0820046367658046,-0.09419771632020253,5.0
0.36014816559976576,-0.7789839972715087,-0.40979847440866524,0.04547550772931086,0.06485328768654815,-0.07180772644282075,5.0
0.368571472731188,-0.7737422868379673,-0.40979847440866524,0.04184506274558998,0.06812021321811607,-0.09928635461494092,5.0
0.36014816559976576,-0.7947090826952379,-0.43296185168914547,0.03337402568023241,0.0762875220662983,-0.0880913565730055,5.0
0.368571472731188,-0.7999507931287789,-0.42634374389472235,0.027323286500679902,0.08527156229737251,-0.0880913565730055,5.0
0.36014816559976576,-0.8051925035623204,-0.43296185168914547,0.014616729980150176,0.0664867504523321,-0.09419771632020253,5.0
0.3643598191654772,-0.7789839972715087,-0.40979847440866524,0.017037024175981786,0.099972717227953,-0.05654182397158369,5.0
0.3643598191654772,-0.7894673722616968,-0.41972563610029967,0.04426535878640832,0.07220386515183842,-0.04127591529385757,5.0
0.3517248584683431,-0.7685005764044262,-0.40979847440866524,0.03821461776186909,0.08935521423109485,-0.04127591529385757,5.0
0.36014816559976576,-0.752775490980697,-0.4164165822030881,0.05939221042526303,0.05015213524633643,-0.022956829845777463,5.0
0.3643598191654772,-0.7737422868379673,-0.40979847440866524,0.07209876602329938,0.018299632481683863,-0.0087086534818658,5.0
0.376994779862611,-0.7842257077050498,-0.3866351550516885,0.08117487756010823,0.025650209946974114,-0.01176183490708657,5.0
0.368571472731188,-0.7789839972715087,-0.3866351550516885,0.07451906206411774,0.006048669520706609,-0.0015845645240988363,5.0
0.368571472731188,-0.7737422868379673,-0.3998713706405343,0.06423280302580224,-0.008652485721169997,0.0004508892421742551,5.0
0.376994779862611,-0.752775490980697,-0.41972563610029967,0.08177995018657276,0.019116362619391453,0.0024863437842584774,5.0
0.376994779862611,-0.7422920701136144,-0.43627084766285346,0.07028354353143894,0.023200017043482565,0.0075749785878467795,5.0
0.3727831262968992,-0.7632589118477792,-0.42634374389472235,0.05092117335990545,0.04606848082224531,-0.01176183490708657,5.0
0.3727831262968992,-0.7475337805471559,-0.4296527977919339,0.05273639585176589,0.05341905828753556,-0.004637745949319613,5.0
0.3812064334283218,-0.7632589118477792,-0.3899442089488998,0.04971102533949628,0.0411680950152622,0.019787702349202036,5.0
0.3896297405597444,-0.7632589118477792,-0.406489478434957,0.04366028431495704,0.0411680950152622,0.010628159431209204,5.0
0.368571472731188,-0.7580172014142381,-0.3932532628461112,0.0533414694007238,0.07302059653473038,0.01775224819502338,5.0
0.376994779862611,-0.7632589118477792,-0.42303468999751104,0.06725817348041602,0.0909886769968788,0.009610432354119873,5.0
0.3812064334283218,-0.7632589118477792,-0.40979847440866524,0.051526247831356724,0.07955444261712868,0.0075749785878467795,5.0
0.3854180869940333,-0.7632589118477792,-0.42634374389472235,0.05576176636403551,0.0934388661648172,0.016734521311886835,5.0
0.3727831262968992,-0.7632589118477792,-0.3932532628461112,0.05394654387217507,0.0909886769968788,-0.009726379589191217,5.0
0.376994779862611,-0.7370504055569674,-0.406489478434957,0.0370044706639533,0.05341905828753556,-0.009726379589191217,5.0
0.368571472731188,-0.7318086951234264,-0.406489478434957,0.03216387858231659,0.0885384828482029,-0.024992285163672825,5.0
0.376994779862611,-0.7265669846898853,-0.406489478434957,0.01522180445160144,0.09180540837977079,-0.05450636865368833,5.0
0.376994779862611,-0.7318086951234264,-0.42634374389472235,0.035189247249599466,0.11630733492431748,-0.021939105290074305,5.0
0.368571472731188,-0.7370504055569674,-0.406489478434957,0.0400298411762229,0.1718450291150716,-0.04331137061175292,5.0
0.368571472731188,-0.7632589118477792,-0.41972563610029967,0.02853343175360897,0.14815983893415444,-0.05755954542404231,5.0
0.3727831262968992,-0.7580172014142381,-0.4131075283058766,0.043055209843505776,0.13264195262068196,-0.044329098270700584,5.0
0.3727831262968992,-0.7580172014142381,-0.4131075283058766,0.03942476670477164,0.12855829570622207,-0.055524096312636016,5.0
0.368571472731188,-0.7265669846898853,-0.3899442089488998,0.024297914143423544,0.13345868400357394,-0.03415182788771286,5.0
0.368571472731188,-0.7475337805471559,-0.3932532628461112,0.06120743268650013,0.11140694662696561,-0.03720500776131138,5.0
0.3812064334283218,-0.752775490980697,-0.40979847440866524,0.058787136415058436,0.09833925446216907,-0.028045465037271317,5.0
0.3643598191654772,-0.7475337805471559,-0.42303468999751104,0.07814950704783862,0.0885384828482029,-0.035169555546660555,5.0
0.3727831262968992,-0.7422920701136144,-0.40979847440866524,0.05697191438444468,0.09262213478192521,-0.0036200182903719335,5.0
0.36014816559976576,-0.7370504055569674,-0.38001710518076887,0.0370044706639533,0.058319441604149876,0.008592705470983324,5.0
0.36014816559976576,-0.7370504055569674,-0.38001710518076887,0.04608058035577539,0.032184057274556775,0.008592705470983324,5.0
0.3812064334283218,-0.7370504055569674,-0.38001710518076887,0.051526247831356724,0.005231938760406824,0.05540814713803683,5.0
0.3812064334283218,-0.7160836096996973,-0.37008994348913443,0.049105950868045006,0.0166661703384921,0.027929517414294412,5.0
0.3854180869940333,-0.7370504055569674,-0.38001710518076887,0.05031609981094755,-0.001301908255879742,0.021823156115475136,5.0
0.4064760599301681,-0.7265669846898853,-0.39656231674332265,0.0660480252293835,0.011765785465397296,0.0075749785878467795,5.0
0.39805304769116673,-0.7265669846898853,-0.40979847440866524,0.08117487756010823,0.03300078616707998,0.0024863437842584774,5.0
0.4064760599301681,-0.7422920701136144,-0.39656231674332265,0.07754443257638735,0.05668598381910347,-0.0514531856768453,5.0
0.4064760599301681,-0.7475337805471559,-0.3767080512835575,0.10598291243974296,0.050968864138859635,-0.059595000741937666,5.0
0.39805304769116673,-0.7475337805471559,-0.38001710518076887,0.09327635776419996,0.06403656128439374,-0.07384318176071612,5.0
0.3896297405597444,-0.7370504055569674,-0.383326101154477,0.08964591462546583,0.05913617298704187,-0.06875454346597774,5.0
0.3896297405597444,-0.7056001888326148,-0.3932532628461112,0.10356261824391134,0.023200017043482565,-0.07180772644282075,5.0
0.3854180869940333,-0.7003584783990736,-0.383326101154477,0.07633428455597817,0.02074982413999102,-0.055524096312636016,5.0
0.36014816559976576,-0.7108418992661558,-0.3866351550516885,0.05999728443546761,0.03545098031575592,-0.047382281247543616,5.0
0.376994779862611,-0.7265669846898853,-0.3932532628461112,0.05939221042526303,0.015849439578192317,0.014699067351660957,5.0
0.376994779862611,-0.7213252742563443,-0.3899442089488998,0.0533414694007238,-0.03397113991305552,0.013681340371548018,5.0
0.376994779862611,-0.7213252742563443,-0.383326101154477,0.06665309923958808,-0.047038837058589626,0.016734521311886835,5.0
0.3812064334283218,-0.7265669846898853,-0.3601627817975001,0.05455161834362634,-0.022536910514042916,0.0035040706673950244,5.0
0.376994779862611,-0.7108418992661558,-0.38001710518076887,0.04608058035577539,-0.02988748797933318,0.027929517414294412,5.0
0.39805304769116673,-0.7108418992661558,-0.3601627817975001,0.04487043325785959,-0.03233767963764032,0.0075749785878467795,5.0
0.3896297405597444,-0.7108418992661558,-0.38001710518076887,0.04184506274558998,-0.04540537429280566,0.051337239605490644,5.0
0.4022644063644566,-0.7265669846898853,-0.4031804245377456,0.04063491380268743,-0.010285947241769565,0.006557251316804668,5.0
0.39805304769116673,-0.7108418992661558,-0.3899442089488998,0.043055209843505776,-0.01191940876236913,0.03912451390460756,5.0
0.39805304769116673,-0.6898751034088856,-0.383326101154477,0.041239988274138696,0.02891713298817325,0.0045217975505315745,5.0
0.39805304769116673,-0.6951168138424266,-0.406489478434957,0.025508063086326097,0.0411680950152622,0.01164588641132214,5.0
0.3812064334283218,-0.7108418992661558,-0.3899442089488998,0.026113137557777354,0.019116362619391453,0.020805429232338583,5.0
0.3812064334283218,-0.6951168138424266,-0.3767080512835575,0.03155880411086533,-0.002118638393587332,0.041159969222502917,5.0
0.3938413941254559,-0.6898751034088856,-0.3767080512835575,0.023087765200521002,-0.01191940876236913,0.030982698839515183,5.0
0.3812064334283218,-0.6898751034088856,-0.38001710518076887,0.021877619947591957,-0.023353639406566117,0.016734521311886835,5.0
0.376994779862611,-0.6951168138424266,-0.37008994348913443,0.01522180445160144,-0.058473066457602196,0.0716917803714661,5.0
0.376994779862611,-0.7003584783990736,-0.36678088959192306,0.017037024175981786,-0.05683960369181826,0.09204631493095254,5.0
0.35593651203405424,-0.6898751034088856,-0.36678088959192306,0.01159135762289382,-0.0944092224011615,0.11240085569692801,5.0
0.376994779862611,-0.7003584783990736,-0.36678088959192306,0.01522180445160144,-0.09604268516694547,0.11850721544412501,5.0
0.3812064334283218,-0.7003584783990736,-0.38001710518076887,-0.003535493093467517,-0.12707845779389043,0.11341858335587567,5.0
0.3938413941254559,-0.7108418992661558,-0.37008994348913443,0.010986286841416016,-0.079708067470581,0.09204631493095254,5.0
0.3812064334283218,-0.7265669846898853,-0.3932532628461112,-0.0005101207362111609,-0.08297499300214889,0.0930640425899002,5.0
0.39805304769116673,-0.7003584783990736,-0.39656231674332265,-0.021082638005660445,-0.051939220375203925,0.06049678232953071,5.0
0.376994779862611,-0.7370504055569674,-0.39656231674332265,-0.022292786948562987,-0.05765633507471023,0.09001086581954622,5.0
0.4022644063644566,-0.752775490980697,-0.3866351550516885,-0.0241080103629168,-0.021720179131150947,0.044213149096101426,5.0
0.41489936706159036,-0.7632589118477792,-0.41972563610029967,-0.021082638005660445,0.014215978057592742,0.005539524433668122,5.0
0.39805304769116673,-0.752775490980697,-0.41972563610029967,-0.0011151952076624183,0.06321982990150177,-0.0026022906314242572,5.0
0.39805304769116673,-0.7475337805471559,-0.40979847440866524,0.024297914143423544,0.09833925446216907,-0.04840000270000228,5.0
0.368571472731188,-0.7370504055569674,-0.40979847440866524,0.03397910015168367,0.11712406630720948,-0.0087086534818658,5.0
0.3643598191654772,-0.7370504055569674,-0.3932532628461112,0.02853343175360897,0.08445483091448054,-0.017868194654283593,5.0
0.3854180869940333,-0.7108418992661558,-0.4031804245377456,0.030348655167962785,0.09017194561398685,-0.010744107248138892,5.0
0.368571472731188,-0.7265669846898853,-0.3932532628461112,0.027928357282157704,0.12855829570622207,-0.04534682592964829,5.0
0.376994779862611,-0.7370504055569674,-0.3899442089488998,0.02974358069651152,0.0934388661648172,-0.01888592231323127,5.0
0.368571472731188,-0.7108418992661558,-0.40979847440866524,0.02490298861487483,0.05913617298704187,-0.024992285163672825,5.0
0.368571472731188,-0.7213252742563443,-0.42634374389472235,0.02369283967197228,0.07792098483208226,0.016734521311886835,5.0
0.376994779862611,-0.7213252742563443,-0.41972563610029967,0.02853343175360897,0.08363809953158856,0.009610432354119873,5.0
0.3854180869940333,-0.7475337805471559,-0.40979847440866524,0.03821461776186909,0.10814002109539769,0.01164588641132214,5.0
0.376994779862611,-0.7370504055569674,-0.39656231674332265,0.05697191438444468,0.0877217514653109,0.0004508892421742551,5.0
0.368571472731188,-0.7213252742563443,-0.40979847440866524,0.05092117335990545,0.0820046367658046,-0.0087086534818658,5.0
0.376994779862611,-0.7265669846898853,-0.39656231674332265,0.035189247249599466,0.06567001906944014,-0.0056554720566450245,5.0
0.3727831262968992,-0.7370504055569674,-0.3601627817975001,0.07270383957225729,0.04525174943935334,0.016734521311886835,5.0
0.376994779862611,-0.7265669846898853,-0.3899442089488998,0.08238502465802404,0.04851867248055247,-0.0005668368651511628,5.0
0.3896297405597444,-0.7265669846898853,-0.3767080512835575,0.07935965414575442,0.03545098031575592,-0.0056554720566450245,5.0
0.3812064334283218,-0.7265669846898853,-0.3899442089488998,0.07149369155184812,0.05260232690464357,-0.0005668368651511628,5.0
0.368571472731188,-0.7056001888326148,-0.3634718356947117,0.08117487756010823,0.04280155778104617,0.016734521311886835,5.0
0.368571472731188,-0.7056001888326148,-0.3634718356947117,0.06060235867629554,0.032184057274556775,0.038106787797282146,5.0
0.39805304769116673,-0.7213252742563443,-0.383326101154477,0.0829900991294753,0.05668598381910347,0.048284056628647626,5.0
0.4022644063644566,-0.7265669846898853,-0.36678088959192306,0.0993271006337259,0.0673034818352241,0.030982698839515183,5.0
0.3896297405597444,-0.7265669846898853,-0.3733989973863459,0.09267128513773543,0.05260232690464357,0.006557251316804668,5.0
0.3896297405597444,-0.7108418992661558,-0.3932532628461112,0.10053724588665498,0.059952904369933835,0.027929517414294412,5.0
0.3812064334283218,-0.7003584783990736,-0.38001710518076887,0.11505902582153855,0.057502710221257906,0.026911791306968996,5.0
0.376994779862611,-0.7160836096996973,-0.3866351550516885,0.12595035523774095,0.04851867248055247,0.009610432354119873,5.0
0.3896297405597444,-0.7003584783990736,-0.383326101154477,0.11989961790317523,0.0019650154079115913,0.0004508892421742551,5.0
0.3854180869940333,-0.7003584783990736,-0.3634718356947117,0.10295754377246008,-0.0045688312970788795,0.0045217975505315745,5.0
0.3896297405597444,-0.6951168138424266,-0.37008994348913443,0.11929454343172394,-0.0045688312970788795,-0.007690925822918125,5.0
0.3896297405597444,-0.7056001888326148,-0.39656231674332265,0.10779813585409675,0.0027817461682113757,0.019787702349202036,5.0
0.3896297405597444,-0.6951168138424266,-0.3899442089488998,0.1156641002929898,0.01094905470509751,0.020805429232338583,5.0
0.3812064334283218,-0.7213252742563443,-0.3866351550516885,0.0956966538050183,0.01094905470509751,0.024876337540695903,5.0
0.376994779862611,-0.6951168138424266,-0.3899442089488998,0.09146113619483288,-0.007835754338278019,0.023858609881748226,5.0
0.3896297405597444,-0.7108418992661558,-0.383326101154477,0.10235246930100879,-0.024170370789458086,0.018769975466065493,5.0
0.3854180869940333,-0.7003584783990736,-0.383326101154477,0.10416769271536262,-0.026620564938134042,0.023858609881748226,5.0
0.39805304769116673,-0.7056001888326148,-0.3767080512835575,0.0975118772193721,-0.02988748797933318,0.03403588026473595,5.0
0.3896297405597444,-0.7056001888326148,-0.37008994348913443,0.09872202616227466,-0.042955180144129725,0.0452308767550491,5.0
0.376994779862611,-0.7265669846898853,-0.38001710518076887,0.09993217141520373,-0.02907075659644118,0.03912451390460756,5.0
0.3896297405597444,-0.7003584783990736,-0.38001710518076887,0.0993271006337259,-0.03805479682751541,0.044213149096101426,5.0
0.41489936706159036,-0.7265669846898853,-0.3998713706405343,0.09388143223565121,-0.0037520999141869007,0.030982698839515183,5.0
0.41068771349587957,-0.7213252742563443,-0.36678088959192306,0.09327635776419996,-0.0037520999141869007,0.016734521311886835,5.0
0.3896297405597444,-0.7265669846898853,-0.383326101154477,0.0678632474906206,-0.016003061941275862,0.010628159431209204,5.0
0.368571472731188,-0.6846333929753441,-0.3932532628461112,0.07451906206411774,-0.02008671636536698,0.03912451390460756,5.0
0.368571472731188,-0.7108418992661558,-0.3899442089488998,0.07935965414575442,-0.01681979332416784,0.04930178428759528,5.0
0.376994779862611,-0.7108418992661558,-0.39656231674332265,0.06544295121917891,-0.009469215858877587,0.05947905467058302,5.0
0.3727831262968992,-0.7003584783990736,-0.406489478434957,0.07875458059679652,0.0011482846476118045,0.021823156115475136,5.0
0.3896297405597444,-0.7003584783990736,-0.3932532628461112,0.07693935810493607,0.00441520800010704,0.021823156115475136,5.0
0.3896297405597444,-0.7160836096996973,-0.39656231674332265,0.0757292100845269,-0.002118638393587332,0.02894724507324209,5.0
0.3896297405597444,-0.7265669846898853,-0.3932532628461112,0.06544295121917891,0.024833478564082138,0.047266332072944464,5.0
0.376994779862611,-0.7685005764044262,-0.3866351550516885,0.07451906206411774,0.0068654004366544424,0.05337269182014147,5.0
0.3727831262968992,-0.7475337805471559,-0.3866351550516885,0.08964591462546583,-0.006202292817678446,0.06151450998847838,5.0
0.376994779862611,-0.7475337805471559,-0.3866351550516885,0.09811695169082339,-0.013552870282968702,0.06762086973567538,5.0
0.368571472731188,-0.7003584783990736,-0.3767080512835575,0.11989961790317523,-0.037238065444623415,0.07270950803041377,5.0
0.368571472731188,-0.7265669846898853,-0.38001710518076887,0.1295808020664486,-0.05275595175809592,0.0716917803714661,5.0
0.376994779862611,-0.7370504055569674,-0.4164165822030881,0.12534528445626317,-0.04213844876123776,0.048284056628647626,5.0
0.3854180869940333,-0.7265669846898853,-0.406489478434957,0.1295808020664486,-0.03315441102053231,0.07067405271251843,5.0
0.3854180869940333,-0.7265669846898853,-0.406489478434957,0.11687424554591887,-0.024170370789458086,0.07270950803041377,5.0
0.39805304769116673,-0.7370504055569674,-0.38001710518076887,0.1162691710744676,-0.024987102172350076,0.07983359543655848,5.0
0.3896297405597444,-0.7318086951234264,-0.38001710518076887,0.12776557865209479,-0.05357268314098789,0.029964972732189774,5.0
0.3896297405597444,-0.7318086951234264,-0.38001710518076887,0.13321124889515623,-0.07154075862239877,0.0452308767550491,5.0
0.3812064334283218,-0.7422920701136144,-0.3899442089488998,0.14833809592154407,-0.06582364392289246,0.04319542143715375,5.0
0.3812064334283218,-0.752775490980697,-0.3932532628461112,0.15499391510750804,-0.05765633507471023,0.08899313816059855,5.0
0.3812064334283218,-0.752775490980697,-0.3932532628461112,0.14833809592154407,-0.035604602678839456,0.06762086973567538,5.0
0.3938413941254559,-0.7422920701136144,-0.41972563610029967,0.14833809592154407,-0.042955180144129725,0.0757626848007678,5.0
0.3854180869940333,-0.7475337805471559,-0.406489478434957,0.15136346827880043,-0.03152094825474835,0.07270950803041377,5.0
0.376994779862611,-0.7370504055569674,-0.43296185168914547,0.14894317039299534,-0.0756244105561211,0.07067405271251843,5.0
0.376994779862611,-0.7580172014142381,-0.383326101154477,0.13986706070117325,-0.07644114193901308,0.05337269182014147,5.0
0.368571472731188,-0.7580172014142381,-0.3932532628461112,0.14894317039299534,-0.08787538129950077,0.06253223454418154,5.0
0.3643598191654772,-0.7842257077050498,-0.406489478434957,0.15620406405041062,-0.08542518715082487,0.08899313816059855,5.0
0.368571472731188,-0.7789839972715087,-0.3866351550516885,0.15862435455626872,-0.07807460470479703,0.07067405271251843,5.0
0.376994779862611,-0.7789839972715087,-0.3899442089488998,0.14652287988713722,-0.08134153023636495,0.0716917803714661,5.0
0.3896297405597444,-0.7737422868379673,-0.3866351550516885,0.1428924330584296,-0.0903255654867016,0.08288677220691247,5.0
0.376994779862611,-0.7580172014142381,-0.3866351550516885,0.12776557865209479,-0.09114229686959359,0.054390419479089167,5.0
0.3727831262968992,-0.7999507931287789,-0.4031804245377456,0.1386569117582707,-0.08297499300214889,0.04319542143715375,5.0
0.3854180869940333,-0.7894673722616968,-0.4164165822030881,0.16164972691352508,-0.09195902825248559,0.07372722948287243,5.0
0.3896297405597444,-0.7789839972715087,-0.41972563610029967,0.15983450349917125,-0.06909056945446039,0.035053606372061376,5.0
0.3896297405597444,-0.7894673722616968,-0.3998713706405343,0.16225480138497636,-0.04540537429280566,0.03200042649846286,5.0
0.3896297405597444,-0.7842257077050498,-0.39656231674332265,0.1743562834340548,-0.02008671636536698,0.015716794428750284,5.0
0.3727831262968992,-0.8104341681189674,-0.4164165822030881,0.1767765813198599,-0.03315441102053231,-0.004637745949319613,5.0
0.376994779862611,-0.8104341681189674,-0.41972563610029967,0.17738165579131115,0.00033155388731202014,-0.0056554720566450245,5.0
0.368571472731188,-0.8104341681189674,-0.3998713706405343,0.18161716971152309,-0.0029353697764793085,-0.0026022906314242572,5.0
0.368571472731188,-0.8261592994195907,-0.3932532628461112,0.185852691011682,0.0068654004366544424,-0.050435458017897644,5.0
0.36014816559976576,-0.7894673722616968,-0.42634374389472235,0.18343239312587692,0.027283671467573684,-0.0636659113777284,5.0
0.368571472731188,-0.7999507931287789,-0.41972563610029967,0.17375120896260354,0.007682131274778251,-0.050435458017897644,5.0
0.376994779862611,-0.8104341681189674,-0.4031804245377456,0.19371865914054853,0.021566555522883,-0.10335726525073163,5.0
0.3727831262968992,-0.7894673722616968,-0.43296185168914547,0.17798673026276246,-0.0029353697764793085,-0.06163045605983303,5.0
0.3727831262968992,-0.7894673722616968,-0.42303468999751104,0.1822222441829744,-0.02008671636536698,-0.07994954150791314,5.0
0.3643598191654772,-0.7737422868379673,-0.4164165822030881,0.15862435455626872,-0.03887152821040738,-0.0402581876349099,5.0
0.3643598191654772,-0.7947090826952379,-0.4164165822030881,0.16649032268513525,-0.03805479682751541,-0.06570136669562372,5.0
0.3727831262968992,-0.7842257077050498,-0.4131075283058766,0.18040702076862056,-0.0552061409260343,-0.08402045214370386,5.0
0.368571472731188,-0.7999507931287789,-0.42634374389472235,0.18645776548313328,-0.025803833555242055,-0.0636659113777284,5.0
0.3475132049026323,-0.7894673722616968,-0.42303468999751104,0.17072583660534718,-0.01926998747284378,-0.0514531856768453,5.0
0.3475132049026323,-0.7894673722616968,-0.42303468999751104,0.15075839380734915,-0.03478787129594749,-0.04331137061175292,5.0
0.36014816559976576,-0.7947090826952379,-0.42303468999751104,0.14168228411552705,-0.058473066457602196,-0.04331137061175292,5.0
0.368571472731188,-0.7894673722616968,-0.41972563610029967,0.12171484131752904,-0.024987102172350076,-0.028045465037271317,5.0
0.368571472731188,-0.7894673722616968,-0.41972563610029967,0.11324380240718471,-0.016003061941275862,-0.007690925822918125,5.0
0.3643598191654772,-0.7737422868379673,-0.4131075283058766,0.0829900991294753,-0.018453256089951808,-0.03109864801411437,5.0
0.35593651203405424,-0.7632589118477792,-0.42634374389472235,0.08843576568256327,-0.013552870282968702,0.016734521311886835,5.0
0.35593651203405424,-0.7632589118477792,-0.42634374389472235,0.10356261824391134,0.010132323789149677,0.006557251316804668,5.0
0.3727831262968992,-0.7789839972715087,-0.4296527977919339,0.0908560617233816,-0.002118638393587332,-0.014815014780685082,5.0
0.3727831262968992,-0.7894673722616968,-0.43627084766285346,0.07693935810493607,0.025650209946974114,-0.0026022906314242572,5.0
0.3727831262968992,-0.7789839972715087,-0.4428889554572763,0.05939221042526303,0.03953463473984703,-0.0056554720566450245,5.0
0.3727831262968992,-0.7632589118477792,-0.42634374389472235,0.0370044706639533,0.04443501805646134,0.010628159431209204,5.0
0.3517248584683431,-0.7632589118477792,-0.4131075283058766,0.021877619947591957,0.02891713298817325,-0.0036200182903719335,5.0
0.36014816559976576,-0.7370504055569674,-0.4428889554572763,0.01038121236996476,0.018299632481683863,0.021823156115475136,5.0
0.35593651203405424,-0.7475337805471559,-0.42303468999751104,0.010986286841416016,0.032184057274556775,0.03708906168995672,5.0
0.36014816559976576,-0.7632589118477792,-0.42303468999751104,0.01522180445160144,-0.012736138900076724,0.056425874796984535,5.0
0.36014816559976576,-0.7842257077050498,-0.42634374389472235,0.02369283967197228,-0.0029353697764793085,0.013681340371548018,5.0
0.35593651203405424,-0.7894673722616968,-0.43627084766285346,0.01522180445160144,0.02891713298817325,0.035053606372061376,5.0
0.368571472731188,-0.7999507931287789,-0.43957990156006493,0.020062396533238127,0.0068654004366544424,0.035053606372061376,5.0
0.36014816559976576,-0.7789839972715087,-0.41972563610029967,0.019457322061786863,0.0166661703384921,0.05540814713803683,5.0
0.41489936706159036,-0.7999507931287789,-0.4031804245377456,0.020667471004689412,0.021566555522883,0.027929517414294412,5.0
0.3727831262968992,-0.7737422868379673,-0.40979847440866524,0.01764209864743305,0.00033155388731202014,0.04930178428759528,5.0
0.368571472731188,-0.7789839972715087,-0.40979847440866524,0.012196432094345084,-0.001301908255879742,0.021823156115475136,5.0
0.3727831262968992,-0.7894673722616968,-0.406489478434957,0.023087765200521002,-0.0029353697764793085,0.023858609881748226,5.0
0.368571472731188,-0.7737422868379673,-0.4164165822030881,0.02671821202922864,0.021566555522883,0.046248604413996794,5.0
0.368571472731188,-0.7894673722616968,-0.42634374389472235,0.035189247249599466,0.01094905470509751,0.04319542143715375,5.0
0.368571472731188,-0.7789839972715087,-0.4296527977919339,0.03276895120878113,0.00441520800010704,-0.004637745949319613,5.0
0.3643598191654772,-0.7894673722616968,-0.44950706325169926,0.03942476670477164,-0.0037520999141869007,0.019787702349202036,5.0
0.368571472731188,-0.7894673722616968,-0.42634374389472235,0.035189247249599466,-0.012736138900076724,0.029964972732189774,5.0
0.3643598191654772,-0.7947090826952379,-0.4296527977919339,0.042450137217041245,0.009315592951025868,-0.004637745949319613,5.0
0.3517248584683431,-0.7894673722616968,-0.406489478434957,0.041239988274138696,-0.008652485721169997,0.009610432354119873,5.0
0.3517248584683431,-0.7737422868379673,-0.4031804245377456,0.04971102533949628,0.019116362619391453,-0.014815014780685082,5.0
0.368571472731188,-0.7632589118477792,-0.43296185168914547,0.06665309923958808,-0.002118638393587332,-0.010744107248138892,5.0
0.36014816559976576,-0.7894673722616968,-0.42303468999751104,0.0630226548900814,0.0019650154079115913,0.014699067351660957,5.0
0.36014816559976576,-0.7894673722616968,-0.40979847440866524,0.08480532069884238,0.023200017043482565,0.0004508892421742551,5.0
0.36014816559976576,-0.7737422868379673,-0.40979847440866524,0.08177995018657276,0.01993309400228343,-0.03211637256981749,5.0
0.368571472731188,-0.7632589118477792,-0.39656231674332265,0.0757292100845269,0.006048669520706609,-0.01888592231323127,5.0
0.3812064334283218,-0.7842257077050498,-0.406489478434957,0.08480532069884238,-0.010285947241769565,-0.0036200182903719335,5.0
0.3812064334283218,-0.7842257077050498,-0.406489478434957,0.08117487756010823,0.009315592951025868,0.009610432354119873,5.0
0.3727831262968992,-0.7789839972715087,-0.42303468999751104,0.0829900991294753,0.007682131274778251,0.0035040706673950244,5.0
0.36014816559976576,-0.7580172014142381,-0.40979847440866524,0.0829900991294753,-0.0045688312970788795,-0.038222735420259044,5.0
0.3727831262968992,-0.7632589118477792,-0.4296527977919339,0.0956966538050183,-0.005385562679970861,-0.0015845645240988363,5.0
0.368571472731188,-0.7580172014142381,-0.42634374389472235,0.08177995018657276,0.011765785465397296,0.01164588641132214,5.0
0.368571472731188,-0.7737422868379673,-0.43957990156006493,0.05394654387217507,0.0411680950152622,-0.010744107248138892,5.0
0.36014816559976576,-0.7737422868379673,-0.42634374389472235,0.06060235867629554,0.01258251622569708,-0.0026022906314242572,5.0
0.3517248584683431,-0.7580172014142381,-0.43296185168914547,0.051526247831356724,0.015849439578192317,-0.017868194654283593,5.0
0.36014816559976576,-0.7370504055569674,-0.41972563610029967,0.058787136415058436,0.0370844405911711,-0.0015845645240988363,5.0
0.368571472731188,-0.7737422868379673,-0.4296527977919339,0.06120743268650013,0.025650209946974114,0.009610432354119873,5.0
0.3643598191654772,-0.7999507931287789,-0.4296527977919339,0.06181250669670471,0.03545098031575592,-0.0087086534818658,5.0
0.36014816559976576,-0.7789839972715087,-0.42634374389472235,0.0533414694007238,0.0313673258916648,-0.007690925822918125,5.0
0.376994779862611,-0.7632589118477792,-0.42303468999751104,0.05636683991299341,0.02891713298817325,-0.015832742439632758,5.0
0.3727831262968992,-0.7475337805471559,-0.42634374389472235,0.05818206240485385,0.02810040285046566,0.010628159431209204,5.0
0.3812064334283218,-0.7632589118477792,-0.42634374389472235,0.055156691892584236,0.024833478564082138,0.01775224819502338,5.0
0.3727831262968992,-0.7737422868379673,-0.41972563610029967,0.05213132138031462,0.015032708817892527,0.016734521311886835,5.0
0.368571472731188,-0.7632589118477792,-0.43296185168914547,0.06241758082222097,0.024016748426374544,-0.004637745949319613,5.0
0.368571472731188,-0.7737422868379673,-0.41972563610029967,0.075124136535569,0.02810040285046566,-0.009726379589191217,5.0
0.368571472731188,-0.7789839972715087,-0.41972563610029967,0.06846832150082519,0.033817517549971955,0.025894063648021323,5.0
0.3475132049026323,-0.7685005764044262,-0.406489478434957,0.06907339551102977,0.027283671467573684,-0.006673199715592704,5.0
0.36014816559976576,-0.7685005764044262,-0.42303468999751104,0.0678632474906206,0.0411680950152622,0.018769975466065493,5.0
0.376994779862611,-0.7632589118477792,-0.40979847440866524,0.07754443257638735,0.03055059450877282,0.013681340371548018,5.0
0.36014816559976576,-0.7737422868379673,-0.4131075283058766,0.07875458059679652,0.023200017043482565,0.0075749785878467795,5.0
0.35593651203405424,-0.7422920701136144,-0.42634374389472235,0.0757292100845269,0.032184057274556775,-0.03109864801411437,5.0
0.3517248584683431,-0.7632589118477792,-0.4031804245377456,0.06967846952123435,0.03545098031575592,0.0014686169011219315,5.0
0.3517248584683431,-0.7475337805471559,-0.42634374389472235,0.07209876602329938,0.03871790335695506,-0.01888592231323127,5.0
0.368571472731188,-0.7632589118477792,-0.42634374389472235,0.07270383957225729,0.04035136363237024,0.023858609881748226,5.0
0.3727831262968992,-0.752775490980697,-0.42303468999751104,0.07693935810493607,0.043618289163938166,-0.026010012822620488,5.0
0.3727831262968992,-0.7370504055569674,-0.406489478434957,0.07451906206411774,0.02891713298817325,-0.01888592231323127,5.0
0.368571472731188,-0.7737422868379673,-0.3932532628461112,0.08177995018657276,0.05505252105331953,-0.007690925822918125,5.0
0.376994779862611,-0.7842257077050498,-0.4131075283058766,0.07391398851515983,0.0615863671357178,0.0035040706673950244,5.0
0.376994779862611,-0.7685005764044262,-0.41972563610029967,0.07330891404370855,0.025650209946974114,0.008592705470983324,5.0
0.368571472731188,-0.7737422868379673,-0.43296185168914547,0.07330891404370855,0.058319441604149876,0.0045217975505315745,5.0
0.376994779862611,-0.7580172014142381,-0.42634374389472235,0.07330891404370855,0.03463424893286394,-0.009726379589191217,5.0
0.368571472731188,-0.7580172014142381,-0.4031804245377456,0.0835951736009266,0.02238328690577498,-0.035169555546660555,5.0
0.3727831262968992,-0.7632589118477792,-0.4296527977919339,0.07935965414575442,0.032184057274556775,-0.004637745949319613,5.0
0.368571472731188,-0.752775490980697,-0.41972563610029967,0.07875458059679652,0.03463424893286394,-0.004637745949319613,5.0
0.368571472731188,-0.7422920701136144,-0.4131075283058766,0.08177995018657276,0.043618289163938166,0.02894724507324209,5.0
0.35593651203405424,-0.7737422868379673,-0.4164165822030881,0.0866205441131962,0.0370844405911711,-0.01176183490708657,5.0
0.3643598191654772,-0.7685005764044262,-0.42634374389472235,0.08480532069884238,0.04035136363237024,-0.03415182788771286,5.0
0.36014816559976576,-0.7632589118477792,-0.4031804245377456,0.07391398851515983,0.05260232690464357,-0.006673199715592704,5.0
0.3727831262968992,-0.752775490980697,-0.4031804245377456,0.07149369155184812,0.03953463473984703,0.0075749785878467795,5.0
0.3854180869940333,-0.7842257077050498,-0.3932532628461112,0.0956966538050183,0.01339924729729296,-0.04331137061175292,5.0
0.3854180869940333,-0.7842257077050498,-0.3932532628461112,0.09206621066628416,0.0313673258916648,-0.028045465037271317,5.0
0.3643598191654772,-0.7737422868379673,-0.406489478434957,0.07633428455597817,0.0558692524362115,0.0075749785878467795,5.0
0.3896297405597444,-0.7370504055569674,-0.42634374389472235,0.07028354353143894,0.07792098483208226,-0.015832742439632758,5.0
0.3727831262968992,-0.7318086951234264,-0.406489478434957,0.0678632474906206,0.043618289163938166,0.0045217975505315745,5.0
0.36014816559976576,-0.7475337805471559,-0.40979847440866524,0.07693935810493607,0.05260232690464357,-0.020921377631126635,5.0
0.3896297405597444,-0.7370504055569674,-0.40979847440866524,0.0660480252293835,0.037901171974063064,-0.015832742439632758,5.0
0.368571472731188,-0.7475337805471559,-0.406489478434957,0.08238502465802404,0.0411680950152622,0.009610432354119873,5.0
0.3727831262968992,-0.7632589118477792,-0.39656231674332265,0.07330891404370855,0.08037117400002064,-0.012779561014411984,5.0
0.3727831262968992,-0.7632589118477792,-0.406489478434957,0.0660480252293835,0.070570407366792,-0.01176183490708657,5.0
0.368571472731188,-0.752775490980697,-0.383326101154477,0.07754443257638735,0.08608829368026451,-0.023974557504725123,5.0
0.368571472731188,-0.7632589118477792,-0.4296527977919339,0.0757292100845269,0.06975367598390003,-0.044329098270700584,5.0
0.3727831262968992,-0.7475337805471559,-0.4031804245377456,0.07209876602329938,0.0558692524362115,-0.007690925822918125,5.0
0.3727831262968992,-0.7475337805471559,-0.3932532628461112,0.09146113619483288,0.057502710221257906,0.0014686169011219315,5.0
0.3643598191654772,-0.7475337805471559,-0.3932532628461112,0.07875458059679652,0.0558692524362115,-0.02702773737832365,5.0
0.368571472731188,-0.7580172014142381,-0.38001710518076887,0.07996472861720569,0.06403656128439374,0.023858609881748226,5.0
0.3812064334283218,-0.7632589118477792,-0.3899442089488998,0.09025098725193033,0.060769635752825804,-0.023974557504725123,5.0
0.368571472731188,-0.7475337805471559,-0.39656231674332265,0.07935965414575442,0.04688521220513729,-0.0015845645240988363,5.0
0.376994779862611,-0.7370504055569674,-0.4428889554572763,0.05818206240485385,0.058319441604149876,0.006557251316804668,5.0
0.3896297405597444,-0.7475337805471559,-0.4164165822030881,0.03155880411086533,0.09262213478192521,0.010628159431209204,5.0
0.3727831262968992,-0.7265669846898853,-0.40979847440866524,0.0370044706639533,0.11794079769010145,0.023858609881748226,5.0
0.368571472731188,-0.7056001888326148,-0.41972563610029967,0.05031609981094755,0.08935521423109485,0.029964972732189774,5.0
0.3812064334283218,-0.7422920701136144,-0.383326101154477,0.075124136535569,0.06567001906944014,0.019787702349202036,5.0
0.376994779862611,-0.7632589118477792,-0.38001710518076887,0.0835951736009266,0.05341905828753556,0.016734521311886835,5.0
0.3727831262968992,-0.752775490980697,-0.37008994348913443,0.08056980308865697,0.04770194358802927,0.019787702349202036,5.0
0.376994779862611,-0.7422920701136144,-0.38001710518076887,0.06665309923958808,0.0027817461682113757,0.018769975466065493,5.0
0.3643598191654772,-0.7265669846898853,-0.3767080512835575,0.0660480252293835,-0.00048517687298776306,0.016734521311886835,5.0
0.3854180869940333,-0.7422920701136144,-0.3866351550516885,0.05818206240485385,-0.0029353697764793085,0.020805429232338583,5.0
0.3896297405597444,-0.7475337805471559,-0.406489478434957,0.05757698839464927,0.006048669520706609,0.03708906168995672,5.0
0.3938413941254559,-0.752775490980697,-0.4031804245377456,0.05636683991299341,0.024016748426374544,0.03403588026473595,5.0
0.3896297405597444,-0.7737422868379673,-0.3932532628461112,0.047895803770129204,0.06812021321811607,0.005539524433668122,5.0
0.376994779862611,-0.7475337805471559,-0.40979847440866524,0.05576176636403551,0.0558692524362115,0.023858609881748226,5.0
0.376994779862611,-0.7422920701136144,-0.40979847440866524,0.05636683991299341,0.026466940084681704,0.0004508892421742551,5.0
0.3812064334283218,-0.7475337805471559,-0.406489478434957,0.05939221042526303,0.014215978057592742,0.018769975466065493,5.0
0.376994779862611,-0.7580172014142381,-0.3998713706405343,0.06241758082222097,0.010132323789149677,0.01164588641132214,5.0
0.376994779862611,-0.7475337805471559,-0.406489478434957,0.07028354353143894,0.018299632481683863,0.021823156115475136,5.0
0.368571472731188,-0.7265669846898853,-0.41972563610029967,0.06181250669670471,0.02074982413999102,0.0035040706673950244,5.0
0.376994779862611,-0.7370504055569674,-0.3932532628461112,0.06181250669670471,0.011765785465397296,0.016734521311886835,5.0
0.3854180869940333,-0.752775490980697,-0.3866351550516885,0.07028354353143894,0.032184057274556775,-0.0015845645240988363,5.0
0.3812064334283218,-0.7475337805471559,-0.39656231674332265,0.06665309923958808,0.026466940084681704,-0.019903649972178947,5.0
0.376994779862611,-0.7475337805471559,-0.3932532628461112,0.07754443257638735,-0.009469215858877587,-0.028045465037271317,5.0
0.3896297405597444,-0.7632589118477792,-0.383326101154477,0.08238502465802404,-0.002118638393587332,0.0024863437842584774,5.0
0.3854180869940333,-0.752775490980697,-0.3866351550516885,0.0660480252293835,0.01339924729729296,-0.007690925822918125,5.0
0.376994779862611,-0.7370504055569674,-0.3932532628461112,0.06544295121917891,0.027283671467573684,0.013681340371548018,5.0
0.376994779862611,-0.7370504055569674,-0.3932532628461112,0.06181250669670471,0.015032708817892527,-0.004637745949319613,5.0
0.3854180869940333,-0.7422920701136144,-0.3932532628461112,0.0757292100845269,-0.001301908255879742,0.006557251316804668,5.0
0.376994779862611,-0.7737422868379673,-0.39656231674332265,0.08601546964174493,-0.001301908255879742,-0.010744107248138892,5.0
0.376994779862611,-0.7737422868379673,-0.39656231674332265,0.11082350452137965,-0.01681979332416784,0.005539524433668122,5.0
0.368571472731188,-0.7475337805471559,-0.406489478434957,0.10356261824391134,-0.01191940876236913,-0.028045465037271317,5.0
0.368571472731188,-0.7370504055569674,-0.3932532628461112,0.09993217141520373,0.01993309400228343,-0.0087086534818658,5.0
0.368571472731188,-0.7370504055569674,-0.3932532628461112,0.10053724588665498,0.015032708817892527,-0.029063192696219004,5.0
0.3812064334283218,-0.7265669846898853,-0.4031804245377456,0.09872202616227466,0.006048669520706609,-0.0005668368651511628,5.0
0.3854180869940333,-0.7422920701136144,-0.3932532628461112,0.10114232035810627,-0.017636524707059818,-0.02702773737832365,5.0
0.3854180869940333,-0.7422920701136144,-0.3932532628461112,0.09630172827646956,-0.01191940876236913,-0.03211637256981749,5.0
0.3812064334283218,-0.7632589118477792,-0.39656231674332265,0.10598291243974296,-0.01191940876236913,-0.01176183490708657,5.0
0.3812064334283218,-0.7475337805471559,-0.3932532628461112,0.10961335926845057,0.005231938760406824,-0.0015845645240988363,5.0
0.3812064334283218,-0.7475337805471559,-0.3932532628461112,0.10114232035810627,0.00441520800010704,-0.026010012822620488,5.0
0.3727831262968992,-0.7422920701136144,-0.4031804245377456,0.10537783796829166,0.01993309400228343,0.027929517414294412,5.0
0.376994779862611,-0.7422920701136144,-0.406489478434957,0.08541039517029364,-0.006202292817678446,-0.0005668368651511628,5.0
0.376994779862611,-0.7685005764044262,-0.3998713706405343,0.07088861800289022,0.04770194358802927,0.0014686169011219315,5.0
0.3812064334283218,-0.7632589118477792,-0.4131075283058766,0.08056980308865697,0.0762875220662983,0.03403588026473595,5.0
0.376994779862611,-0.7632589118477792,-0.3866351550516885,0.09206621066628416,0.07873771621497423,0.010628159431209204,5.0
0.3896297405597444,-0.7580172014142381,-0.3601627817975001,0.0908560617233816,0.027283671467573684,0.01775224819502338,5.0
0.3896297405597444,-0.7318086951234264,-0.3866351550516885,0.08783069121111198,0.02810040285046566,0.036071334031009046,5.0
0.3896297405597444,-0.752775490980697,-0.3767080512835575,0.08238502465802404,0.02810040285046566,0.015716794428750284,5.0
0.3854180869940333,-0.7108418992661558,-0.36678088959192306,0.08601546964174493,0.005231938760406824,0.014699067351660957,5.0
0.36014816559976576,-0.7003584783990736,-0.36678088959192306,0.06725817348041602,-0.012736138900076724,0.0635499622031292,5.0
0.3727831262968992,-0.7003584783990736,-0.40979847440866524,0.07028354353143894,0.005231938760406824,0.05947905467058302,5.0
0.3812064334283218,-0.7475337805471559,-0.41972563610029967,0.0533414694007238,0.0035984769285111588,0.056425874796984535,5.0
0.376994779862611,-0.7580172014142381,-0.40979847440866524,0.06665309923958808,0.0035984769285111588,0.046248604413996794,5.0
0.3896297405597444,-0.7685005764044262,-0.3932532628461112,0.06967846952123435,0.015849439578192317,0.014699067351660957,5.0
0.3896297405597444,-0.7580172014142381,-0.40979847440866524,0.08843576568256327,-0.0029353697764793085,0.024876337540695903,5.0
0.376994779862611,-0.7475337805471559,-0.4131075283058766,0.08783069121111198,-0.006202292817678446,0.030982698839515183,5.0
0.376994779862611,-0.7422920701136144,-0.406489478434957,0.08722561673966073,0.005231938760406824,0.03301815260578828,5.0
0.3854180869940333,-0.7632589118477792,-0.4031804245377456,0.08783069121111198,-0.007835754338278019,0.057443599352687655,5.0
0.3896297405597444,-0.7370504055569674,-0.4131075283058766,0.08783069121111198,0.007682131274778251,0.05031951194654298,5.0
0.3896297405597444,-0.7370504055569674,-0.406489478434957,0.08117487756010823,-0.006202292817678446,0.04014224156355524,5.0
0.376994779862611,-0.7370504055569674,-0.3767080512835575,0.08843576568256327,-0.01926998747284378,0.042177696881450594,5.0
0.376994779862611,-0.7685005764044262,-0.38001710518076887,0.08783069121111198,-0.006202292817678446,0.06253223454418154,5.0
0.376994779862611,-0.7370504055569674,-0.3866351550516885,0.08480532069884238,-0.027437293830657215,0.08288677220691247,5.0
0.376994779862611,-0.7370504055569674,-0.38001710518076887,0.10295754377246008,-0.04213844876123776,0.04014224156355524,5.0
0.3854180869940333,-0.7632589118477792,-0.3899442089488998,0.1065879869111942,-0.040504985995453796,0.04014224156355524,5.0
0.4064760599301681,-0.7685005764044262,-0.3932532628461112,0.0993271006337259,-0.02090344774825895,0.06863859739462308,5.0
0.4022644063644566,-0.7632589118477792,-0.3998713706405343,0.07391398851515983,0.007682131274778251,0.013681340371548018,5.0
0.3896297405597444,-0.7475337805471559,-0.35354467400307726,0.08783069121111198,-0.012736138900076724,0.022840882998611683,5.0
0.376994779862611,-0.7842257077050498,-0.38001710518076887,0.08964591462546583,-0.05602287230892626,0.03200042649846286,5.0
