acc_x,acc_y,acc_z,gyro_x,gyro_y,gyro_z,activity
-1.876915004851202,0.3576611901867259,2.3669459871840925,0.06283884317567857,-0.1959469032304679,-3.0080588943490456,0.0
-1.4168534512172055,0.6426380006481135,2.343171752817387,0.055416715156292,1.3205887123461835,-3.9988320019373518,0.0
-1.0249491592647968,0.7472497447441031,2.2718492875214458,-0.3459968449765068,2.184300758220673,-4.1144220247645835,0.0
-1.0249491592647968,0.7472497447441031,2.2718492875214458,-1.0721286398604988,1.0011548758058102,-3.2942821490176,0.0
-0.7821389797698756,0.8338249747051643,2.292226964888734,-1.1005801746071713,-0.3719456662186286,-1.8494048943957102,0.0
-0.6884226890327754,0.7256059530399197,2.254867691545228,-0.796272767391835,-0.5254600184054959,-0.31921088958396365,0.0
-0.7438004361866073,0.7256059530399197,2.2175081803975494,-0.12456995155045232,0.07154021777124141,1.19905714628326,0.0
-0.7438004361866073,0.7256059530399197,2.2175081803975494,0.27931766131391894,0.11418309364138392,1.88525929270258,0.0
-0.9951302920333659,0.6751037197765524,2.166563630273069,0.47538561419713904,0.12813894298051212,2.390736982132256,0.0
-0.9951302920333659,0.6751037197765524,2.166563630273069,0.6176431068785173,-0.5115041785228253,2.7769549821167008,0.0
-1.4935303892506306,0.3576611901867259,2.2243008187880364,0.9275170780471045,-2.0427709689272486,2.26872513223632,0.0
-1.7533799214492265,0.40094880911377695,2.3227938376459263,1.252235259991469,-2.4893581477793507,1.116492690813302,0.0
-1.7831987886806573,0.4911313482162565,2.5197798753617056,1.3289305702854093,-1.5938578041527585,-0.21646402857376662,0.0
-1.7150415269990695,0.5235970515586135,2.577517301680845,0.7827855100026558,-1.275974524025098,-1.3283315694035094,0.0
-1.6383645889656442,0.5163824490618584,2.574120982485602,0.3052951206975209,-1.2007680745606109,-1.6283156263255876,0.0
-1.34017651318378,0.574099284821981,2.5027985171896603,-0.16106209543811564,-0.3711703501864424,-1.257693172390871,0.0
-0.9823509266387208,0.7111767480464095,2.3873239023555533,-0.7059701934776607,-0.3990820299517839,-0.018309416007384706,0.0
-0.7438004361866073,0.7869300821553791,2.2446787339594976,-0.5544350237984257,-1.0224433445629768,0.912833802101909,0.0
-0.6628636599772638,0.8049665647181441,2.1054298847586854,0.009646909358437237,-0.9107965498499514,1.4164767477353806,0.0
-0.679903012680938,0.837432283846583,2.0782594500988236,0.344261309772924,-0.32697680679021196,1.7834297140776882,0.0
-0.7438004361866073,0.8482541796986744,2.0510888965368754,0.3300355423995879,0.3227455176961202,2.0375447285306754,0.0
-0.897154312253458,0.7725008455897049,2.0918446079777113,0.3405502269036491,0.4576520581555403,2.084331277167064,0.0
-1.191082549859403,0.6462453097895319,2.1801486692498706,0.4085864243034962,0.5848053626414385,1.70636957950914,0.0
-1.595766281773013,0.4983459507130116,2.309208560864952,0.2873583006302404,0.18938960930107285,0.31928733630086564,0.0
-1.8982141584475176,0.37930499767699116,2.43487213328479,-0.023134166747616484,0.07696749382763256,-1.1145814555437974,0.0
-1.9706312583050243,0.36487579268348097,2.482420602018199,-0.10292207124539483,0.10022724430225576,-1.4916256470344238,0.0
-1.408333774865368,0.6787110289179709,2.4960058787991737,-0.5643312045493847,0.9608379882221703,-3.6355486127002488,0.0
-0.6415646182307809,0.9095783088141337,2.407701579722842,-1.171708860597199,1.8059421467175525,-2.949346376768134,0.0
-0.1346449192282341,1.0755142135977467,2.220904499592793,-1.7221835376776606,-0.37272098225081485,-1.3420923716570334,0.0
-0.06222781937072764,0.8626834162643484,2.0782594500988236,-1.1550091083867844,-0.6549393088137827,1.25501741390067,0.0
-0.09204653746904759,0.9204002362383893,2.0035405467055525,0.1370601535448752,-0.1176390761597469,3.134734229477988,0.0
-0.3433765424489167,0.9095783088141337,2.013729504291283,0.674546116021201,0.13666751389913476,4.020925597990698,0.0
-0.7906585069886022,0.7292132306091745,2.102033565563442,1.0654450142814362,0.4196611186684591,4.825470196226342,0.0
-1.4040739366894495,0.4586656290878176,2.2446787339594976,1.4612920029171512,-0.21145339409042585,4.767675005787134,0.0
-1.9237731129364746,0.3215881740030875,2.3771349447698227,1.4736621986805194,-1.4178590600775125,3.006300552513344,0.0
-2.281598774048089,0.26387134983586874,2.5027985171896603,1.0821447664918509,-1.2449615801310114,0.9632898383307064,0.0
-2.328456882133361,0.26387134983586874,2.642047128586299,0.38755705529537365,-0.7673613817331643,-1.3219099213603958,0.0
-2.026009005458856,0.3973415078653994,2.6895955973197094,-0.7832840377000339,0.2521909455118358,-3.777742912892822,0.0
-1.4040739366894495,0.5199897582032769,2.5639320248998727,-1.5236415697820316,0.9306003225344405,-4.574948177892465,0.0
-1.4040739366894495,0.5199897582032769,2.5639320248998727,-1.8811409032707764,1.0236393055200181,-3.6190356499960212,0.0
-0.1218654047004781,0.8735052805442763,2.0307109813654143,-1.7667164114076372,0.8104249379898776,-1.5540076522077442,0.0
-0.1218654047004781,0.8735052805442763,2.0307109813654143,-1.2830408638701574,-0.29596382507029606,1.231165476011624,0.0
-0.1815029900302289,0.8518614888400928,1.75560972106112,-0.08189270223727226,-0.4626587011076479,2.6063219293009685,0.0
-0.42005348048234203,0.8049665647181441,1.7963655514040422,0.6597018448947626,0.330498753669642,3.321880065972353,0.0
-0.42005348048234203,0.8049665647181441,1.7963655514040422,1.1365737002714642,0.9910756539099002,4.515394645617553,0.0
-1.3614757040633736,0.36487579268348097,2.1869413076403577,1.3035717051809015,1.156995176089236,5.697900941511121,0.0
-2.072867150827406,0.10515009096073624,2.526572513752193,1.326456555273,0.46928191211582254,5.767621742843666,0.0
-2.072867150827406,0.10515009096073624,2.526572513752193,0.5155888107787466,-0.9774744851345605,3.258580912682924,0.0
-2.567007321320968,0.2097618271636851,2.74054014744419,-0.43135135869053226,-0.4269937475429551,-0.25866362820684763,0.0
-2.643684245373164,0.2566567473391137,2.869600039059271,-1.0405845561729843,1.1159029346475804,-3.5373885216677663,0.0
-2.217701331900781,0.2566567473391137,2.8424294854973224,-1.6442511595268543,1.940848725002802,-5.362979813423878,0.0
-1.3998140985135306,0.5488481681902972,2.6522360861720315,-2.2188478752576044,2.1943799801165826,-4.9152969563822255,0.0
-0.6074859128234316,0.7183913347570829,2.3669459871840925,-2.103186315537599,1.9315447813132485,-2.7291746148653075,0.0
-0.3092978370415676,0.29272976179614935,2.0035405467055525,-1.6974431461509245,0.15837661812469936,-0.4770006463134687,0.0
-0.27095944259141025,0.5452408590488788,1.8473102204306089,-0.5971122655677731,-1.7171344528260661,1.5421581747365214,0.0
-0.3135576752174862,0.5452408590488788,1.8167433476734172,1.0617339314121614,-0.5828340478263808,3.185190086681191,0.0
-0.7906585069886022,0.527204360700032,1.8846696126762013,1.5577796747130097,-0.07034424972185689,3.5925080431295706,0.0
-1.0419885119684713,0.455058335732481,1.9729736739483605,1.6134456763494887,-0.5533716981708374,2.908140640506455,0.0
-1.6426244271415626,0.2602640485874912,2.2582640107404717,1.5243800495908577,-1.3566084504956963,0.7623830653136195,0.0
-2.0643474744755688,0.11597198681282796,2.5095909177759754,0.8693770613982165,-1.5116733212694469,-1.2907189187737356,0.0
-2.183622682418348,0.14843770594126682,2.638650809391056,-0.10044802982957139,-0.4331963514521042,-3.198874397461414,0.0
-1.9663714201291054,0.28551515929939425,2.7269551084673873,-1.142020318344322,1.0290665555711516,-4.2428557017292245,0.0
-1.4850107128987935,0.5596700798284707,2.67261400134349,-2.0679311489808088,1.6369213604094717,-4.113504697622877,0.0
-0.8630756068461086,0.7472497447441031,2.472231644432469,-2.230599597443199,1.505116046252967,-2.4906552359748457,0.0
-0.39875428960274895,0.5957430765261645,2.000144227510309,-1.4488018009227288,0.18241168935973748,-0.24215075501541541,0.0
-0.39449445142683004,0.5416335656935422,1.9118401662381495,0.11850482972449236,-0.7402250558258388,1.6366485991510027,0.0
-0.5180294602622502,0.5596700798284707,1.8473102204306089,0.7580450581252582,-0.6479613510466173,2.1925823248094756,0.0
-0.7310209216588514,0.6318161047960219,1.9254253241170374,0.7988667886352988,0.3506572163743767,2.3045030390698895,0.0
-1.1271851263537342,0.5380262565521237,2.1054298847586854,0.8854583400308595,0.6119417263745938,1.7274693569474815,0.0
-1.6809628215917196,0.2674786510842463,2.3805312639650666,1.0493637356487933,-0.30759367903057844,0.3559826374107362,0.0
-2.1112056198441187,0.14122310344451172,2.6963882357101956,0.7314491251638847,-0.6929302104750339,-1.2815451102799176,0.0
-2.1069457816682,0.18811801967341982,2.971489377112405,-0.2587868200031745,-0.36109112829053247,-2.9254944388790873,0.0
-1.996190212793981,0.2566567473391137,2.95790410033143,-1.3374697976497705,-0.054062423916797754,-4.262120645858566,0.0
-1.536128696443262,0.5055605532097667,2.7914849353728446,-2.2207032959909183,0.8104249379898776,-4.898784351729182,0.0
-0.9141936649571325,0.7761081547311236,2.407701579722842,-2.5058367549314466,1.2236731113738448,-4.194234498809428,0.0
-0.5137696220863314,0.7616789497376134,1.955992196874229,-1.8087751494238826,0.3886481369485429,-2.781465484403106,0.0
-0.43283284587698745,0.6137795906610932,1.6707019789842044,0.2063333735385922,0.05913501881837194,-0.314623940580656,0.0
-0.4456123604047438,0.5632773731838074,1.6197573099576377,1.1155443916140029,-0.45257947921173775,1.5183062368474753,0.0
-0.6926825272086943,0.5885284898154911,1.7386282439869885,1.5379873132110917,-0.4704119370811694,2.560452707806284,0.0
-1.1058859354741408,0.48030943657808295,1.935614281702768,2.09712122388697,-1.2666707316388632,2.6714559158994002,0.0
-1.502050065602468,0.41177071285890954,2.1597709918825823,2.7805755657742983,-2.685515335646416,1.7990253496402135,0.0
-1.791718390465939,0.4189853153556646,2.3975126221371115,2.9784991807934786,-2.8382545231044163,0.4614816141152399,0.0
-1.8982141584475176,0.42619991785241973,2.6148768128285256,2.599351944368179,-2.6389959198052866,-1.1320117453897298,0.0
-1.77467911232882,0.5055605532097667,2.7677107010061386,1.4872694623007534,-1.5023695288832124,-2.5622110496419843,0.0
-1.5872466054211751,0.5416335656935422,2.7914849353728446,0.30096553407514376,-0.7270444941495245,-3.130988250412279,0.0
-1.4850107128987935,0.6065650039504197,2.6182728942195967,-0.8655459722978865,-0.8604003647187421,-3.583257743162453,0.0
-1.4381525675302433,0.7364278488920115,2.3329827952316564,-1.5050862761369794,-1.6380513853748184,-4.441927865219304,0.0
-1.2549799733650726,0.8302176971359094,2.190337626835601,-0.9379117864954418,-1.791565699735856,-4.962083505018612,0.0
-0.9653115739350462,0.9384367188011543,2.0510888965368754,0.04552054194916564,-2.1551931174982895,-4.888693037068063,0.0
-0.7352807598347703,0.9492586462254095,1.9831626315340911,1.0314269155815128,-3.31662992405696,-3.5740837556430414,0.0
-0.6330449418789434,1.0141900844822875,1.9390106008980117,1.281923802244346,-4.2539978629832245,-2.4044212929124793,0.0
-0.6926825272086943,1.082728768736256,1.9322179625075244,1.0728670593186636,-4.04931200963296,-1.7695925993764572,0.0
-0.6628636599772638,1.1945551626872466,1.9627848352647161,0.7574265845474867,-3.3941622837921748,-1.7952791915489108,0.0
-0.44987219858066163,1.3172033577738373,1.9152363665313068,0.09685694187560216,-2.756069888917786,-1.8017010186176179,0.0
-0.21984153361349687,1.3604910043265315,1.7827802746230679,-0.23837595474815423,-3.4709196679276726,-1.2008153986061638,0.0
-0.14742443375599007,1.4109932691620628,1.65711670220323,-0.007671395639992034,-3.2057584832019503,-0.19811638920793082,0.0
-0.3220773515693236,1.425422379439082,1.5823977988099587,0.6077469261275584,-1.06818748219775,0.3385523699430027,0.0
-0.3220773515693236,1.425422379439082,1.5823977988099587,0.49146689282978195,-0.4145885397246566,0.060585470749192495,0.0
-0.42005348048234203,1.2306281278127762,1.7861765938183116,0.20262229066931717,-0.7882951793830001,0.1266370082713198,0.0
-0.42005348048234203,1.2306281278127762,1.7861765938183116,-0.08003716928944653,-0.4572314132306849,0.036733524468321635,0.0
-0.4924705803398488,1.1873405444044094,1.888065931871445,-0.3027010843663917,-0.06259100429187786,-0.016474661022080794,0.0
-0.4924705803398488,1.1873405444044094,1.888065931871445,-0.4913469167740579,0.5336338993038727,0.0385682906427251,0.0
-0.43709268405290597,1.1620894435588076,1.8201396668686605,-0.4437215846292311,0.6972274355608203,0.24681411716832613,0.0
-0.4626517131084183,1.1296237244303688,1.8201396668686605,-0.3262045136499194,0.7282404551065661,0.30552660118193903,0.0
-0.4626517131084183,1.1296237244303688,1.8201396668686605,0.04737607583997047,1.0732600611415521,-0.1283953193369966,0.0
-0.6500841454495074,1.0322265670450521,1.80995070928293,0.11479376194288272,0.8639223115981721,-0.6366251915955764,0.0
-0.7139815689551768,0.9672951287881745,1.7963655514040422,0.19705569654073551,0.8174028201053832,-0.994404349444066,0.0
-0.6756431745050194,0.952865955366828,1.8473102204306089,0.1382971761387451,1.4027731195778355,-0.8953271102954725,0.0
-0.6628636599772638,0.9745097470710113,1.9084438470429061,0.03376883485123448,1.3957953131139893,-0.7375372640531708,0.0
-0.6841628508568569,0.9817243653538484,1.9491995584837423,-0.08560376813292371,1.1182289205699687,-0.6724030984291456,0.0
-0.5904465601197566,1.1115871787232763,2.02052214268177,-0.2594053237562768,0.6321001701664135,-0.6100211380122238,0.0
-0.5393286511418436,1.2089843361085928,1.9695774736552034,-0.3695002591723691,-1.220151164494415,-0.1861904202634077,0.0
-0.41579364230642346,1.2991668752110725,1.7827802746230679,0.3294170386464855,-0.4401742713934394,0.6431233311119903,0.0
-0.40301412777866746,1.2739157743654705,1.7080613712297967,0.9633907181816657,1.1880081956349817,1.210983115227783,0.0
-0.5734072074160821,1.2811303926483073,1.8269323052591477,0.42095665024219503,1.150792572180087,0.7605483215174152,0.0
-0.8034380215163581,1.2378427460956132,1.9967479083150648,-0.33486365671934315,0.5545676591278788,-0.1228910208137861,0.0
-0.8034380215163581,1.2198062635328482,2.023918461877013,-0.31136024252348105,0.4576520581555403,-0.29352416314231483,0.0
-0.7395405980106887,1.2125916452500114,1.9933515891198217,-0.2396129773420241,0.2669221203396076,-0.32654995428157774,0.0
-0.7863986688126833,1.1512675161345522,1.9933515891198217,-0.33238961153160335,0.2785519932128048,-0.25499409585804056,0.0
-0.871595283197946,1.1115871787232763,1.955992196874229,-0.47464710421298195,0.456876742123354,-0.41645342969275123,0.0
-0.8801149595497835,1.1115871787232763,1.9254253241170374,-0.3750668533009508,0.556118329018081,-0.5907561043700867,0.0
-0.8162175360441141,1.1296237244303688,1.9118401662381495,-0.15735102765650602,0.534409215336059,-0.6384599801481791,0.0
-0.7778791415939568,1.1404455887102967,1.8812732934809577,-0.04416353764169719,0.47936117183756227,-0.37792336240847696,0.0
-0.7650996270662007,1.1043726235847668,1.8948585702619318,-0.06952248466751286,0.6468313639071003,-0.22105095519887474,0.0
-0.8545559304942715,1.0755142135977467,1.935614281702768,-0.21363551795842203,0.7073066574567303,-0.2806807999214904,0.0
-0.888634635901621,1.0863360778776743,1.9288216433122807,-0.20435785604823062,0.839111971613235,-0.562317217477733,0.0
-0.7949183451645206,1.1548748252759706,1.9525958776789856,-0.11714782353106573,0.6747430436724418,-0.4907614038105945,0.0
-0.7225012453070139,1.1873405444044094,1.9627848352647161,-0.057152267333498236,0.3111156259100082,-0.1916947187866182,0.0
-0.7438004361866073,1.1873405444044094,2.0035405467055525,-0.031174809835854345,-0.0036663049807906115,0.15232372072659417,0.0
-0.7650996270662007,1.1801259261215726,2.017125823486526,-0.11343675574945608,-0.11298712322788504,0.1614975460040618,0.0
-0.7608397888902821,1.1801259261215726,2.0714668117083366,-0.3101232199296111,-0.6216003033456482,0.13581083354878745,0.0
-0.7736193034180382,1.1620894435588076,2.0510888965368754,-0.3695002591723691,-1.044927774277185,0.16333230658391548,0.0
-0.8204773742200326,1.1332310335717872,2.02052214268177,-0.3429042960356647,-0.8038016513300433,-0.03665706656232001,0.0
-0.85881576867019,1.1440528978517153,1.9967479083150648,-0.2791976701705296,-0.1424494728834287,-0.1861904202634077,0.0
-0.8119576978681956,1.1548748252759706,1.9831626315340911,-0.2260057438971208,0.2297065157976275,-0.08069143236980462,0.0
-0.6756431745050194,1.169303998697317,1.9865589507293346,-0.33548216047244545,0.026571370163396682,0.06333762001079775,0.0
-0.6841628508568569,1.1801259261215726,1.9797663123388474,-0.4233107193742108,-0.015296177853987849,0.08352003324354292,0.0
-0.7438004361866073,1.1837332352629908,1.96618115445996,-0.3459968449765068,0.2335831337843883,0.0027903726200562405,0.0
-0.7480602743625262,1.1548748252759706,1.955992196874229,-0.21425403679918964,0.37081566016619644,-0.06876545223618191,0.0
-0.7438004361866073,1.1548748252759706,1.9627848352647161,-0.24146850368899625,0.7569274887299235,-0.1127998180436665,0.0
-0.6586038218013449,1.201769717825756,1.9729736739483605,-0.2884753320807209,1.1120263166608195,0.04498996945586244,0.0
-0.6245252655271064,1.169303998697317,1.9967479083150648,-0.49629500714953734,0.8980366709243223,0.4376296762261936,0.0
-0.4626517131084183,1.1801259261215726,2.0069368659007956,-0.7770989398183499,0.5289819652849257,1.2440088616106475,0.0
-0.4796910658120928,1.169303998697317,2.034107300560658,-1.2719076152623323,-0.02460007898948285,2.0494706974751984,0.0
-0.7608397888902821,1.082728768736256,1.9593885160694728,-1.2644855702251052,2.729354170109485,1.9127807181840348,0.0
-1.2166414297818047,1.0682995953149095,1.8201396668686605,-1.2904630296087072,5.083240727120914,0.7688047581131312,0.0
-1.2038620643871596,1.0069754661994503,1.8948585702619318,-1.584874195722423,6.8874220517020674,-0.4109491087913414,0.0
-1.1442243299242982,0.8771125896856947,1.9967479083150648,-1.870626128240723,5.808945308839704,-0.1008738490991434,0.0
-1.1442243299242982,0.8771125896856947,1.9967479083150648,-2.0574164946520783,3.983054681447377,0.7587135329648126,0.0
-1.4381525675302433,0.8302176971359094,2.1563746726873383,-1.4283908451417164,2.7309047265221977,1.0164980350102082,0.0
-1.4381525675302433,0.8302176971359094,2.1563746726873383,-1.2119120571788067,2.7820764168147427,0.8880644475583624,0.0
-1.51056966738775,0.7869300821553791,2.2243008187880364,-0.8902864241752843,3.1643115706529636,0.5229462250122588,0.0
-1.5403884600526254,0.7364278488920115,2.278641925911933,-0.7022591106083856,3.2154829583388698,0.20277975136084153,0.0
-1.6000261199489314,0.6606745147830422,2.3975126221371115,-0.7733878569490749,2.2029084942964605,-0.16417322617056584,0.0
-1.6426244271415626,0.6137795906610932,2.5197798753617056,-0.8958530484791966,1.703599220042421,-0.41003173689323924,0.0
-1.6596637052786818,0.574099284821981,2.5673283440951153,-1.4617904702638684,1.7260836497566292,-0.31370656868255387,0.0
-1.7320808051361887,0.5885284898154911,2.570724663290359,-2.996934468207476,3.1992012081854697,-0.2320595298670967,0.0
-1.8002380668177769,0.5813138873187362,2.5095909177759754,-3.3142304844132915,3.8396194376789303,-0.48250496721487823,0.0
-1.8556158885381642,0.5055605532097667,2.4314758140895467,-2.8051960717713027,3.1325233485525206,-1.009999895493794,0.0
-1.9152534738679146,0.37930499767699116,2.3771349447698227,-2.4074936624022722,2.093587761157483,-1.0687123235619094,0.0
-2.0217492045662153,0.2494421408958381,2.3839275831603097,-1.6813618675182813,1.7090266213968732,-0.7265287117631483,0.0
-1.8896944820956805,0.13040119180633816,2.43487213328479,-1.2514967801826429,0.2638208183850331,-0.5421348119374937,0.0
-1.9834107355495025,0.13040119180633816,2.479024282822956,-1.3894247164169746,-0.9697212491610386,0.7724742904619384,0.0
-1.9450722665327902,0.16647420429011361,2.458646367651495,-1.0467696540546683,0.4320663264867574,1.4550068150196547,0.0
-2.0856466280718844,0.34323198321995546,2.370342306379336,-0.6478301768287726,2.1214994409228245,1.4990412032053384,0.0
-2.0856466280718844,0.34323198321995546,2.370342306379336,-0.17838039666462857,2.7464115010758787,1.101814561418074,0.0
-2.1538038897534726,0.30715896777628965,2.3805312639650666,0.03747989508901143,2.0083020141454266,0.7972436002490869,0.0
-2.209181674190582,0.31076626951798225,2.3839275831603097,0.3560130017831898,0.692575539367703,0.16424968967111725,0.0
-2.1197252589126787,0.44062912284592987,2.3193975184506828,0.430852830993154,-0.3285274766804142,-0.5118611812489356,0.0
-2.1154654207367596,0.4983459507130116,2.4178905373085726,0.28797680438334267,2.151737106610555,-0.9567916988142923,0.0
-2.2560398009174936,0.43341452034917477,2.5401577905331676,0.2700399843160622,5.159222833050051,-0.7311156160100574,0.0
-2.315677404888883,0.37930499767699116,2.676010320538736,0.20385932835085238,7.5557524148708275,-0.3421454555749075,0.0
-2.3795748377153716,0.3215881740030875,2.7609180626156524,-0.2253872250563532,8.056612396840896,0.40368651318882853,0.0
-2.5371885170050685,0.3215881740030875,2.7371438282489473,-0.39485921480286884,6.772674219815276,0.7844002594064613,0.0
-2.643684245373164,0.2674786510842463,2.642047128586299,-0.3701187629254714,3.911724849969651,0.8210955381381329,0.0
-2.7288808317959683,0.26387134983586874,2.597895216852307,-0.14745485444937967,2.4657436930997947,1.4073029392415621,0.0
-2.788518435767358,0.2674786510842463,2.5911025784618205,-0.26064234635014666,2.254080033285686,2.2512948423903874,0.0
-2.7459201472163657,0.36487579268348097,2.5944988976570635,-0.45238072769865484,2.8867453294122614,2.504492350676077,0.0
-2.8098175893636737,0.40094880911377695,2.5673283440951153,-0.22229467611551118,4.495544441726071,3.0329046508530957,0.0
-2.9035338055342184,0.36487579268348097,2.6488397669767876,0.5075481714624251,4.054384512925103,3.8952442605023525,0.0
-3.4061936290775687,0.29272976179614935,2.6148768128285256,-0.20621339748286813,0.8639223115981721,5.755695773899145,0.0
-3.436012496308999,0.22779833340557282,2.458646367651495,-2.393267804502945,-3.328259702365582,7.266624521286761,0.0
-3.3550757200996553,0.30715896777628965,2.472231644432469,-3.039611800502816,-4.298966722411639,6.90976278009277,0.0
-2.8950141664656583,0.4298072191007973,2.407701579722842,-3.283923589283965,-4.457132857314135,5.255722405370877,0.0
-2.7629594626367626,0.4189853153556646,2.3839275831603097,-4.0026330977280855,-2.4343100664550232,2.6916383661960377,0.0
-2.515889370981918,0.34323198321995546,2.32619015684117,-3.9284119231478756,0.7933677583268022,1.7916861954298027,0.0
-2.626644929952767,0.2205837309088177,2.3363791144269004,-3.772547166846262,1.8129201044847174,1.7990253496402135,0.0
-2.5371885170050685,0.123186589309583,2.254867691545228,-2.6784015048461183,0.5545676591278788,1.694443610564617,0.0
-2.699062020489454,-0.1942559521198047,2.3907202215507968,-1.1098577610790359,-1.3310226053494243,1.1669487270420993,0.0
-2.733140651330248,-0.1942559521198047,2.2378860955690105,-0.6787557265878542,-1.627196733969233,1.253182670104466,0.0
-2.818337247073872,-0.024712769766937315,2.061277854122606,-0.5327871510372008,-2.1396866455512464,0.7871523751007677,0.0
-2.7586996244608435,0.11597198681282796,2.02052214268177,-0.5958752580615685,-5.40380473992995,-0.792580204528877,0.0
-2.7459201472163657,-0.01028356477342708,2.183544988445114,-1.5718854056799605,-7.776298881713847,-1.1246726806921161,0.0
-2.5755269790311663,-0.08964420802381495,2.3669459871840925,-3.4329846534247994,-6.908710520459237,-1.5228167391338807,0.0
-2.2390004854970966,-0.2195070529654068,2.4552500484562514,-4.6730990116769195,-3.7539131592195076,-1.7191365631476598,0.0
-2.1623235661053104,-0.2555800812352639,2.550346748118897,-4.804841608626921,1.2523601449972024,-1.5393295228125161,0.0
-2.226220989610979,-0.3782283394661826,2.5673283440951153,-4.373120979856646,3.1728402361361607,-1.369613797138488,0.0
-2.221961151435061,-0.6812416127577325,2.5163835561664625,-4.652687935194585,2.1176227472844045,-1.798948858166913,0.0
-2.417913297411265,-0.8543920726798547,2.261660329935715,-5.769100335813024,-1.1837108948975361,-1.3503487634963511,0.0
-2.47329107951817,-0.8255337258371619,2.115618842344416,-6.755625077409486,-2.9188882982716944,-1.609968009337951,0.0
-2.209181674190582,-0.9626112206337544,2.190337626835601,-7.151472307447847,-3.932238040520461,-2.9548506976695434,0.0
-2.2049218360146634,-1.3954873072947322,2.373738625574579,-6.56697953166746,-2.08463856422692,-3.9795670578080142,0.0
-2.27733893587217,-1.712929880296284,2.3363791144269004,-5.329339067726425,1.9346461967453124,-4.209829776320767,0.0
-2.27733893587217,-1.712929880296284,2.3363791144269004,-3.7496621960528413,2.4231008195937664,-4.050205544333447,0.0
-2.0771269517200475,-1.9870848698894683,1.6740982981794477,-0.44743263732317523,-1.817151393578809,-3.9025069232394647,0.0
-1.8343166976585707,-1.9690483241823764,1.6265499483481245,1.7792064927007374,-2.8917517454093904,-4.868510407745835,0.0
-1.8343166976585707,-1.9690483241823764,1.6265499483481245,1.500258131641893,-3.4763469179788054,-5.362979813423878,0.0
-1.6511440289268449,-2.1818790583714467,2.0069368659007956,-1.1537720405299186,-6.279146488461405,-6.075785610618964,0.0
-1.4466722438820807,-2.153020585240099,2.0510888965368754,-4.456001750136239,-6.704024969715612,-7.6362536041704585,0.0
-1.1186654500018967,-1.9798702516066315,1.775987636232581,-6.356067005904496,-6.70635080433468,-6.582180985241532,0.0
-0.8375167269237075,-2.2612396069053435,1.4363564301207459,-6.39379630817502,-7.683260050031589,-5.899648415927417,0.0
-0.6245252655271064,-2.2540249886225068,1.252955550283854,-5.6113799173754515,-7.50726160856298,-5.960195945842925,0.0
-0.6330449418789434,-2.0375869452920172,1.2495592310886108,-5.142548942717717,-3.9764313191358824,-6.251005836219995,0.0
-0.5734072074160821,-1.6876787163063542,1.0695547298980055,-5.178422341449633,-1.6155669556606103,-6.459251987229485,0.0
-0.7949183451645206,-1.8860804665070612,0.804642427179442,-4.36384339338478,-1.4752331273242274,-4.534583277299188,0.0
-0.7736193034180382,-1.8211489019615286,0.8012461079841983,-2.982090136730378,-0.06801827325592597,-3.014480542392159,0.0
-0.41579364230642346,-1.8319708293857837,0.8284166020951031,-1.962165770011763,-0.03933124908902596,-4.297898552692134,0.0
0.010189280486779148,-1.6443911328979879,0.7163383064562395,-2.4767668069576634,-2.914236326426918,-5.404262041158855,0.0
0.10390542209076845,-1.6119254769138762,0.740112481371901,-3.5090614901409682,-5.592208843126815,-5.917996032915055,0.0
0.1891021856091418,-1.5253501838084877,0.7808681928127371,-4.370028611967789,-6.613311972652421,-5.5693909520987726,0.0
0.11668493661852443,-1.438775016991754,0.7740756138732932,-4.809789880054385,-6.4691011480709815,-4.775854995665946,0.0
0.0485278240700471,-1.2764463582052321,0.6110525897568194,-5.122756339813154,-5.958161944205,-4.076809463647605,0.0
0.08686636765331539,-1.1141178257073656,0.43104808856621457,-4.671243590943605,-4.29741586339229,-3.010811233825343,0.0
0.09538604400515248,-0.9048942743710586,0.21028780162096952,-2.924568714360582,-2.801814026552559,-1.7007889461600234,0.0
0.09964558391484957,-0.9048942743710586,0.04726482580846843,-2.040716621740341,-3.640715883745429,-1.4705258695960826,0.0
-0.06222781937072764,-0.17621943798487602,1.3922043994846665,-5.600246910170271,-0.005216955958077883,-2.8823775568607006,0.0
-0.4839509039880114,-0.5261276985427028,0.11519106665926643,-7.090239560806133,-3.6632001621563184,-3.4144595236557223,0.0
-0.26243976623957277,-0.6668124393363859,0.0778316344700043,-5.934861393566918,-2.5281244789502764,-1.6549197246653387,0.0
-0.049448304842971656,-0.6812416127577325,-0.098776591184717,-5.103582693291652,-1.4705811554794506,-1.056786354617386,0.0
0.0826065294773965,-0.8002825618472326,-0.32972580599017104,-4.209834299219128,-4.039232787737051,-1.0531168670249778,0.0
-0.015369599435622255,-0.5585934176711418,-0.3874631134072247,-3.093422140003334,-4.0570653969098,-0.799001942084787,0.0
-0.16872347550247294,-0.6090956193623454,-0.4044446796579208,-2.128545180642106,-2.4761776617546953,-1.2723713017860991,0.0
-0.20280218090982233,-0.6668124393363859,-0.679545969687737,-1.8149602473055666,-5.302237242764497,-2.0815026252430586,0.0
0.108165260266687,-0.5225203894012844,-0.662564373711519,-1.6188922944223467,-5.661212839985472,-2.951181031051541,0.0
0.1763226710813858,-0.5441641811054678,-0.6863385486271808,-0.2810532116051669,-1.3147408551960247,-1.65125023707293,0.0
0.465991070511413,-0.5622006636682326,-0.761057452020452,-0.42949581725589475,0.8561690756246506,0.1706713656869797,0.0
0.42765252692814465,-0.7101000227447528,-1.0123844779580418,-0.25569425597466716,0.39485074085769223,0.9798027115221383,0.0
0.06130733859780308,-0.6956708493234065,-0.9240804166858827,0.09561991928173229,-0.5107288246648092,1.2366697969130338,0.0
-0.190022666382066,-0.6090956193623454,-0.856154151683098,0.41291601092587354,0.6437300619525257,1.0697062316897106,0.0
-0.29225848433789275,-0.41790861373313065,-0.9240804166858827,0.4580673280582913,1.529151183683207,0.3587347754832419,0.0
0.8962338314805331,-0.4648035694272433,-1.2365410692357692,-0.8018393916957476,-0.7231678761627637,-2.3613042318684996,0.0
0.28281832721313144,-0.2808311820808657,-1.1754074426234722,-3.5832829061238214,-0.27425471138827384,-3.215387360165644,0.0
-0.19854234273390345,-0.32772607463065123,-0.628601241210127,-0.9774964491486163,5.096421364448885,-1.864083023790938,0.0
-0.09630637564496614,-0.36740641204192703,-1.0293660739342596,-2.2404956574928363,1.4252575492920438,-3.464915380858926,0.0
0.3467158998519117,-0.3385480020549066,-1.19238903859969,0.4667264409523845,3.7302988558432713,-1.6787716625543847,0.0
0.4958099377428435,-0.36379910290050865,-1.0803107429608259,0.2681844730567554,1.6028070010833215,-0.6503859490927021,0.0
0.4958099377428435,-0.36379910290050865,-1.0803107429608259,-0.08684078884083543,0.957736648441766,1.2274959884192154,0.0
0.4063533360485509,-0.32051151949214174,-0.968232447321962,0.10427907743882142,0.9786704460916018,1.985253858992877,0.0
0.7130610881822526,-0.49366197941426393,-1.0904997005465564,-0.38248898886417015,0.38554683499396825,1.0220022663988213,0.0
0.7130610881822526,-0.49366197941426393,-1.0904997005465564,-0.4703175477659353,0.5700741689007518,0.8385258279840656,0.0
0.6363842992819378,-0.5225203894012844,-0.9987993200791538,-0.17095826864524197,0.8840807553899918,0.13030654062012678,0.0
0.4148730124003887,-0.4756254337071715,-0.8731357476593159,-0.24579809031137348,0.7468482668340135,-0.4017753002975233,0.0
0.4148730124003887,-0.4756254337071715,-0.8731357476593159,0.2496291190610419,1.2732939426470382,-0.1027086152735469,0.0
-0.03666879031521533,-0.6632051301949679,-0.6489791563815881,0.3566315055362921,1.5105432963041001,-0.25591149013434195,0.0
0.29133800356496853,-0.15457561470852887,-0.8493615132926112,0.1228344012592042,1.9377474608740572,-1.1815503649640267,0.0
0.29133800356496853,-0.15457561470852887,-0.8493615132926112,-0.19569870543497417,1.691194012224123,-3.088788695535595,0.0
0.4532115559836563,-0.36379910290050865,-0.7916242653266008,-0.39485921480286884,0.829032749717325,-2.262226992719906,0.0
0.512849290446518,-0.1185026180108355,-0.8018131634612882,-0.21796508949313392,0.6414040760301372,-0.9567916988142923,0.0
0.512849290446518,-0.1185026180108355,-0.8018131634612882,-0.3051751295541315,0.40027799090882527,-0.17609921749328813,0.0
0.4446918796318192,-0.10768069058657993,-0.7440758560442342,0.07892012180832163,0.1862883168029557,0.14865418837778716,0.0
0.5724867266431576,-0.25197277209384544,-0.6965275062129113,0.029439255772689917,0.29405848407276286,0.2504836383280335,0.0
0.4830304232150875,-0.23393622638675304,-0.7440758560442342,0.010883931952307113,0.50804816763509,0.18718425006751147,0.0
0.35523557620374846,-0.23393622638675304,-0.7712463501551395,0.4252862368645724,1.7346123152398263,0.5559720161515215,0.0
-0.006850072216895723,-0.3565844846176716,-0.6014307470992218,-0.11838484612493558,0.6561352319449943,1.2293307322154197,0.0
0.2870781653890496,-0.1185026180108355,-0.587845529769291,-0.4437215846292311,-0.18586768133455792,0.7669699695605289,0.0
0.5384080212358086,-0.09325148559306969,-0.6863385486271808,-0.09055185473648689,0.008738893381050288,1.0064068098618897,0.0
0.8110370679621615,-0.32051151949214174,-0.795020525070801,-0.1820914644462382,-0.22153261598633597,0.41928201448215857,0.0
0.5341481830598896,-0.48284005199000835,-0.7101127235428423,-0.4035183578722928,-0.6169483315008718,-0.3045327601887357,0.0
0.3807943069930386,-0.5694152819510694,-0.9512508513457444,-0.6707150872715325,0.9755691063111975,-0.3366411346734981,0.0
-0.10056621382088468,-0.024712769766937315,-0.8969099225749776,-0.16168060673505058,3.8287649375766657,1.4614285525755648,0.0
0.09538604400515248,-0.29526035550221236,-0.9478545321505009,-0.5989678070024103,5.209618942529603,1.4577589754703595,0.0
0.19336202378506068,-0.2014705388304781,0.06085007472176605,-0.47402860045987966,0.5305325973492981,2.4081672719781886,0.0
0.3637552525555862,-0.18343402469554942,-0.2753848177683608,-0.2532202107869274,-0.49522235271776605,2.4109194324288934,0.0
0.8451157733695105,-0.42873054115738624,-0.37048154715652865,0.24591806636709757,-1.3581590069084093,1.2953823144939454,0.0
0.700281573654497,-0.4395524685816418,-0.5029377282413321,0.4685819823870218,-0.8510964966808482,0.7862350032026656,0.0
0.465991070511413,-0.36740641204192703,-0.5606750356583858,0.151285905830546,-1.1875875128842968,0.7284399022762545,0.0
0.5171091286224362,-0.4611962602858252,-0.761057452020452,0.03809840638594638,-0.2184313140317613,0.4816640420336781,0.0
0.6917618973026578,-0.5261276985427028,-0.8323799767674369,0.03747989508901143,0.7313417948869702,0.1101241252894254,0.0
0.4319123651040629,-0.45758895114440656,-0.6897348678224242,-0.04601907153250202,1.1174536423636119,-0.0339049284898144,0.0
0.16354315655362983,-0.4323378502988046,-0.682942229431937,-0.2594053237562768,1.5454329338366066,-1.105407647049979,0.0
0.7301004408859247,-0.7569949784388658,-1.1686149231350715,-0.8711125966017992,5.156896998430983,-3.2291479833935726,0.0
0.7599193081173566,-0.6559905119121308,-0.900306241770221,0.36776472396878634,-0.2571975695510287,-1.5384121956708126,0.0
0.28281832721313144,-0.021105460625518865,0.020094327981873154,-0.04478204893863214,-0.5084028765682506,-0.7568022976953077,0.0
0.3467158998519117,-0.3024749737850494,-0.6523754161257883,-0.5290760681679257,1.695070705862543,-0.41645342969275123,0.0
0.512849290446518,-0.262794699518101,-0.7067164637986418,-0.7319476528612626,1.9819408907927984,-0.21829879474817016,0.0
0.6065654320505066,-0.32772607463065123,-0.5267119031569937,-0.9113157931834067,1.3888173553468244,-0.7723978437450362,0.0
0.5298883448839714,-0.31690421035072336,-0.32972580599017104,-0.4727915929536751,0.7414210167828801,-0.5458043442863008,0.0
0.29133800356496853,-0.31690421035072336,-0.2821774264333263,-0.11962186494688913,0.12193633907136295,-0.8696403390974252,0.0
0.3850541451689582,-0.2014705388304781,-0.3161405589347184,-0.08312972388816305,-0.49677298478213844,-0.30545013208683786,0.0
0.7513996317655202,-0.17621943798487602,-0.4044446796579208,0.018924571268628624,-0.567327575879338,0.22112740191577684,0.0
0.7684389844691965,-0.17261212884345756,-0.5335045415474808,0.1382971761387451,-0.14167415685124246,0.3587347754832419,0.0
0.47451074686324973,-0.15818292384994734,-0.4961450898508452,-0.06457439771033253,-0.23781444179139485,0.5367069825093845,0.0
0.4404320414559003,-0.27000925465661046,-0.3738778663517721,0.06964245989813021,-0.4083859358155076,0.23947505247071216,0.0
0.6662028682471479,-0.37462103032476396,-0.4859561322651145,0.12592695020004624,0.10720516897181984,-0.21095975242875523,0.0
0.7173209263581711,-0.29165310950512124,-0.5742602529883168,-0.11219973692750257,0.15605064165876845,0.010129437317670204,0.0
0.5000697759187617,-0.22672167124824363,-0.46897459573993994,-0.02004161403485813,0.16768051453196567,0.17617566421019012,0.0
0.3594954143796673,-0.14014640971501885,-0.39085943260246825,0.002224781339050649,0.07774281695216184,0.5036811913701218,0.0
0.4489517178077374,-0.39265751288752887,-0.4044446796579208,-0.17961741925849845,0.7592534746523119,0.048659499007394524,0.0
0.4489517178077374,-0.39265751288752887,-0.4044446796579208,-0.17961741925849845,0.7592534746523119,0.048659499007394524,0.0
0.4489517178077374,-0.39265751288752887,-0.4044446796579208,-0.17961741925849845,0.7592534746523119,0.048659499007394524,0.0
0.4489517178077374,-0.39265751288752887,-0.4044446796579208,-0.15425847871566398,0.4382689303959064,-0.07426975075939238,0.0
0.4872902613910057,-0.34215531119632525,-0.4078409691276428,0.026346699288015227,-0.1889689643762176,-0.00913559632446683,0.0
0.5085894522705992,-0.27722387293944734,-0.41463360751813,-0.14436229796470498,-0.10213257584333142,0.2908484717867111,0.0
0.04426798589412855,-0.33494069291348805,-0.5946381681597779,-0.35527452197436343,0.7406456629248644,1.470602361069383,0.0
-0.3391167042729981,-0.28443849122228443,-0.39765204126743386,-0.21549105939305951,-0.037005282079552455,3.5420518278751794,0.0
0.32115687079639904,-0.21229243468256967,-0.28557374562856996,0.11293822050824524,-1.0177913727182,3.808092811272689,0.0
0.47025090868733116,-0.16900481970203918,-0.628601241210127,-0.09117036603342184,-0.13237025098751873,4.566768188013649,0.0
0.4020934978726327,-0.6090956193623454,-0.5233155839617502,0.40549387536265435,0.8282573958593091,4.116333349546882,0.0
0.828076420665835,-0.7966752527058142,-0.5267119031569937,0.46796344845858884,1.6555290964852596,2.9108928009571593,0.0
0.6747225445989843,-0.8327483441199989,-0.3874631134072247,0.5663067220397462,1.8633162139642672,1.7228825422133691,0.0
1.3435159451533274,-0.8183191075543249,-0.3161405589347184,0.5675437295459508,0.934476940521201,0.5972541991301021,0.0
0.8195567443139978,-0.6487759567736213,-0.28897006482381343,0.7326861326700892,0.8879574490284123,-0.11830411656687698,0.0
0.542667859411727,-0.580237209375325,-0.25840325151766474,0.5910471135664822,0.083170093008553,-0.21004235815245387,0.0
0.3765347670833419,-0.6415613384907844,-0.35689630010107604,0.3523019490892456,0.27234938930365565,-0.6513033209908042,0.0
0.08686636765331539,-0.5946663827966715,-0.2923663840190569,-0.1585880502503759,0.17233246746382755,-1.1384333934328434,0.0
0.16354315655362983,-0.5513787993883046,-0.2516106428526993,-0.04292651693378549,-0.4425002194899981,-1.0485299627780684,0.0
0.4872902613910057,-0.5658079728096512,-0.35689630010107604,-0.13755868124225332,-0.43784828547105126,-0.5026873727551175,0.0
0.7769586608210328,-0.580237209375325,-0.43840778243379147,-0.26187936894401653,0.2490896435572612,-0.5724084426260517,0.0
0.7386201172377652,-0.5297350076841212,-0.32632948679492757,-0.2754866023889198,1.1973120636728758,-0.688915971620578,0.0
0.700281573654497,-0.5694152819510694,-0.15311757940652712,0.29910999264050625,1.9284435171845036,-0.8301929446714473,0.0
0.35523557620374846,-0.5513787993883046,-0.23802539579724669,-0.022515659222597868,1.7656252591339126,-1.0943990947599567,0.0
0.5298883448839714,-0.48284005199000835,-0.2685921793778739,-0.2495091580929831,0.41888580263627284,-0.6650640337315316,0.0
0.5043296140946806,-0.4503743328615695,-0.26519588990815196,-0.26620894047872845,0.5057222195385312,-0.31645872913325873,0.0
0.5043296140946806,-0.4503743328615695,-0.26519588990815196,-0.401044312684553,0.45144945424639094,-0.12656055316259313,0.0
0.5171091286224362,-0.5585934176711418,-0.19047701624040211,0.03747989508901143,0.6313248541342273,-0.22105095519887474,0.0
0.5767465648190754,-0.42873054115738624,-0.20406226329585475,0.13396758951636778,0.4134585147593098,-0.1549994176767476,0.0
0.5767465648190754,-0.42873054115738624,-0.20406226329585475,0.1370601535448752,0.10022724430225576,0.022055406262193284,0.0
0.3850541451689582,-0.42873054115738624,-0.18368437784991495,0.14571929661429894,-0.170361171561685,0.08718956314473436,0.0
0.4787705850391686,-0.4900546702728454,-0.24142168526696864,0.11479376194288272,-0.10523386834144859,0.16333230658391548,0.0
0.4787705850391686,-0.4900546702728454,-0.24142168526696864,-0.12889953062899687,-0.7572821598372543,0.07985050299269211,0.0
0.465991070511413,-0.4972692885556823,-0.20406226329585475,-0.2965159864847078,-1.0348485523812752,0.23947505247071216,0.0
0.6023055938745887,-0.5261276985427028,-0.3161405589347184,-0.14498080926163995,-0.3998573459839701,0.16424968967111725,0.0
0.6023055938745887,-0.5261276985427028,-0.3161405589347184,-0.10539611643313455,-0.18121572840269604,0.10278506478772378,0.0
0.5852662411709152,-0.5189130802598657,-0.2957626734887789,0.04119096287062109,-0.043983202020887825,0.14590203911618194,0.0
0.4404320414559003,-0.47923274284858985,-0.25840325151766474,-0.027463745826161037,0.031223320731144182,0.14590203911618194,0.0
0.4191328505763069,-0.48644736113142706,-0.22783643821151625,-0.16539167451666023,-0.12849363300075795,0.027559704785403778,0.0
0.5511875357635642,-0.48644736113142706,-0.3025553118792661,-0.3806334474295327,0.1413194668309966,-0.042161365085530464,0.0
0.66194303007123,-0.5080911528356105,-0.35689630010107604,-0.3367191981539807,0.3545338343611375,0.011964197897523895,0.0
0.5597072121154026,-0.5080911528356105,-0.2753848177683608,-0.09240738674133353,0.29560913505005015,0.16333230658391548,0.0
0.4063533360485509,-0.48644736113142706,-0.2074585824910982,0.053561181265487166,0.4708325820060248,0.4770770930303707,0.0
0.3893139833448767,-0.4323378502988046,-0.24142168526696864,-0.06581141936122333,0.43284164251894364,0.43212537770298326,0.0
0.5469276975876459,-0.4756254337071715,-0.2617995707129082,-0.07199652820503921,0.42896502453218277,0.26607915081046324,0.0
0.5895260793468338,-0.5044838436941917,-0.20066594410061098,-0.03612289643941752,0.0498311188649341,0.1266370082713198,0.0
0.4404320414559003,-0.500876597697101,-0.1667028413247406,-0.10663313902700444,-0.6254769213324092,0.022055406262193284,0.0
0.47451074686324973,-0.4395524685816418,-0.21425119115606364,-0.2693015045072358,-0.35488852438138324,0.22938384970059256,0.0
0.5256285067080525,-0.4648035694272433,-0.28897006482381343,-0.2173465857400317,0.0614609935112171,0.2422272017323174,0.0
0.4787705850391686,-0.5333422536812122,-0.17009913079446257,-0.021897147925662944,0.16923116550925296,-0.01922679909458647,0.0
0.4830304232150875,-0.5080911528356105,-0.24821432365745583,-0.12518846284738724,0.0498311188649341,-0.18435565408900428,0.0
0.5597072121154026,-0.4431597145787326,-0.2821774264333263,-0.19322466024723442,0.4723832140703969,-0.19261209068472035,0.0
0.6065654320505066,-0.4648035694272433,-0.22104382954655086,-0.2297167965910651,0.6468313639071003,-0.1348169897583092,0.0
0.4830304232150875,-0.468410878568662,-0.20406226329585475,-0.0812741918833164,1.0608548533232538,0.41928201448215857,0.0
0.34245606167599246,-0.4972692885556823,-0.13273970882334835,0.16180059033460728,0.6491573120036589,0.41286034406084615,0.0
0.3807943069930386,-0.5044838436941917,-0.15651389860177084,0.15870802630610004,-0.31612226886211586,-0.0540873340300536,0.0
0.5810064029949933,-0.45758895114440656,-0.42482256510386035,-0.2352834058073122,-1.1495966112230454,-0.435718463334888,0.0
0.6278646229301014,-0.5261276985427028,-0.24481800446221233,-0.2816717153582692,-0.010644229650354688,-0.21554665667566453,0.0
0.6023055938745887,-0.587451827658162,-0.21425119115606364,-0.05467822403171665,0.6615625198219572,-0.01739204410928256,0.0
0.5213686685321336,-0.4756254337071715,-0.27878113696360424,-0.05900779933834488,0.9763444601692135,0.15599324748085133,0.0
0.3765347670833419,-0.4323378502988046,-0.16330652212949692,0.05108713607774741,0.19946884065344023,0.028477082278055704,0.0
0.3850541451689582,-0.4395524685816418,-0.14292865154631815,0.14571929661429894,-0.744876952018956,-0.1008738490991434,0.0
0.5085894522705992,-0.4972692885556823,-0.1157581425726523,-0.029319275945049517,-0.8224094630574911,-0.09812168864843857,0.0
0.5810064029949933,-0.4900546702728454,-0.2923663840190569,-0.14992889963711944,-0.050961131418680645,-0.09445216748873114,0.0
0.5171091286224362,-0.4756254337071715,-0.42142624590861694,-0.23157233802570257,0.9523093983906328,0.0523290285589266,0.0
0.5256285067080525,-0.5044838436941917,-0.24821432365745583,0.06283884317567857,0.6576859018351965,-0.041243981998328745,0.0
0.5171091286224362,-0.48644736113142706,-0.13273970882334835,0.25581424711805656,0.17233246746382755,-0.1430734487322245,0.0
0.4830304232150875,-0.453981642002988,-0.15651389860177084,0.14819334180203875,-0.31612226886211586,-0.18802518643781121,0.0
0.4617312323354934,-0.453981642002988,-0.23802539579724669,-0.0880778114347053,-0.3168975848943021,-0.08069143236980462,0.0
0.49155009956692425,-0.47923274284858985,-0.25840325151766474,-0.05467822403171665,-0.03467930561362154,-0.10637814762235388,0.0
0.4872902613910057,-0.48284005199000835,-0.3501036914361106,-0.2328093606195725,0.45222477027857716,-0.4669094659215482,0.0
0.3893139833448767,-0.4503743328615695,-0.3738778663517721,-0.35280047678662363,0.042077869297754956,-0.7668935228436267,0.0
0.5639670502913211,-0.3565844846176716,-0.23802539579724669,-0.09859249593876658,0.14829738677233198,-0.08711310279111721,0.0
0.700281573654497,-0.4034794403117844,-0.14292865154631815,0.14510079286119668,0.19481688772157837,0.4981769152251103,0.0
0.568226888467239,-0.4070867494532028,-0.027454036712210764,0.20695187729169448,-0.5587989860478002,0.3431392741899118,0.0
0.5384080212358086,-0.453981642002988,-0.06141715435084213,0.42343069542993483,-1.5295057791388784,0.04957688209459625,0.0
0.5085894522705992,-0.4756254337071715,-0.21085487196082014,0.3411687306567514,-1.7248876887995876,0.1679192220199242,0.0
0.7386201172377652,-0.3132969012093047,-0.43840778243379147,-0.03921545103813403,-1.352731756857276,0.4614816141152399,0.0
0.4489517178077374,-0.3024749737850494,-0.47576723413042715,0.09809396446947204,-0.44482620541238654,0.1715887487741814,0.0
0.27003881268537544,-0.36379910290050865,-0.3670852279612852,-0.9267785982382781,0.7321170730933269,0.446803484720012,0.0
0.4191328505763069,-0.4756254337071715,-0.10896551904492603,-0.19384317154416936,0.24211170470301097,0.2743355874061793,0.0
0.5171091286224362,-0.48284005199000835,-0.16330652212949692,0.06036479798793882,-0.5285613203600706,0.2532357875896387,0.0
0.5341481830598896,-0.4395524685816418,-0.3738778663517721,-0.08436674553905384,-0.02460007898948285,0.11195889006519144,0.0
0.5341481830598896,-0.44676702372015115,-0.3229331675996841,-0.02066012533179306,0.1537246651928375,0.1192979491682556,0.0
0.6449039756337749,-0.4503743328615695,-0.2923663840190569,-0.19198763765336457,1.131409482246283,0.27525297049338104,0.0
0.4446918796318192,-0.5225203894012844,-0.3331221251854145,-0.4140330423763541,1.5213979477096855,-0.00913559632446683,0.0
0.6747225445989843,-0.4900546702728454,-0.2753848177683608,0.05974629423483655,1.5462083633462822,0.25140102141523524,0.0
0.3339363853241547,-0.34576262033774363,-0.19726962490536756,-0.03612289643941752,1.2042900214400407,0.2018623682736398,0.0
0.3467158998519117,-0.453981642002988,-0.1768917691849495,-0.08436674553905384,0.4072559486759905,0.028477082278055704,5.0
0.4617312323354934,-0.5585934176711418,-0.14972127507404445,-0.17033975734830706,-0.40761061978332136,0.11838056608105386,5.0
0.47025090868733116,-0.5189130802598657,-0.20406226329585475,-0.18889508871252256,-0.38900280805587373,0.010129437317670204,5.0
0.465991070511413,-0.500876597697101,-0.21085487196082014,-0.19198763765336457,-0.5851600337487693,-0.01922679909458647,5.0
0.568226888467239,-0.4611962602858252,-0.28897006482381343,-0.30084555801941976,-0.21222872903552692,0.0018729951274042956,5.0
0.5469276975876459,-0.468410878568662,-0.20066594410061098,-0.09982951853263647,-0.09437933041335243,-0.09903908292473992,5.0
0.3893139833448767,-0.3782283394661826,-0.3806704750167378,-0.20868742758294254,-0.47971584294489306,0.2422272017323174,5.0
0.3893139833448767,-0.4503743328615695,-0.2244401190162728,0.6757831235274054,-0.8208588309931183,-0.17701658939139028,5.0
0.32541670897231795,-0.3782283394661826,-0.36368893849156325,-0.15920656154731083,-0.7371237160454345,0.5045986080246223,5.0
0.32541670897231795,-0.32051151949214174,-0.2516106428526993,-0.4653694573904557,-1.4380175038693324,0.8293519747338488,5.0
0.5085894522705992,-0.5549861085297231,-0.3025553118792661,-0.27486809863581757,-0.5208080465607191,0.6321147340655692,5.0
0.5895260793468338,-0.5297350076841212,-0.33651841465513643,0.0665499109572882,-0.12616764707836955,0.691744623544583,5.0
0.6406441374578556,-0.5261276985427028,-0.4553893784100091,-0.030556298538919394,0.5933339146471461,0.08168526846777688,5.0
0.6108252702264252,-0.5622006636682326,-0.39765204126743386,-0.12085888754075902,0.5592196309726556,-0.24215075501541541,5.0
0.5085894522705992,-0.5116984619770288,-0.3331221251854145,-0.26868298566646825,0.2149753409698557,-0.17426445131888466,5.0
0.49155009956692425,-0.3132969012093047,-0.3738778663517721,-0.2835272567929067,1.0693834431547913,0.37799980912537895,5.0
0.4489517178077374,-0.41069405859462116,-0.2957626734887789,-0.02808225712309599,1.6857667621729895,0.9752158072752293,5.0
0.32541670897231795,-0.468410878568662,-0.2617995707129082,0.11788631088372471,1.3911433412692127,1.478858752908701,5.0
-0.48821074216393023,-0.003068946490590215,-0.46897459573993994,-1.5626078192080959,-2.6374453633925725,0.9898939366704572,5.0
-0.48821074216393023,-0.003068946490590215,-0.46897459573993994,-0.7424623071899933,-0.5704288400080826,0.25782270302564747,5.0
0.3765347670833419,-0.5441641811054678,-0.2753848177683608,-0.1511659222309893,-0.5758561278850456,0.6091802128310236,5.0
0.4063533360485509,-0.5189130802598657,-0.2516106428526993,0.40301983017491455,-0.978249763340917,0.9697114863738197,5.0
0.7599193081173566,-0.5585934176711418,-0.5402971204869247,-0.008908418233861896,0.19791818967615296,0.3128656435013538,5.0
0.5597072121154026,-0.5261276985427028,-0.3161405589347184,-0.07818163728459988,0.352207867351664,0.2202100188285751,5.0
0.5298883448839714,-0.5333422536812122,-0.33651841465513643,0.1568524999591279,0.5026209175839567,0.029394465365257447,5.0
0.43617220327998174,-0.6884562310405693,-0.41123728832288625,-0.25569425597466716,1.0352691594803007,-0.20637282580364694,5.0
0.4191328505763069,-0.59827369193809,-0.42142624590861694,-0.7826655641222623,0.9996042437414376,-0.022896331443393432,5.0
0.465991070511413,-0.5080911528356105,-0.2991589926840223,-0.583505001947539,0.901913288911083,0.2688312888829688,5.0
0.32541670897231795,-0.587451827658162,-0.21425119115606364,-0.3571300332336703,0.08549606711036958,0.16241492349671377,5.0
0.42339268875222613,-0.6090956193623454,-0.1938733354356456,-0.3732113420416439,-0.054062423916797754,0.10278506478772378,5.0
0.5810064029949933,-0.5189130802598657,-0.34331105304562365,-0.6101009952595738,-0.1959469032304679,0.2725008212317758,5.0
0.4446918796318192,-0.468410878568662,-0.3229331675996841,-0.6787557265878542,-0.25487160254155516,0.3679086063552593,5.0
0.24447978362986314,-0.48284005199000835,-0.28557374562856996,-0.2946604450500702,-1.099975779949852,0.7064227529398109,5.0
0.3467158998519117,-0.6559905119121308,-0.23802539579724669,-0.3292970625907615,-0.7045600644353163,0.20644928370964852,5.0
0.615085108402343,-0.7209219501690084,-0.3501036914361106,0.19705569654073551,0.1537246651928375,-0.0540873340300536,5.0
0.7045414118304162,-0.6018810010795084,-0.14972127507404445,-0.16477316321972527,-0.26262483851507656,-0.11922148846497915,5.0
0.4532115559836563,-0.42512323201596786,-0.5369008607427243,-1.21500466647031,-0.2944131551800939,-0.302697971636133,5.0
0.3765347670833419,-0.49366197941426393,-0.3840667942119812,-0.9286340793222544,-0.1564053316790143,-0.06968283532338362,5.0
0.3339363853241547,-0.6090956193623454,-0.23802539579724669,-0.12704399673819206,-0.44094958742562557,-0.0008791541342009515,5.0
0.372274928907423,-0.5694152819510694,-0.2685921793778739,-0.0249897006384213,-0.509953508632623,-0.0540873340300536,5.0
0.4404320414559003,-0.5441641811054678,-0.3602926192963197,-0.03674140773635245,-0.4440508893802004,-0.2733417576020756,5.0
0.42765252692814465,-0.6379540293493657,-0.3670852279612852,0.028820744475754993,-0.765035395810776,-0.6907508049295791,5.0
0.6278646229301014,-0.5766299002339066,-0.43840778243379147,0.23292933667529647,-0.10678451931873588,-0.6696509379784408,5.0
0.39783365969671414,-0.4215159228745492,-0.5029377282413321,0.34673535496066377,0.16147791062281652,0.33671760376859916,5.0
0.28281832721313144,-0.4900546702728454,-0.3942557220721902,0.1797373953142226,-0.2184313140317613,0.32570900672217823,5.0
0.20188170013689777,-0.6884562310405693,-0.32632948679492757,0.20014827565690826,-0.6851769745015123,-0.06234378181486929,5.0
0.45747139415957483,-0.580237209375325,-0.5199192647665066,-0.031174809835854345,-0.2920872070835352,-0.1751818232169868,5.0
0.4830304232150875,-0.41790861373313065,-0.5436934396821683,-0.14436229796470498,-0.16415856765253586,-0.0467482805215392,5.0
0.4872902613910057,-0.4503743328615695,-0.42482256510386035,0.060983316828706426,-0.2866599192065722,0.07342882557819225,5.0
0.4830304232150875,-0.5946663827966715,-0.42821882484806073,-0.08374823518509798,-0.5045262207556599,0.07709835652836178,5.0
0.568226888467239,-0.6090956193623454,-0.47576723413042715,-0.10848866914589292,-0.007542927695780118,-0.2036206877311413,5.0
0.4532115559836563,-0.5585934176711418,-0.4995414090460886,-0.09302589803826845,0.4498988221820185,-0.20086852728043647,5.0
0.35523557620374846,-0.5225203894012844,-0.4044446796579208,-0.11034420303669772,0.31344161183239666,-0.22288572137327828,5.0
0.3126371944445613,-0.5261276985427028,-0.39765204126743386,-0.02066012533179306,-0.1556299967339132,-0.1861904202634077,5.0
0.4404320414559003,-0.44676702372015115,-0.4485967400195219,-0.2260057438971208,-0.30604304696620593,-0.11371718994176865,5.0
0.5469276975876459,-0.42873054115738624,-0.46897459573993994,-0.2921863998623304,0.31189096085510926,-0.01739204410928256,5.0
0.5810064029949933,-0.4503743328615695,-0.46897459573993994,0.047994587136905395,0.4049299627536021,-0.031152779228209162,5.0
0.5511875357635642,-0.573022591092488,-0.5029377282413321,0.11479376194288272,0.3056883569459601,-0.17701658939139028,5.0
0.372274928907423,-0.44676702372015115,-0.4485967400195219,-0.19940976567275112,0.17233246746382755,-0.1916947187866182,5.0
0.3041175180927242,-0.44676702372015115,-0.4452004208242784,-0.701022103102181,0.09867659332496846,-0.29535890693851913,5.0
0.3850541451689582,-0.4359451594402231,-0.3806704750167378,-0.4919654205271602,-1.1666537908861203,-0.23114215796899454,5.0
0.4872902613910057,-0.5441641811054678,-0.4553893784100091,-0.08065568058638146,-1.0619848782886006,0.21470573149446423,5.0
0.4958099377428435,-0.5477714902468859,-0.4553893784100091,0.12530844644694394,-0.4704119370811694,-0.1008738490991434,5.0
0.42339268875222613,-0.4900546702728454,-0.42821882484806073,0.05417969256242209,-0.27580538127847604,-0.23114215796899454,5.0
0.4148730124003887,-0.4323378502988046,-0.4452004208242784,0.0257281879910803,-0.24324172966835794,-0.0770219000209976,5.0
0.4446918796318192,-0.42512323201596786,-0.5097303666318193,0.12097887491223208,-0.06801827325592597,-0.08160881545700634,5.0
0.5298883448839714,-0.4503743328615695,-0.5436934396821683,0.2774621198792814,0.25606756349859655,-0.07151760149778714,5.0
0.47025090868733116,-0.4359451594402231,-0.5131266263760197,0.19829273422227073,0.17853506191651927,-0.22013356092257363,5.0
0.35523557620374846,-0.42512323201596786,-0.4452004208242784,0.036861383792076506,0.022694745084292804,-0.14582558680473012,5.0
0.39783365969671414,-0.4648035694272433,-0.47916355332567057,-0.06828546289874968,0.11961036733366072,0.1917711655035202,5.0
0.47451074686324973,-0.500876597697101,-0.5097303666318193,-0.08684078884083543,0.38554683499396825,0.12847177444572327,5.0
0.4617312323354934,-0.5333422536812122,-0.462181957349453,-0.05344120143784677,0.5437131211997827,-0.13206485168580356,5.0
0.5043296140946806,-0.5044838436941917,-0.5199192647665066,-0.21549105939305951,0.7910417724044141,-0.032070162315410884,5.0
0.34245606167599246,-0.48284005199000835,-0.6455828371863445,-0.32867855883765923,0.2963844510822364,0.35781740358513975,5.0
0.3850541451689582,-0.36019179375909,-0.4452004208242784,-0.19940976567275112,0.3770182451624308,0.23764028629630868,5.0
0.3850541451689582,-0.36019179375909,-0.4452004208242784,-0.31259726511735075,-0.004441630469434248,0.06517238338792633,5.0
0.512849290446518,-0.500876597697101,-0.462181957349453,-0.29527896389083785,-0.01684682883127512,-0.035739683475118265,5.0
0.5085894522705992,-0.4900546702728454,-0.4452004208242784,-0.008908418233861896,-0.16648455357492423,-0.07426975075939238,5.0
0.5085894522705992,-0.4900546702728454,-0.4452004208242784,-0.03797843033022232,-0.02460007898948285,-0.020144182181788196,5.0
0.47025090868733116,-0.4070867494532028,-0.4553893784100091,-0.08931483214261701,-0.5851600337487693,-0.07518713384659415,5.0
0.5043296140946806,-0.47923274284858985,-0.46897459573993994,0.12592695020004624,-0.718515904317987,0.05783332428486218,5.0
0.5043296140946806,-0.47923274284858985,-0.46897459573993994,0.3844645063545318,-0.8154315809419851,0.2312186158749961,5.0
0.45747139415957483,-0.5044838436941917,-0.4553893784100091,0.22983678773445457,-0.567327575879338,0.09911553523619172,5.0
0.3637552525555862,-0.49366197941426393,-0.47576723413042715,-0.20497637488899825,-0.5091781926004367,-0.1632558542724637,5.0
0.3637552525555862,-0.49366197941426393,-0.47576723413042715,-0.19940976567275112,-0.5231340324831075,-0.1127998180436665,5.0
0.4063533360485509,-0.468410878568662,-0.5029377282413321,0.007172864170697483,-0.3308534247769728,0.060585470749192495,5.0
0.42339268875222613,-0.41430130459171227,-0.5199192647665066,0.09809396446947204,-0.2990651270248704,0.04040305681712861,5.0
0.42339268875222613,-0.3890502037461105,-0.5402971204869247,0.20014827565690826,-0.15175337874715242,0.10920674220222368,5.0
0.4958099377428435,-0.41790861373313065,-0.5912418489645345,0.4432230569318528,0.4638546620646893,0.34038713611740623,5.0
0.45747139415957483,-0.4359451594402231,-0.5504860780726554,0.4419859890749869,0.901913288911083,0.4532251775195237,5.0
0.4063533360485509,-0.468410878568662,-0.5199192647665066,0.27189552575069975,0.7933677583268022,0.289931099888609,5.0
0.42765252692814465,-0.5261276985427028,-0.39765204126743386,0.14757483804893648,0.6266728822894505,-0.05775686637886056,5.0
0.4106131742244698,-0.5116984619770288,-0.462181957349453,0.3325095875873276,0.8422132357419798,-0.022896331443393432,5.0
0.42765252692814465,-0.4900546702728454,-0.5097303666318193,0.2774621198792814,1.2725185887890222,0.19452331476512544,5.0
0.5767465648190754,-0.4323378502988046,-0.44180410162903494,0.3362206704566025,1.4384381866200175,0.1917711655035202,5.0
0.4787705850391686,-0.4070867494532028,-0.4587856381542093,0.5663067220397462,0.848415839651129,0.0715940608024262,5.0
0.4489517178077374,-0.41790861373313065,-0.4044446796579208,-0.530313105849461,0.08084411890673643,0.14865418837778716,5.0
0.5597072121154026,-0.4900546702728454,-0.4044446796579208,-0.1109627143336327,0.3506572163743767,0.08076788607989385,5.0
0.5085894522705992,-0.48284005199000835,-0.3806704750167378,-0.11776633482800065,0.2188519589566165,0.04774211592019276,5.0
0.4404320414559003,-0.44676702372015115,-0.35689630010107604,-0.1128182482244375,0.09557529137039389,0.03398138080126616,5.0
0.4617312323354934,-0.44676702372015115,-0.39085943260246825,-0.13446612475757863,0.1607025945906303,0.05783332428486218,5.0
0.4787705850391686,-0.4503743328615695,-0.40104836046267733,-0.13817719253918825,0.15992726910198665,0.08902432809533008,5.0
0.465991070511413,-0.453981642002988,-0.3806704750167378,-0.11591080093719584,0.10100256506267068,0.07985050299269211,5.0
0.4446918796318192,-0.45758895114440656,-0.39085943260246825,-0.11652931223413077,0.09247399177993366,0.062420236923595995,5.0
0.4446918796318192,-0.453981642002988,-0.41463360751813,-0.11962186494688913,0.09479996588175024,0.0826026508556599,5.0
0.465991070511413,-0.4648035694272433,-0.3840667942119812,-0.12271442143156383,0.06611294289690743,0.07893312130412782,5.0
0.47451074686324973,-0.4648035694272433,-0.3602926192963197,-0.10910718044282787,0.07231554325988505,0.08902432809533008,5.0
0.4787705850391686,-0.47923274284858985,-0.3806704750167378,-0.107870157848958,0.10100256506267068,0.08168526846777688,5.0
0.47451074686324973,-0.4756254337071715,-0.37727418554701586,-0.1128182482244375,0.11185711717545299,0.10003291762407475,5.0
0.47025090868733116,-0.4756254337071715,-0.4044446796579208,-0.10848866914589292,0.07386619305511516,0.09452862294711727,5.0
0.47451074686324973,-0.4648035694272433,-0.3806704750167378,-0.09055185473648689,0.09247399177993366,0.08443741563142594,5.0
0.45747139415957483,-0.4648035694272433,-0.4044446796579208,-0.09364440933520342,0.09247399177993366,0.08627218075685134,5.0
0.465991070511413,-0.4720181245657528,-0.39765204126743386,-0.09488143004311513,0.09092334316676073,0.08168526846777688,5.0
0.45747139415957483,-0.4648035694272433,-0.3840667942119812,-0.08065568058638146,0.08937269218947344,0.0715940608024262,5.0
0.4617312323354934,-0.4756254337071715,-0.3942557220721902,-0.06581141936122333,0.06688826838555108,0.08718956314473436,5.0
0.47025090868733116,-0.4756254337071715,-0.3840667942119812,-0.06952248466751286,0.06611294289690743,0.10370244787492554,5.0
0.4617312323354934,-0.4756254337071715,-0.37727418554701586,-0.06024482098923568,0.06378696879509085,0.08535479801930895,5.0
0.47451074686324973,-0.48284005199000835,-0.39765204126743386,-0.06766695207330428,0.0513817689556785,0.08076788607989385,5.0
0.4617312323354934,-0.4756254337071715,-0.41463360751813,-0.06395588688488714,0.03820124421865109,0.09361124055923423,5.0
0.465991070511413,-0.4900546702728454,-0.4078409691276428,-0.07880014763855574,0.027346695652040315,0.07893312130412782,5.0
0.4872902613910057,-0.4756254337071715,-0.3874631134072247,-0.06519290853577793,0.05913501881837194,0.08443741563142594,5.0
0.47451074686324973,-0.48284005199000835,-0.4078409691276428,-0.04540056023556708,0.08782204357630052,0.07251144388962795,5.0
0.4787705850391686,-0.48284005199000835,-0.3738778663517721,-0.03797843033022232,0.08394541849719665,0.07985050299269211,5.0
0.47025090868733116,-0.4756254337071715,-0.3738778663517721,-0.02560821193535623,0.06068566861360205,0.09544600533500028,5.0
0.47025090868733116,-0.4611962602858252,-0.39765204126743386,-0.02004161403485813,0.062236318408832154,0.10645459573789334,5.0
0.465991070511413,-0.4648035694272433,-0.3806704750167378,-0.026845234529226113,0.08472074162172594,0.10003291762407475,5.0
0.465991070511413,-0.453981642002988,-0.3840667942119812,-0.05158566943300013,0.07464151736170163,0.10278506478772378,5.0
0.465991070511413,-0.4648035694272433,-0.39085943260246825,-0.060863332286170614,0.06921424366942483,0.09819815284830868,5.0
0.4532115559836563,-0.4648035694272433,-0.39085943260246825,-0.050967158136065185,0.05060644405806344,0.09452862294711727,5.0
0.4489517178077374,-0.4756254337071715,-0.39085943260246825,-0.05034864683913024,0.040527219502524844,0.0826026508556599,5.0
0.47025090868733116,-0.45758895114440656,-0.3806704750167378,-0.04849311483428361,0.0513817689556785,0.10095030001195775,5.0
0.47025090868733116,-0.468410878568662,-0.39765204126743386,-0.04540056023556708,0.06533761859032097,0.09452862294711727,5.0
0.47025090868733116,-0.4503743328615695,-0.39085943260246825,-0.08436674553905384,0.12426231553729387,0.06700714956232982,5.0
0.465991070511413,-0.4503743328615695,-0.3806704750167378,-0.10168505053748308,0.07696749382763256,0.08902432809533008,5.0
0.47451074686324973,-0.4756254337071715,-0.3874631134072247,-0.10415909383926468,0.09712594234768117,0.08443741563142594,5.0
0.45747139415957483,-0.4900546702728454,-0.36368893849156325,-0.08745930013777037,0.08394541849719665,0.09452862294711727,5.0
0.45747139415957483,-0.45758895114440656,-0.37048154715652865,-0.08560376813292371,0.06766359387419472,0.10095030001195775,5.0
0.45747139415957483,-0.4648035694272433,-0.3602926192963197,-0.08560376813292371,0.06688826838555108,0.08810694553261739,5.0
0.4787705850391686,-0.47923274284858985,-0.3670852279612852,-0.06642993018666872,0.06611294289690743,0.10186768309915949,5.0
0.47025090868733116,-0.4648035694272433,-0.3874631134072247,-0.08684078884083543,0.08704671808765686,0.11746318579112701,5.0
0.4872902613910057,-0.4648035694272433,-0.3874631134072247,-0.10230356183441804,0.10720516897181984,0.09269385799652152,5.0
0.47451074686324973,-0.4720181245657528,-0.3840667942119812,-0.12828101933206193,0.08006879341809278,0.1192979491682556,5.0
0.47451074686324973,-0.48284005199000835,-0.3874631134072247,-0.11714782353106573,0.09014801767811709,0.10278506478772378,5.0
0.47451074686324973,-0.48284005199000835,-0.40104836046267733,-0.1239514440254337,0.08627139259901322,0.11746318579112701,5.0
0.4787705850391686,-0.49366197941426393,-0.4044446796579208,-0.13384761723256003,0.11495841440179885,0.1101241252894254,5.0
0.47025090868733116,-0.48284005199000835,-0.42142624590861694,-0.14745485444937967,0.11108179168680934,0.1248022448941912,5.0
0.47025090868733116,-0.4648035694272433,-0.39765204126743386,-0.17095826864524197,0.10332854152860162,0.14406727853632822,5.0
0.45747139415957483,-0.49366197941426393,-0.37048154715652865,-0.14931038834018448,0.07154021777124141,0.1275543913585215,5.0
0.465991070511413,-0.4720181245657528,-0.3670852279612852,-0.14931038834018448,0.04595449437685882,0.14681942220338368,5.0
0.4532115559836563,-0.468410878568662,-0.3670852279612852,-0.1585880502503759,0.032773969344317117,0.14773680529058544,5.0
0.45747139415957483,-0.468410878568662,-0.3806704750167378,-0.12951804192593183,0.004862270666060781,0.17801043038459366,5.0
0.47025090868733116,-0.468410878568662,-0.3840667942119812,-0.14559932055857486,0.011840195335624857,0.165167072758319,5.0
0.4872902613910057,-0.47923274284858985,-0.37727418554701586,-0.13199208334175522,0.025020719186109385,0.19452331476512544,5.0
0.4958099377428435,-0.4720181245657528,-0.3942557220721902,-0.1239514440254337,0.045179168888215174,0.16700183893272247,5.0
0.4872902613910057,-0.47923274284858985,-0.39765204126743386,-0.14065123772692803,0.05603371878464027,0.11746318579112701,5.0
0.4958099377428435,-0.4972692885556823,-0.39085943260246825,-0.13508463605451357,0.05758436872762753,0.1248022448941912,5.0
0.4958099377428435,-0.4972692885556823,-0.39085943260246825,-0.1239514440254337,0.08782204357630052,0.10645459573789334,5.0
0.4830304232150875,-0.5044838436941917,-0.39085943260246825,-0.12580697414432218,0.11805971635637343,0.09728077046042566,5.0
0.465991070511413,-0.500876597697101,-0.37727418554701586,-0.11158122563056762,0.16845584002060932,0.06517238338792633,5.0
0.465991070511413,-0.500876597697101,-0.37727418554701586,-0.11962186494688913,0.16225323611146017,0.08627218075685134,5.0
0.47025090868733116,-0.49366197941426393,-0.4180299267133734,-0.1400327264299931,0.18008571289380657,0.07251144388962795,5.0
0.47451074686324973,-0.500876597697101,-0.39765204126743386,-0.13013655322286674,0.13511686292184746,0.10461982956348982,5.0
0.47451074686324973,-0.500876597697101,-0.39765204126743386,-0.11591080093719584,0.11961036733366072,0.09452862294711727,5.0
0.45747139415957483,-0.4972692885556823,-0.39085943260246825,-0.12085888754075902,0.11340776815274028,0.1229674787197877,5.0
0.4532115559836563,-0.500876597697101,-0.4044446796579208,-0.1400327264299931,0.09712594234768117,0.1248022448941912,5.0
0.4532115559836563,-0.500876597697101,-0.4044446796579208,-0.1387957038361232,0.12891426846915574,0.12205009842986086,5.0
0.47451074686324973,-0.49366197941426393,-0.39085943260246825,-0.14312528291466778,0.1335662166727889,0.1192979491682556,5.0
0.45747139415957483,-0.468410878568662,-0.4044446796579208,-0.16601018581359514,0.09790126783632482,0.1101241252894254,5.0
0.45747139415957483,-0.468410878568662,-0.4044446796579208,-0.16786571216056728,0.0699895679760113,0.1715887487741814,5.0
0.4532115559836563,-0.48284005199000835,-0.4044446796579208,-0.14683634315244476,0.058359693625242584,0.1715887487741814,5.0
0.4617312323354934,-0.5080911528356105,-0.4044446796579208,-0.14559932055857486,0.06611294289690743,0.14406727853632822,5.0
0.4446918796318192,-0.5189130802598657,-0.4180299267133734,-0.12828101933206193,0.05991034371598699,0.14223251236192475,5.0
0.4446918796318192,-0.5189130802598657,-0.4180299267133734,-0.11591080093719584,0.06843891818078118,0.10186768309915949,5.0
0.42339268875222613,-0.5080911528356105,-0.42142624590861694,-0.13941421513305813,0.05680904383001248,0.11287627315239318,5.0
0.43617220327998174,-0.5189130802598657,-0.43840778243379147,-0.1313735720448203,0.0614609935112171,0.10370244787492554,5.0
0.43617220327998174,-0.5297350076841212,-0.42482256510386035,-0.11343675574945608,0.052932418898665755,0.1192979491682556,5.0
0.4148730124003887,-0.5153057711184473,-0.41463360751813,-0.0812741918833164,-0.011419555138998342,0.1578280136552548,5.0
0.39783365969671414,-0.5189130802598657,-0.41463360751813,-0.07508908268588335,-0.054837749405441415,0.17801043038459366,5.0
0.3807943069930386,-0.4756254337071715,-0.40104836046267733,-0.08374823518509798,-0.1571806477112005,0.24406196790672088,5.0
0.4063533360485509,-0.45758895114440656,-0.4044446796579208,-0.10725165032393937,-0.24324172966835794,0.30552660118193903,5.0
0.4617312323354934,-0.45758895114440656,-0.41123728832288625,-0.10601462773006952,-0.23083652185005962,0.32846114479468386,5.0
0.4872902613910057,-0.48284005199000835,-0.40104836046267733,-0.14250677161773284,-0.18509234638945682,0.3064439730800412,5.0
0.47451074686324973,-0.49366197941426393,-0.39765204126743386,-0.14807336574631463,-0.16648455357492423,0.2743355874061793,5.0
0.465991070511413,-0.500876597697101,-0.36368893849156325,-0.17095826864524197,-0.19284560127589323,0.26424438463605976,5.0
0.45747139415957483,-0.4900546702728454,-0.37727418554701586,-0.19198763765336457,-0.20912742708095228,0.2890137056123076,5.0
0.4872902613910057,-0.48284005199000835,-0.3806704750167378,-0.23466488696654458,-0.1564053316790143,0.2871789394379041,5.0
0.4787705850391686,-0.468410878568662,-0.39085943260246825,-0.2699200082603381,-0.10678451931873588,0.31928733630086564,5.0
0.5085894522705992,-0.48644736113142706,-0.37048154715652865,-0.27857916641742725,-0.010644229650354688,0.2770877366677845,5.0
0.4958099377428435,-0.500876597697101,-0.3806704750167378,-0.28971235467459083,0.020368770982476248,0.24773150025552787,5.0
0.4872902613910057,-0.49366197941426393,-0.40104836046267733,-0.3422857922825626,0.021919419595649164,0.21287096532006078,5.0
0.4872902613910057,-0.4972692885556823,-0.3942557220721902,-0.37382984579474626,0.07619216833898891,0.2238795511773821,5.0
0.47025090868733116,-0.49366197941426393,-0.39085943260246825,-0.3806334474295327,0.08472074162172594,0.19819284711393242,5.0
0.45747139415957483,-0.500876597697101,-0.39085943260246825,-0.3744483495478485,0.09169866865540438,0.18901901624191497,5.0
0.4617312323354934,-0.5080911528356105,-0.3806704750167378,-0.39424071104976655,0.14209479231964026,0.1899363993291167,5.0
0.465991070511413,-0.5297350076841212,-0.3942557220721902,-0.37073729685390433,0.16690518904332202,0.16883660510712598,5.0
0.465991070511413,-0.5189130802598657,-0.39765204126743386,-0.37815940224179284,0.19094026027836014,0.10920674220222368,5.0
0.47025090868733116,-0.5261276985427028,-0.39085943260246825,-0.3930036733682315,0.23901040274843638,0.08718956314473436,5.0
0.4830304232150875,-0.5261276985427028,-0.4078409691276428,-0.40722944074156764,0.2801026441900921,0.0385682906427251,5.0
0.4787705850391686,-0.5080911528356105,-0.4044446796579208,-0.43073285493743,0.32197018275101913,0.06425500030072459,5.0
0.47451074686324973,-0.5080911528356105,-0.43161514404330426,-0.4548547728863946,0.3661637072343347,0.045907352543064175,5.0
0.45747139415957483,-0.4972692885556823,-0.42142624590861694,-0.4789766908353591,0.3847715189617821,0.03948567372992687,5.0
0.45747139415957483,-0.4972692885556823,-0.3874631134072247,-0.5142317970414874,0.42043647252647476,-0.002713920308604422,5.0
0.45747139415957483,-0.5080911528356105,-0.4044446796579208,-0.5315501133556655,0.40648059481797455,0.0018729951274042956,5.0
0.43617220327998174,-0.5080911528356105,-0.3874631134072247,-0.5569090689861654,0.42121178855866104,0.020220640087789815,5.0
0.45747139415957483,-0.49366197941426393,-0.40104836046267733,-0.6125750706226444,0.4661806101612479,0.07618097344116002,5.0
0.4617312323354934,-0.48284005199000835,-0.4044446796579208,-0.7140108327939823,0.48711440781108367,0.10920674220222368,5.0
0.42339268875222613,-0.48284005199000835,-0.39765204126743386,-0.6973110202329063,0.45222477027857716,0.05324641164612833,5.0
0.4148730124003887,-0.4503743328615695,-0.3738778663517721,-0.7257625549795788,0.3653883912021485,0.07251144388962795,5.0
0.4020934978726327,-0.42873054115738624,-0.37048154715652865,-0.7152478403001867,0.10100256506267068,0.05324641164612833,5.0
0.4319123651040629,-0.4323378502988046,-0.41463360751813,-0.7034961181145902,-0.057163725871372355,0.04132043990433036,5.0
0.47025090868733116,-0.45758895114440656,-0.41463360751813,-0.642882086453293,-0.07887283009693698,0.0385682906427251,5.0
0.4787705850391686,-0.47923274284858985,-0.42482256510386035,-0.5822679944413344,-0.040881900066313266,-0.024731097617796922,5.0
0.5085894522705992,-0.48284005199000835,-0.4452004208242784,-0.5210354288516043,0.045179168888215174,-0.1449081925284288,5.0
0.5085894522705992,-0.4648035694272433,-0.4553893784100091,-0.4220736816926755,0.1428701178082839,-0.27701128995088264,5.0
0.5043296140946806,-0.42512323201596786,-0.4587856381542093,-0.3849630340519098,0.18706364229159936,-0.37975810620468126,5.0
0.47451074686324973,-0.3710137211833454,-0.4519930592147656,-0.301464061772522,0.13434153743320382,-0.43847057902919445,5.0
0.4958099377428435,-0.3385480020549066,-0.46897459573993994,-0.26682745931949603,0.26924808734908107,-0.38159289475728403,5.0
0.5171091286224362,-0.32051151949214174,-0.4553893784100091,-0.15982507284424577,0.3506572163743767,-0.2504071916111316,5.0
0.5213686685321336,-0.3132969012093047,-0.4485967400195219,-0.12147739883769394,0.3971766889542506,-0.19444685685912386,5.0
0.5341481830598896,-0.31690421035072336,-0.42821882484806073,-0.0552967343856725,0.3917494389031176,-0.13756915020901403,5.0
0.5256285067080525,-0.3132969012093047,-0.4553893784100091,-0.04168949433991561,0.30956499384563574,-0.09903908292473992,5.0
0.5597072121154026,-0.3385480020549066,-0.47237091493518335,0.020161593862498516,0.3343753905693174,-0.0467482805215392,5.0
0.5469276975876459,-0.3385480020549066,-0.43161514404330426,0.1327305820101632,0.39872735884445276,-0.002713920308604422,5.0
0.49155009956692425,-0.2808311820808657,-0.42482256510386035,0.15252292842441587,0.3328247395920302,-0.006383447062861614,5.0
0.4830304232150875,-0.22311436210682517,-0.42142624590861694,0.11664928828985484,0.25606756349859655,0.03581614697566967,5.0
0.4958099377428435,-0.20868515711331495,-0.43840778243379147,0.07459055027360972,0.08782204357630052,0.12847177444572327,5.0
0.5085894522705992,-0.21229243468256967,-0.47237091493518335,0.004080307686022792,0.03199864385567347,0.1835147233132543,5.0
0.5384080212358086,-0.2447581538110086,-0.4655782765446964,0.06036479798793882,0.08859736670082978,0.28534417326350064,5.0
0.542667859411727,-0.27722387293944734,-0.4553893784100091,0.12159737866533435,0.12193633907136295,0.3082787392544447,5.0
0.5469276975876459,-0.30968959206788627,-0.44180410162903494,0.10984567156740319,0.10798048973223477,0.31836994202456426,5.0
0.5597072121154026,-0.30968959206788627,-0.4519930592147656,0.11108269416127307,0.10332854152860162,0.2807572690165915,5.0
0.6023055938745887,-0.31690421035072336,-0.4485967400195219,0.09871248331023964,0.10177789055131432,0.21470573149446423,5.0
0.5852662411709152,-0.30968959206788627,-0.462181957349453,0.0665499109572882,0.11340776815274028,0.0826026508556599,5.0
0.5724867266431576,-0.3132969012093047,-0.47916355332567057,0.01335797714004688,0.07231554325988505,0.056915941197660413,5.0
0.5171091286224362,-0.3565844846176716,-0.4587856381542093,0.05232415867161729,0.04440384458162871,0.165167072758319,5.0
0.4787705850391686,-0.39987213117036574,-0.4825598725209141,0.08757927996541076,0.15760129263605574,0.393595310418709,5.0
0.43617220327998174,-0.48284005199000835,-0.462181957349453,0.11850482972449236,0.15294933970419386,0.5568893880496236,5.0
0.4148730124003887,-0.5441641811054678,-0.44180410162903494,0.1463378154550666,0.1917155857670038,0.6183540213248417,5.0
0.42765252692814465,-0.5694152819510694,-0.42821882484806073,0.1797373953142226,0.18551299131431206,0.6568840886091161,5.0
0.3807943069930386,-0.5838445185167433,-0.4452004208242784,0.19581868903453092,0.083170093008553,0.6789012379455593,5.0
0.35523557620374846,-0.5946663827966715,-0.43840778243379147,0.20262229066931717,0.06533761859032097,0.634866894516274,5.0
0.3850541451689582,-0.6235247927836918,-0.39085943260246825,0.2452995626139953,0.05680904383001248,0.6137671170779329,5.0
0.4063533360485509,-0.6523832027707119,-0.37727418554701586,0.30838766963836295,0.03665059442342098,0.5825761144912727,5.0
0.43617220327998174,-0.6090956193623454,-0.3602926192963197,0.3139542637669447,0.05060644405806344,0.5587241766022263,5.0
0.465991070511413,-0.5333422536812122,-0.30934792054423144,0.2805546688201235,0.09945191881361211,0.5064333518208266,5.0
0.4872902613910057,-0.4756254337071715,-0.2753848177683608,0.2929248947588223,0.11418309364138392,0.43120798342668193,5.0
0.568226888467239,-0.4756254337071715,-0.2923663840190569,0.29910999264050625,0.10487919250588891,0.24039243555791395,5.0
0.5085894522705992,-0.4503743328615695,-0.3025553118792661,0.17540782377951064,0.21807664292443027,0.036733524468321635,5.0
0.3850541451689582,-0.500876597697101,-0.22104382954655086,0.022635639050238267,0.21652599194714298,0.023890172436596788,5.0
0.2870781653890496,-0.48644736113142706,-0.1938733354356456,0.09685694187560216,0.2142000060247546,0.12205009842986086,5.0
0.29133800356496853,-0.500876597697101,-0.20066594410061098,0.15747100371223016,0.07851814244080549,0.04957688209459625,5.0
0.29133800356496853,-0.500876597697101,-0.20066594410061098,0.1939631475998934,0.011840195335624857,0.0523290285589266,5.0
0.4106131742244698,-0.5910590736552528,-0.2923663840190569,0.29910999264050625,0.19791818967615296,-0.052252567855650106,5.0
0.3850541451689582,-0.59827369193809,-0.28897006482381343,0.40054578498717475,0.11728439086772978,-0.23297692414339807,5.0
0.3850541451689582,-0.59827369193809,-0.28897006482381343,0.5366181797868692,-0.1866429973667441,-0.2926067912442127,5.0
0.5469276975876459,-0.7317438775932639,-0.3806704750167378,0.680731213902885,-0.1362468689742795,-0.28710247034280295,5.0
0.5384080212358086,-0.7569949784388658,-0.4452004208242784,0.7660856974415797,0.03897656970729473,-0.17151229086817982,5.0
0.5384080212358086,-0.7569949784388658,-0.4452004208242784,0.694338477523119,0.09169866865540438,-0.03665706656232001,5.0
0.4319123651040629,-0.6199175467866009,-0.4044446796579208,0.6924829360884813,0.0699895679760113,0.026642321698202014,5.0
0.39357382152079456,-0.5189130802598657,-0.3229331675996841,0.6349613930173649,-0.21610534702228779,-0.058674249466062325,5.0
0.39357382152079456,-0.5189130802598657,-0.3229331675996841,0.5681622634743837,-0.32542617472583957,-0.16142108809806022,5.0
0.47451074686324973,-0.5116984619770288,-0.3161405589347184,0.5075481714624251,-0.2618495224828904,-0.16600799234496932,5.0
0.4787705850391686,-0.4611962602858252,-0.30934792054423144,0.4988889982176704,-0.23161183788224585,-0.1027086152735469,5.0
0.4787705850391686,-0.4611962602858252,-0.30934792054423144,0.39126813816464867,-0.17656377547083416,-0.01739204410928256,5.0
0.45747139415957483,-0.4395524685816418,-0.2923663840190569,0.29106935332418477,-0.16725986960711042,0.0009556120402025396,5.0
0.47025090868733116,-0.4034794403117844,-0.2719884985731173,0.1568524999591279,-0.13237025098751873,0.03581614697566967,5.0
0.5085894522705992,-0.39626482202894725,-0.24481800446221233,0.06036479798793882,-0.1176390761597469,0.08902432809533008,5.0
0.5171091286224362,-0.38544289460469194,-0.23802539579724669,-0.05900779933834488,-0.19749755420775514,0.14039774618752124,5.0
0.5171091286224362,-0.4215159228745492,-0.23802539579724669,-0.11219973692750257,-0.20370013920398947,0.1550758643936496,5.0
0.5213686685321336,-0.4323378502988046,-0.2991589926840223,-0.19322466024723442,-0.17888974248030767,0.1431498954491265,5.0
0.5085894522705992,-0.47923274284858985,-0.3501036914361106,-0.2526017070338251,-0.0618156788032342,0.12388486180698943,5.0
0.49155009956692425,-0.5441641811054678,-0.3399147338503801,-0.29527896389083785,0.04905579396731904,0.07709835652836178,5.0
0.49155009956692425,-0.5477714902468859,-0.3467073722408672,-0.3064121521480014,0.06766359387419472,0.06517238338792633,5.0
0.4787705850391686,-0.5044838436941917,-0.3161405589347184,-0.2730125722888454,0.005637596154704417,0.09728077046042566,5.0
0.4787705850391686,-0.5080911528356105,-0.3161405589347184,-0.1913691263564296,-0.012970201388056922,0.1229674787197877,5.0
0.465991070511413,-0.49366197941426393,-0.32632948679492757,-0.15302145612179413,-0.05871437684865964,0.15048895455219066,5.0
0.4872902613910057,-0.500876597697101,-0.3501036914361106,-0.18580253222784782,0.0002103224624276123,0.060585470749192495,5.0
0.4830304232150875,-0.4972692885556823,-0.40104836046267733,-0.2303353154318327,0.05060644405806344,0.05141164547172484,5.0
0.4787705850391686,-0.4503743328615695,-0.4180299267133734,-0.24827213549911323,0.12193633907136295,0.030311848452459204,5.0
0.4787705850391686,-0.4395524685816418,-0.42821882484806073,-0.3719743043601089,0.1715571419751839,0.048659499007394524,5.0
0.4787705850391686,-0.4503743328615695,-0.4350114632385477,-0.43815496032531853,0.16147791062281652,0.042237822991532094,5.0
0.4787705850391686,-0.4972692885556823,-0.4180299267133734,-0.3979517637437109,0.15605064165876845,0.07342882557819225,5.0
0.4830304232150875,-0.5297350076841212,-0.41463360751813,-0.3775408984886906,0.19326623674429108,0.056915941197660413,5.0
0.4787705850391686,-0.5513787993883046,-0.39765204126743386,-0.3095047010888435,0.20722208608341924,0.01930326259513785,5.0
0.4787705850391686,-0.5694152819510694,-0.3874631134072247,-0.22909829283796282,0.23203248280710104,-0.00913559632446683,5.0
0.43617220327998174,-0.5622006636682326,-0.3670852279612852,-0.10292207124539483,0.22738052987523916,0.0046251387944597315,5.0
0.4191328505763069,-0.5405568719640492,-0.30934792054423144,-0.0181860801440533,0.17620908545058833,-0.03757444964952174,5.0
0.42765252692814465,-0.48644736113142706,-0.28897006482381343,0.01212095454617699,0.10410386701724526,-0.04399613125993398,5.0
0.465991070511413,-0.4611962602858252,-0.2957626734887789,-0.012000970946620245,0.07154021777124141,-0.003631297801256377,5.0
0.4872902613910057,-0.4431597145787326,-0.30934792054423144,-0.02560821193535623,0.040527219502524844,0.07342882557819225,5.0
0.45747139415957483,-0.4215159228745492,-0.3195368781299622,-0.09055185473648689,-0.005992276718492828,0.1110415069779897,5.0
0.47025090868733116,-0.4359451594402231,-0.3229331675996841,-0.15982507284424577,-0.0013403285148596772,0.11287627315239318,5.0
0.465991070511413,-0.4611962602858252,-0.32632948679492757,-0.21116147277068228,-0.010644229650354688,0.10461982956348982,5.0
0.465991070511413,-0.5044838436941917,-0.3229331675996841,-0.20806892382984027,0.042853194786398596,0.062420236923595995,5.0
0.4404320414559003,-0.500876597697101,-0.3229331675996841,-0.23590190956041446,0.06766359387419472,0.04315520607873383,5.0
0.4148730124003887,-0.47923274284858985,-0.2923663840190569,-0.2210576535216413,-0.07577152814236239,0.14223251236192475,5.0
0.4958099377428435,-0.48284005199000835,-0.3738778663517721,-0.2117799916114499,-0.20292482317180321,0.19085378241631845,5.0
0.5724867266431576,-0.5116984619770288,-0.44180410162903494,-0.16848422345750225,-0.050961131418680645,0.23488813703470343,5.0
0.4958099377428435,-0.5441641811054678,-0.43840778243379147,-0.15735102765650602,0.09635061685903752,0.255987936851244,5.0
0.3893139833448767,-0.5513787993883046,-0.4078409691276428,-0.14126974902386297,0.06921424366942483,0.2018623682736398,5.0
0.3893139833448767,-0.5513787993883046,-0.4078409691276428,-0.08622227848687956,-0.0013403285148596772,0.10828936051365937,5.0
0.4319123651040629,-0.580237209375325,-0.3806704750167378,0.0257281879910803,0.04905579396731904,0.036733524468321635,5.0
0.4958099377428435,-0.5910590736552528,-0.39085943260246825,0.09994949081644415,0.12736361749186845,0.007377288056064968,5.0
0.512849290446518,-0.5585934176711418,-0.3874631134072247,0.12097887491223208,0.1358921884104911,-0.021061565268989942,5.0
0.5000697759187617,-0.48284005199000835,-0.3806704750167378,0.08572375361843862,0.11185711717545299,-0.0045486808884581224,5.0
0.4787705850391686,-0.4503743328615695,-0.3534999809058325,0.03253181225736461,0.12426231553729387,0.0027903726200562405,5.0
0.4787705850391686,-0.4395524685816418,-0.3331221251854145,0.01212095454617699,0.1103064661981657,-0.006383447062861614,5.0
0.4787705850391686,-0.4359451594402231,-0.3161405589347184,0.006554352873762559,0.07076489346465493,0.026642321698202014,5.0
0.4404320414559003,-0.4323378502988046,-0.30934792054423144,0.007791375467632422,0.014941494926085075,0.016551113333532624,5.0
0.4446918796318192,-0.4648035694272433,-0.32632948679492757,-0.002104797739493919,-0.01994813078584971,0.01930326259513785,5.0
0.4617312323354934,-0.49366197941426393,-0.37048154715652865,0.02387266164410816,0.01804279451654529,0.018385879507936125,5.0
0.4872902613910057,-0.5333422536812122,-0.41123728832288625,0.04613905324610059,0.09247399177993366,0.01930326259513785,5.0
0.4787705850391686,-0.5189130802598657,-0.43161514404330426,0.030676278366559808,0.14054414134235296,0.02113802317499155,5.0
0.465991070511413,-0.500876597697101,-0.39085943260246825,-0.0033418203333638093,0.17853506191651927,0.030311848452459204,5.0
0.4787705850391686,-0.4611962602858252,-0.3399147338503801,-0.02127863662872799,0.1444207687855712,0.05875070737206391,5.0
0.47025090868733116,-0.4359451594402231,-0.30934792054423144,-0.03364885502359408,0.07154021777124141,0.07067667911386191,5.0
0.47451074686324973,-0.42512323201596786,-0.3025553118792661,-0.03550438514248257,0.004086945177417119,0.13764559972319093,5.0
0.4872902613910057,-0.4503743328615695,-0.3161405589347184,-0.023752678044551414,-0.07111957521050052,0.09636338807254265,5.0
0.47451074686324973,-0.48644736113142706,-0.3399147338503801,-0.008908418233861896,-0.06569230624645245,0.06333762001079775,5.0
0.4958099377428435,-0.4756254337071715,-0.3534999809058325,-0.004578842927233686,-0.015296177853987849,0.036733524468321635,5.0
0.4830304232150875,-0.468410878568662,-0.3670852279612852,-0.0181860801440533,0.07774281695216184,3.822895300081491e-05,5.0
0.5000697759187617,-0.47923274284858985,-0.3874631134072247,-0.03303034372665915,0.12116101831094801,0.015633730246330888,5.0
0.4958099377428435,-0.4756254337071715,-0.37048154715652865,-0.0181860801440533,0.12968958922957066,0.018385879507936125,5.0
0.4872902613910057,-0.4756254337071715,-0.36368893849156325,-0.04045247363200391,0.10720516897181984,0.033063997714064444,5.0
0.45747139415957483,-0.4503743328615695,-0.3399147338503801,-0.04849311483428361,0.08627139259901322,0.04407258636866068,5.0
0.47025090868733116,-0.4503743328615695,-0.3501036914361106,-0.057152267333498236,0.05991034371598699,0.07251144388962795,5.0
0.47451074686324973,-0.48284005199000835,-0.32972580599017104,-0.02993778724198446,0.09402464275722096,0.0826026508556599,5.0
0.4617312323354934,-0.48644736113142706,-0.32972580599017104,-0.03488587384554763,0.05603371878464027,0.07985050299269211,5.0
0.4446918796318192,-0.4756254337071715,-0.3399147338503801,-0.05220418072993507,-0.008318253184423753,0.08535479801930895,5.0
0.45747139415957483,-0.47923274284858985,-0.3534999809058325,-0.0565337560365633,-0.033128654636334236,0.10920674220222368,5.0
0.4830304232150875,-0.48644736113142706,-0.3501036914361106,-0.0342673625486127,-0.0013403285148596772,0.11838056608105386,5.0
0.4958099377428435,-0.47923274284858985,-0.3501036914361106,-0.06271886523399635,0.07386619305511516,0.1101241252894254,5.0
0.4830304232150875,-0.4720181245657528,-0.34331105304562365,-0.08931483214261701,0.032773969344317117,0.11746318579112701,5.0
0.4872902613910057,-0.4648035694272433,-0.33651841465513643,-0.09488143004311513,0.006412921643348044,0.12113271534265911,5.0
0.4787705850391686,-0.44676702372015115,-0.3534999809058325,-0.07447057186043796,0.0009856479510712748,0.09269385799652152,5.0
0.47025090868733116,-0.4648035694272433,-0.3501036914361106,-0.07570759351132875,0.029672669753856892,0.13489345325886057,5.0
0.47451074686324973,-0.4611962602858252,-0.3331221251854145,-0.10292207124539483,0.042853194786398596,0.10828936051365937,5.0
0.47025090868733116,-0.468410878568662,-0.3501036914361106,-0.11962186494688913,0.02889734426521324,0.09819815284830868,5.0
0.49155009956692425,-0.4720181245657528,-0.32632948679492757,-0.13013655322286674,0.022694745084292804,0.10370244787492554,5.0
0.49155009956692425,-0.4648035694272433,-0.36368893849156325,-0.127662508035127,0.040527219502524844,0.08902432809533008,5.0
0.4787705850391686,-0.45758895114440656,-0.3399147338503801,-0.11652931223413077,0.04362851909298506,0.12021533225545734,5.0
0.4872902613910057,-0.4756254337071715,-0.32972580599017104,-0.11529228964026092,0.06688826838555108,0.1101241252894254,5.0
0.4787705850391686,-0.4756254337071715,-0.3467073722408672,-0.10972569173976279,0.0699895679760113,0.10461982956348982,5.0
0.4787705850391686,-0.468410878568662,-0.3467073722408672,-0.09302589803826845,0.06611294289690743,0.09177647552122367,5.0
0.4830304232150875,-0.47923274284858985,-0.32632948679492757,-0.08189270223727226,0.042853194786398596,0.07434620866539399,5.0
0.47025090868733116,-0.4611962602858252,-0.3331221251854145,-0.07447057186043796,0.004086945177417119,0.060585470749192495,5.0
0.4787705850391686,-0.4503743328615695,-0.3059516310745095,-0.0633373755879522,0.027346695652040315,0.06792453125089412,5.0
0.5085894522705992,-0.4648035694272433,-0.3399147338503801,-0.07880014763855574,0.042077869297754956,0.10553721265069158,5.0
0.5000697759187617,-0.453981642002988,-0.3399147338503801,-0.07014099555189444,0.052932418898665755,0.10186768309915949,5.0
0.4830304232150875,-0.468410878568662,-0.32972580599017104,-0.07941865893549067,0.06068566861360205,0.0826026508556599,5.0
0.4830304232150875,-0.47923274284858985,-0.3399147338503801,-0.06148184358310555,0.0614609935112171,0.06792453125089412,5.0
0.4872902613910057,-0.468410878568662,-0.3501036914361106,-0.059626310635279824,0.07076489346465493,0.09361124055923423,5.0
0.4830304232150875,-0.468410878568662,-0.33651841465513643,-0.04973013554219531,0.09169866865540438,0.060585470749192495,5.0
0.4872902613910057,-0.48284005199000835,-0.3602926192963197,-0.050967158136065185,0.1320155656955016,0.04132043990433036,5.0
0.4830304232150875,-0.4900546702728454,-0.35689630010107604,-0.04849311483428361,0.1459714197628585,0.0046251387944597315,5.0
0.4872902613910057,-0.47923274284858985,-0.36368893849156325,-0.03179332113278928,0.18938960930107285,-0.028400629966603905,5.0
0.4872902613910057,-0.468410878568662,-0.37727418554701586,-0.04168949433991561,0.2173013079793292,-0.016474661022080794,5.0
0.4830304232150875,-0.4648035694272433,-0.35689630010107604,-0.04725609224041372,0.22350391188847832,-0.012805128673273833,5.0
0.4830304232150875,-0.4648035694272433,-0.35689630010107604,-0.04849311483428361,0.21032338803799383,-0.0045486808884581224,5.0
0.45747139415957483,-0.468410878568662,-0.3501036914361106,-0.04540056023556708,0.18396234033702477,-0.01739204410928256,5.0
0.465991070511413,-0.453981642002988,-0.3467073722408672,-0.05158566943300013,0.14209479231964026,0.018385879507936125,5.0
0.45747139415957483,-0.453981642002988,-0.3331221251854145,-0.05467822403171665,0.11495841440179885,0.03948567372992687,5.0
0.45747139415957483,-0.453981642002988,-0.3331221251854145,-0.06148184358310555,0.07386619305511516,0.07801573821692608,5.0
0.4446918796318192,-0.4611962602858252,-0.37048154715652865,-0.06952248466751286,0.06456229310167733,0.07618097344116002,5.0
0.45747139415957483,-0.4648035694272433,-0.3874631134072247,-0.09426292063213834,0.025020719186109385,0.08810694553261739,5.0
0.45747139415957483,-0.4648035694272433,-0.3874631134072247,-0.09488143004311513,0.053707743870159384,0.1101241252894254,5.0
0.4830304232150875,-0.47923274284858985,-0.3874631134072247,-0.12333293272849878,0.07619216833898891,0.1101241252894254,5.0
0.47025090868733116,-0.4611962602858252,-0.3670852279612852,-0.1462178318555098,0.03820124421865109,0.11746318579112701,5.0
0.465991070511413,-0.45758895114440656,-0.3670852279612852,-0.14992889963711944,0.03199864385567347,0.08902432809533008,5.0
0.4872902613910057,-0.4503743328615695,-0.36368893849156325,-0.13632165864838344,0.06766359387419472,0.10828936051365937,5.0
0.4617312323354934,-0.453981642002988,-0.35689630010107604,-0.13755868124225332,0.06068566861360205,0.1248022448941912,5.0
0.465991070511413,-0.4648035694272433,-0.3399147338503801,-0.14065123772692803,0.018818120005188947,0.11379365484095748,5.0
0.45747139415957483,-0.4503743328615695,-0.3467073722408672,-0.16168060673505058,-0.021498777034908288,0.11379365484095748,5.0
0.47451074686324973,-0.44676702372015115,-0.3501036914361106,-0.13941421513305813,0.005637596154704417,0.11838056608105386,5.0
0.4787705850391686,-0.45758895114440656,-0.3670852279612852,-0.14065123772692803,0.03820124421865109,0.11195889006519144,5.0
0.49155009956692425,-0.468410878568662,-0.3670852279612852,-0.15178443352792426,0.052157093853293555,0.10095030001195775,5.0
0.4830304232150875,-0.4756254337071715,-0.36368893849156325,-0.1387957038361232,0.07619216833898891,0.10003291762407475,5.0
0.4958099377428435,-0.48644736113142706,-0.3670852279612852,-0.12580697414432218,0.1087558152208784,0.07251144388962795,5.0
0.5043296140946806,-0.48284005199000835,-0.3670852279612852,-0.1239514440254337,0.1265882920032248,0.0715940608024262,5.0
0.4787705850391686,-0.47923274284858985,-0.3602926192963197,-0.12333293272849878,0.1103064661981657,0.06608976647512808,5.0
0.47025090868733116,-0.4648035694272433,-0.3501036914361106,-0.12580697414432218,0.08472074162172594,0.0715940608024262,5.0
0.47025090868733116,-0.45758895114440656,-0.35689630010107604,-0.12518846284738724,0.05525839381314664,0.09544600533500028,5.0
0.4787705850391686,-0.45758895114440656,-0.3501036914361106,-0.1128182482244375,0.0498311188649341,0.09636338807254265,5.0
0.4872902613910057,-0.4648035694272433,-0.3467073722408672,-0.11405526704639105,0.05758436872762753,0.09819815284830868,5.0
0.4872902613910057,-0.4648035694272433,-0.3501036914361106,-0.09178887733035676,0.07696749382763256,0.08076788607989385,5.0
0.49155009956692425,-0.4611962602858252,-0.3534999809058325,-0.0812741918833164,0.05913501881837194,0.09177647552122367,5.0
0.4830304232150875,-0.4648035694272433,-0.35689630010107604,-0.09921100723570152,0.035875268934777334,0.08076788607989385,5.0
0.47025090868733116,-0.4756254337071715,-0.3670852279612852,-0.08869632273164024,0.048280469069703985,0.08535479801930895,5.0
0.47451074686324973,-0.453981642002988,-0.3738778663517721,-0.072615039148357,0.048280469069703985,0.09544600533500028,5.0
0.4404320414559003,-0.4611962602858252,-0.3670852279612852,-0.09117036603342184,0.013390846312912147,0.08718956314473436,5.0
0.465991070511413,-0.468410878568662,-0.3738778663517721,-0.1109627143336327,-0.00909357867306739,0.08718956314473436,5.0
0.45747139415957483,-0.45758895114440656,-0.36368893849156325,-0.07756312598766493,-0.007542927695780118,0.10186768309915949,5.0
0.47025090868733116,-0.45758895114440656,-0.3534999809058325,-0.08622227848687956,-0.01374552687670055,0.10553721265069158,5.0
0.4787705850391686,-0.45758895114440656,-0.3806704750167378,-0.07014099555189444,-0.01917280529720608,0.12847177444572327,5.0
0.4872902613910057,-0.4503743328615695,-0.37048154715652865,-0.08065568058638146,0.021919419595649164,0.1101241252894254,5.0
0.4958099377428435,-0.453981642002988,-0.3874631134072247,-0.08498525683598877,0.042853194786398596,0.11471103652952178,5.0
0.4958099377428435,-0.45758895114440656,-0.3806704750167378,-0.07447057186043796,0.08472074162172594,0.07067667911386191,5.0
0.512849290446518,-0.4503743328615695,-0.35689630010107604,-0.0880778114347053,0.09712594234768117,0.04040305681712861,5.0
0.5171091286224362,-0.4395524685816418,-0.37048154715652865,-0.08560376813292371,0.12116101831094801,0.042237822991532094,5.0
0.5043296140946806,-0.4323378502988046,-0.3670852279612852,-0.09240738674133353,0.15294933970419386,0.03765090755552337,5.0
0.4872902613910057,-0.4395524685816418,-0.3331221251854145,-0.0880778114347053,0.10798048973223477,0.036733524468321635,5.0
0.4787705850391686,-0.4503743328615695,-0.3331221251854145,-0.07756312598766493,0.06301164330644721,0.060585470749192495,5.0
0.4787705850391686,-0.4431597145787326,-0.32632948679492757,-0.06704844101211412,0.06533761859032097,0.07893312130412782,5.0
0.465991070511413,-0.41069405859462116,-0.3331221251854145,-0.09055185473648689,0.04672981927447387,0.11379365484095748,5.0
0.47025090868733116,-0.4215159228745492,-0.3670852279612852,-0.06395588688488714,0.011840195335624857,0.09544600533500028,5.0
0.4958099377428435,-0.45758895114440656,-0.3738778663517721,-0.0633373755879522,0.026571370163396682,0.09269385799652152,5.0
0.5171091286224362,-0.48284005199000835,-0.4044446796579208,-0.06642993018666872,0.06301164330644721,0.10095030001195775,5.0
0.5639670502913211,-0.5080911528356105,-0.4180299267133734,-0.05034864683913024,0.16845584002060932,0.09269385799652152,5.0
0.5511875357635642,-0.5116984619770288,-0.4078409691276428,-0.016330550025164828,0.3033623899364866,0.06333762001079775,5.0
0.5511875357635642,-0.5116984619770288,-0.4078409691276428,-0.00952692953079685,0.35996110332518544,-0.020144182181788196,5.0
0.4830304232150875,-0.42873054115738624,-0.3229331675996841,-0.05220418072993507,0.36228708924757386,-0.06417854798927278,5.0
0.4958099377428435,-0.39265751288752887,-0.31274423973947496,-0.10725165032393937,0.29793510205952367,-0.0540873340300536,5.0
0.4958099377428435,-0.39265751288752887,-0.31274423973947496,-0.12642548544125715,0.2746753563131291,-0.031152779228209162,5.0
0.5171091286224362,-0.3710137211833454,-0.3399147338503801,-0.16477316321972527,0.2552922285534955,0.014716347159129131,5.0
0.42765252692814465,-0.36740641204192703,-0.30934792054423144,-0.2253872250563532,0.18241168935973748,0.08443741563142594,5.0
0.4020934978726327,-0.3890502037461105,-0.3161405589347184,-0.2148725405522919,0.0730908687485287,0.13764559972319093,5.0
0.3765347670833419,-0.4359451594402231,-0.32632948679492757,-0.16415465192279033,-0.03002735268175964,0.17250613186138314,5.0
0.3807943069930386,-0.48644736113142706,-0.32632948679492757,-0.13384761723256003,-0.09980659937740051,0.141315129274723,5.0
0.3850541451689582,-0.5080911528356105,-0.3738778663517721,-0.06581141936122333,-0.19439625225318055,0.15966277982965832,5.0
0.42765252692814465,-0.5261276985427028,-0.39085943260246825,-0.022515659222597868,-0.2176559979995751,0.18534948389310799,5.0
0.4319123651040629,-0.5333422536812122,-0.43840778243379147,0.036861383792076506,-0.2556469185737414,0.18076257405164908,5.0
0.45747139415957483,-0.5261276985427028,-0.42821882484806073,0.03809840638594638,-0.25487160254155516,0.2422272017323174,5.0
0.4787705850391686,-0.5225203894012844,-0.44180410162903494,0.035005857445104364,-0.22540925288601146,0.19268854859072193,5.0
0.5000697759187617,-0.49366197941426393,-0.4180299267133734,0.020161593862498516,-0.1959469032304679,0.2000276020992363,5.0
0.5171091286224362,-0.4503743328615695,-0.4180299267133734,-0.0249897006384213,-0.14400012386071595,0.2000276020992363,5.0
0.5341481830598896,-0.4503743328615695,-0.4078409691276428,-0.05467822403171665,-0.015296177853987849,0.22204478500297858,5.0
0.5171091286224362,-0.42512323201596786,-0.37048154715652865,-0.12518846284738724,0.045179168888215174,0.1816799571388508,5.0
0.47025090868733116,-0.42873054115738624,-0.3534999809058325,-0.16477316321972527,0.033549294832960756,0.2000276020992363,5.0
0.45747139415957483,-0.4395524685816418,-0.3501036914361106,-0.17157677994217693,0.024245396061580094,0.20644928370964852,5.0
0.4787705850391686,-0.4648035694272433,-0.34331105304562365,-0.13384761723256003,0.03199864385567347,0.20277975136084153,5.0
0.5085894522705992,-0.4756254337071715,-0.3331221251854145,-0.10168505053748308,0.042077869297754956,0.1532411038137959,5.0
0.5043296140946806,-0.48284005199000835,-0.3229331675996841,-0.05467822403171665,0.07619216833898891,0.11746318579112701,5.0
0.4958099377428435,-0.4720181245657528,-0.34331105304562365,-0.03364885502359408,0.06301164330644721,0.10003291762407475,5.0
0.4787705850391686,-0.45758895114440656,-0.39085943260246825,-0.005815865521103548,0.05060644405806344,0.09819815284830868,5.0
0.4787705850391686,-0.4648035694272433,-0.3670852279612852,-0.005815865521103548,0.04595449437685882,0.07801573821692608,5.0
0.4872902613910057,-0.47923274284858985,-0.36368893849156325,0.008409886764567375,0.08937269218947344,0.06608976647512808,5.0
0.49155009956692425,-0.4503743328615695,-0.35689630010107604,-0.0039603316302987334,0.083170093008553,0.05324641164612833,5.0
0.4872902613910057,-0.4395524685816418,-0.35689630010107604,-0.026226723232291162,0.09402464275722096,0.04132043990433036,5.0
0.4787705850391686,-0.4323378502988046,-0.37048154715652865,-0.03797843033022232,0.07464151736170163,0.03489876388846793,5.0
0.49155009956692425,-0.44676702372015115,-0.34331105304562365,-0.027463745826161037,0.10410386701724526,0.05875070737206391,5.0
0.4872902613910057,-0.4648035694272433,-0.3534999809058325,-0.04787460353734866,0.12271166456000658,0.04040305681712861,5.0
0.465991070511413,-0.4431597145787326,-0.35689630010107604,-0.059626310635279824,0.09324931726857731,0.06884191293945842,5.0
0.4830304232150875,-0.453981642002988,-0.36368893849156325,-0.057152267333498236,0.10255321603995798,0.0541637947333301,5.0
0.465991070511413,-0.4395524685816418,-0.3501036914361106,-0.06581141936122333,0.10487919250588891,0.032146614626862705,5.0
0.4617312323354934,-0.4395524685816418,-0.35689630010107604,-0.09982951853263647,0.09324931726857731,0.06700714956232982,5.0
0.4787705850391686,-0.4431597145787326,-0.3670852279612852,-0.09364440933520342,0.10177789055131432,0.05599855811045868,5.0
0.4872902613910057,-0.45758895114440656,-0.37048154715652865,-0.08745930013777037,0.09557529137039389,0.06700714956232982,5.0
0.4787705850391686,-0.4756254337071715,-0.37048154715652865,-0.07137801732065763,0.08859736670082978,0.045907352543064175,5.0
0.465991070511413,-0.45758895114440656,-0.3399147338503801,-0.06271886523399635,0.08627139259901322,0.04132043990433036,5.0
0.465991070511413,-0.453981642002988,-0.3602926192963197,-0.04973013554219531,0.07464151736170163,0.10003291762407475,5.0
0.4787705850391686,-0.4503743328615695,-0.34331105304562365,-0.06024482098923568,0.05525839381314664,0.08352003324354292,5.0
0.47025090868733116,-0.45758895114440656,-0.3399147338503801,-0.05405971273478171,0.04672981927447387,0.11195889006519144,5.0
0.4787705850391686,-0.4503743328615695,-0.34331105304562365,-0.04725609224041372,0.04362851909298506,0.07801573821692608,5.0
0.47451074686324973,-0.45758895114440656,-0.3501036914361106,-0.04478204893863214,0.021919419595649164,0.06333762001079775,5.0
0.49155009956692425,-0.4611962602858252,-0.3467073722408672,-0.04601907153250202,0.021144094107005507,0.08443741563142594,5.0
0.49155009956692425,-0.453981642002988,-0.3467073722408672,-0.046637582829436953,0.05525839381314664,0.07342882557819225,5.0
0.4872902613910057,-0.45758895114440656,-0.3670852279612852,-0.04416353764169719,0.083170093008553,0.07067667911386191,5.0
0.47451074686324973,-0.4503743328615695,-0.3602926192963197,-0.03983396233506898,0.0614609935112171,0.05783332428486218,5.0
0.47025090868733116,-0.4503743328615695,-0.3399147338503801,-0.04725609224041372,0.06533761859032097,0.07251144388962795,5.0
0.47451074686324973,-0.4611962602858252,-0.34331105304562365,-0.04787460353734866,0.05060644405806344,0.07342882557819225,5.0
0.47025090868733116,-0.45758895114440656,-0.3399147338503801,-0.04354502823072045,0.0513817689556785,0.06150285383639425,5.0
0.4787705850391686,-0.4720181245657528,-0.34331105304562365,-0.03674140773635245,0.0699895679760113,0.06700714956232982,5.0
0.4787705850391686,-0.4648035694272433,-0.37727418554701586,-0.04911162613121854,0.048280469069703985,0.060585470749192495,5.0
0.47025090868733116,-0.4395524685816418,-0.3806704750167378,-0.03983396233506898,0.05680904383001248,0.07618097344116002,5.0
0.4830304232150875,-0.4648035694272433,-0.37048154715652865,-0.04973013554219531,0.05758436872762753,0.060585470749192495,5.0
0.465991070511413,-0.453981642002988,-0.36368893849156325,-0.050967158136065185,0.08472074162172594,0.05783332428486218,5.0
0.45747139415957483,-0.44676702372015115,-0.3501036914361106,-0.05467822403171665,0.10100256506267068,0.04407258636866068,5.0
0.47025090868733116,-0.44676702372015115,-0.3670852279612852,-0.06642993018666872,0.08704671808765686,0.048659499007394524,5.0
0.47451074686324973,-0.44676702372015115,-0.3602926192963197,-0.07385206079924779,0.07076489346465493,0.029394465365257447,5.0
0.5000697759187617,-0.45758895114440656,-0.36368893849156325,-0.07818163728459988,0.08549606711036958,0.030311848452459204,5.0
0.5000697759187617,-0.45758895114440656,-0.36368893849156325,-0.09240738674133353,0.10255321603995798,0.04407258636866068,5.0
0.4958099377428435,-0.45758895114440656,-0.3738778663517721,-0.09364440933520342,0.12116101831094801,0.07893312130412782,5.0
0.4787705850391686,-0.44676702372015115,-0.39765204126743386,-0.08869632273164024,0.10565451799453254,0.06975929602666016,5.0
0.465991070511413,-0.468410878568662,-0.3840667942119812,-0.08189270223727226,0.083170093008553,0.06608976647512808,5.0
0.47025090868733116,-0.4720181245657528,-0.41123728832288625,-0.08065568058638146,0.08394541849719665,0.06425500030072459,5.0
0.4787705850391686,-0.4648035694272433,-0.3874631134072247,-0.06704844101211412,0.08161944203126571,0.07342882557819225,5.0
0.4787705850391686,-0.44676702372015115,-0.3806704750167378,-0.06519290853577793,0.09402464275722096,0.06333762001079775,5.0
0.4787705850391686,-0.4215159228745492,-0.3534999809058325,-0.08622227848687956,0.12426231553729387,0.0826026508556599,5.0
0.47451074686324973,-0.42873054115738624,-0.3670852279612852,-0.10910718044282787,0.06766359387419472,0.08627218075685134,5.0
0.4830304232150875,-0.4611962602858252,-0.3806704750167378,-0.09549994134005005,0.10720516897181984,0.08718956314473436,5.0
0.4872902613910057,-0.4648035694272433,-0.37727418554701586,-0.08003716928944653,0.1157337398904425,0.05966808766199075,5.0
0.4872902613910057,-0.453981642002988,-0.35689630010107604,-0.0732335499738024,0.07929346792944914,0.06975929602666016,5.0
0.47451074686324973,-0.453981642002988,-0.37727418554701586,-0.08745930013777037,0.05525839381314664,0.0523290285589266,5.0
0.4787705850391686,-0.453981642002988,-0.3942557220721902,-0.08745930013777037,0.08782204357630052,0.05141164547172484,5.0
0.5000697759187617,-0.4323378502988046,-0.39085943260246825,-0.0880778114347053,0.12193633907136295,0.05875070737206391,5.0
0.5000697759187617,-0.4323378502988046,-0.3874631134072247,-0.08993334343955195,0.1335662166727889,0.04407258636866068,5.0
0.5043296140946806,-0.4395524685816418,-0.3738778663517721,-0.07756312598766493,0.10410386701724526,0.04315520607873383,5.0
0.47451074686324973,-0.4431597145787326,-0.35689630010107604,-0.06457439771033253,0.08084411890673643,0.05783332428486218,5.0
0.47025090868733116,-0.4503743328615695,-0.3670852279612852,-0.06766695207330428,0.07696749382763256,0.0523290285589266,5.0
0.4872902613910057,-0.4323378502988046,-0.37048154715652865,-0.07447057186043796,0.019593445493832583,0.048659499007394524,5.0
0.5043296140946806,-0.42512323201596786,-0.3602926192963197,-0.06890397372419507,0.0397518940138812,0.06150285383639425,5.0
0.4958099377428435,-0.4431597145787326,-0.3467073722408672,-0.07941865893549067,0.07386619305511516,0.06517238338792633,5.0
0.47451074686324973,-0.4395524685816418,-0.3738778663517721,-0.09488143004311513,0.03665059442342098,0.10278506478772378,5.0
0.47451074686324973,-0.4431597145787326,-0.36368893849156325,-0.10477760513619963,-0.002890979492146949,0.10186768309915949,5.0
0.4872902613910057,-0.4611962602858252,-0.37048154715652865,-0.10848866914589292,0.020368770982476248,0.09269385799652152,5.0
0.5085894522705992,-0.453981642002988,-0.3738778663517721,-0.06828546289874968,0.09790126783632482,0.08718956314473436,5.0
0.5043296140946806,-0.45758895114440656,-0.34331105304562365,-0.06395588688488714,0.12891426846915574,0.06608976647512808,5.0
0.45747139415957483,-0.453981642002988,-0.3670852279612852,-0.08312972388816305,0.09092334316676073,0.07526359035395828,5.0
0.4617312323354934,-0.44676702372015115,-0.3602926192963197,-0.06890397372419507,0.08549606711036958,0.06792453125089412,5.0
0.465991070511413,-0.4648035694272433,-0.36368893849156325,-0.03797843033022232,0.07929346792944914,0.0715940608024262,5.0
0.4872902613910057,-0.4503743328615695,-0.3501036914361106,-0.03859694162715725,0.0513817689556785,0.07618097344116002,5.0
0.47025090868733116,-0.4503743328615695,-0.3602926192963197,-0.02993778724198446,0.017267469027901654,0.04407258636866068,5.0
0.4958099377428435,-0.4395524685816418,-0.3602926192963197,-0.012000970946620245,0.052932418898665755,0.07893312130412782,5.0
0.4787705850391686,-0.4395524685816418,-0.3738778663517721,-0.008908418233861896,0.042853194786398596,0.07709835652836178,5.0
0.4787705850391686,-0.41430130459171227,-0.3670852279612852,-0.026226723232291162,0.019593445493832583,0.07342882557819225,5.0
0.4787705850391686,-0.42512323201596786,-0.37048154715652865,-0.04416353764169719,0.022694745084292804,0.11562841961672353,5.0
0.4958099377428435,-0.4395524685816418,-0.39085943260246825,-0.03735991903328739,0.015716820414728733,0.10920674220222368,5.0
0.49155009956692425,-0.4323378502988046,-0.3670852279612852,-0.04601907153250202,0.052157093853293555,0.06792453125089412,5.0
0.4958099377428435,-0.4431597145787326,-0.36368893849156325,-0.06271886523399635,0.05525839381314664,0.08443741563142594,5.0
0.5000697759187617,-0.4323378502988046,-0.3602926192963197,-0.07756312598766493,0.06456229310167733,0.09728077046042566,5.0
0.5000697759187617,-0.42512323201596786,-0.3602926192963197,-0.09549994134005005,0.07929346792944914,0.07067667911386191,5.0
0.512849290446518,-0.4395524685816418,-0.3331221251854145,-0.08869632273164024,0.08472074162172594,0.09452862294711727,5.0
0.4958099377428435,-0.4395524685816418,-0.3501036914361106,-0.07756312598766493,0.07929346792944914,0.05875070737206391,5.0
0.47451074686324973,-0.4431597145787326,-0.36368893849156325,-0.06704844101211412,0.083170093008553,0.09819815284830868,5.0
0.47451074686324973,-0.4431597145787326,-0.36368893849156325,-0.07137801732065763,0.06921424366942483,0.09819815284830868,5.0
0.4872902613910057,-0.4503743328615695,-0.33651841465513643,-0.06952248466751286,0.06843891818078118,0.08535479801930895,5.0
0.4958099377428435,-0.4395524685816418,-0.3467073722408672,-0.06395588688488714,0.11263244266409664,0.060585470749192495,5.0
0.4958099377428435,-0.4395524685816418,-0.3467073722408672,-0.09673696393391994,0.062236318408832154,0.09361124055923423,5.0
0.4872902613910057,-0.4359451594402231,-0.3534999809058325,-0.08003716928944653,0.045179168888215174,0.12113271534265911,5.0
0.4830304232150875,-0.4359451594402231,-0.3602926192963197,-0.06457439771033253,0.05758436872762753,0.10186768309915949,5.0
0.4830304232150875,-0.4359451594402231,-0.3602926192963197,-0.06642993018666872,0.06533761859032097,0.1266370082713198,5.0
0.465991070511413,-0.4648035694272433,-0.3738778663517721,-0.06581141936122333,0.04905579396731904,0.10737197742645761,5.0
0.4830304232150875,-0.4431597145787326,-0.3738778663517721,-0.046637582829436953,0.07154021777124141,0.11379365484095748,5.0
0.4830304232150875,-0.4431597145787326,-0.3738778663517721,-0.04540056023556708,0.08239476751990936,0.09544600533500028,5.0
0.4872902613910057,-0.44676702372015115,-0.36368893849156325,-0.05591524473962836,0.08704671808765686,0.13030654062012678,5.0
0.4872902613910057,-0.44676702372015115,-0.3874631134072247,-0.04540056023556708,0.06921424366942483,0.1110415069779897,5.0
0.4787705850391686,-0.4359451594402231,-0.3602926192963197,-0.04725609224041372,0.05913501881837194,0.10553721265069158,5.0
0.465991070511413,-0.4503743328615695,-0.3738778663517721,-0.04540056023556708,0.05680904383001248,0.09544600533500028,5.0
0.47451074686324973,-0.4611962602858252,-0.32632948679492757,-0.03983396233506898,0.04595449437685882,0.09911553523619172,5.0
0.4830304232150875,-0.4431597145787326,-0.3670852279612852,-0.05158566943300013,0.05913501881837194,0.08627218075685134,5.0
0.4787705850391686,-0.42873054115738624,-0.37048154715652865,-0.05777077768745409,0.05060644405806344,0.07342882557819225,5.0
0.4958099377428435,-0.4323378502988046,-0.3602926192963197,-0.05344120143784677,0.0343246203216044,0.09177647552122367,5.0
0.4830304232150875,-0.42512323201596786,-0.37048154715652865,-0.04973013554219531,0.031223320731144182,0.04040305681712861,5.0
0.4830304232150875,-0.4395524685816418,-0.3670852279612852,-0.05034864683913024,0.03820124421865109,0.04498996945586244,5.0
0.4872902613910057,-0.4359451594402231,-0.3806704750167378,-0.03674140773635245,0.029672669753856892,0.05966808766199075,5.0
0.4830304232150875,-0.4395524685816418,-0.36368893849156325,-0.04107098304298068,0.06301164330644721,0.04132043990433036,5.0
0.49155009956692425,-0.44676702372015115,-0.35689630010107604,-0.03179332113278928,0.06843891818078118,0.08352003324354292,5.0
0.49155009956692425,-0.45758895114440656,-0.35689630010107604,-0.02808225712309599,0.06301164330644721,0.05049426518179802,5.0
0.4958099377428435,-0.4395524685816418,-0.3534999809058325,-0.02993778724198446,0.03665059442342098,0.06884191293945842,5.0
0.4958099377428435,-0.4431597145787326,-0.3874631134072247,-0.0324118324297242,0.02579604467475302,0.10461982956348982,5.0
0.4872902613910057,-0.453981642002988,-0.3501036914361106,-0.03179332113278928,0.015716820414728733,0.11287627315239318,5.0
0.4958099377428435,-0.44676702372015115,-0.35689630010107604,-0.03921545103813403,0.024245396061580094,0.15232372072659417,5.0
0.4872902613910057,-0.44676702372015115,-0.32632948679492757,-0.042308005636850554,0.035875268934777334,0.1431498954491265,5.0
0.47025090868733116,-0.4323378502988046,-0.32972580599017104,-0.04168949433991561,0.0343246203216044,0.1569106305680531,5.0
0.45747139415957483,-0.4395524685816418,-0.35689630010107604,-0.06457439771033253,0.0343246203216044,0.14773680529058544,5.0
0.4872902613910057,-0.4323378502988046,-0.35689630010107604,-0.06271886523399635,0.03742591991206463,0.1266370082713198,5.0
0.4872902613910057,-0.4323378502988046,-0.35689630010107604,-0.07570759351132875,0.035875268934777334,0.11379365484095748,5.0
0.4958099377428435,-0.41069405859462116,-0.39765204126743386,-0.08065568058638146,0.02889734426521324,0.11195889006519144,5.0
0.4787705850391686,-0.42512323201596786,-0.3331221251854145,-0.0732335499738024,0.027346695652040315,0.12847177444572327,5.0
0.4787705850391686,-0.42512323201596786,-0.3331221251854145,-0.07014099555189444,-0.0013403285148596772,0.09728077046042566,5.0
0.4872902613910057,-0.44676702372015115,-0.3806704750167378,-0.05777077768745409,0.0009856479510712748,0.08994171057062794,5.0
0.4872902613910057,-0.44676702372015115,-0.3806704750167378,-0.04911162613121854,0.005637596154704417,0.08810694553261739,5.0
0.465991070511413,-0.45758895114440656,-0.40104836046267733,-0.03921545103813403,0.016492145903372363,0.09636338807254265,5.0
0.4872902613910057,-0.4611962602858252,-0.3806704750167378,-0.04725609224041372,0.024245396061580094,0.07251144388962795,5.0
0.4958099377428435,-0.4503743328615695,-0.3738778663517721,-0.014475016134360013,0.052932418898665755,0.07801573821692608,5.0
0.49155009956692425,-0.4648035694272433,-0.37048154715652865,-0.031174809835854345,0.0498311188649341,0.0523290285589266,5.0
0.4872902613910057,-0.45758895114440656,-0.39765204126743386,-0.030556298538919394,0.053707743870159384,0.06425500030072459,5.0
0.4872902613910057,-0.45758895114440656,-0.39765204126743386,-0.031174809835854345,0.05758436872762753,0.07067667911386191,5.0
0.49155009956692425,-0.4323378502988046,-0.3738778663517721,-0.04045247363200391,0.09092334316676073,0.08352003324354292,5.0
0.49155009956692425,-0.4323378502988046,-0.3738778663517721,-0.06766695207330428,0.08782204357630052,0.0826026508556599,5.0
0.47025090868733116,-0.42512323201596786,-0.37048154715652865,-0.09178887733035676,0.04440384458162871,0.06792453125089412,5.0
0.4830304232150875,-0.44676702372015115,-0.37727418554701586,-0.0732335499738024,0.07696749382763256,0.08718956314473436,5.0
0.4830304232150875,-0.44676702372015115,-0.37727418554701586,-0.05344120143784677,0.05680904383001248,0.07618097344116002,5.0
0.4958099377428435,-0.4395524685816418,-0.36368893849156325,-0.04601907153250202,0.052932418898665755,0.0715940608024262,5.0
0.47451074686324973,-0.4503743328615695,-0.36368893849156325,-0.03179332113278928,0.06456229310167733,0.09819815284830868,5.0
0.4830304232150875,-0.468410878568662,-0.35689630010107604,-0.03612289643941752,0.0397518940138812,0.07342882557819225,5.0
0.49155009956692425,-0.45758895114440656,-0.3806704750167378,-0.03364885502359408,0.05913501881837194,0.06425500030072459,5.0
0.4830304232150875,-0.453981642002988,-0.3670852279612852,-0.03735991903328739,0.04905579396731904,0.07618097344116002,5.0
0.4617312323354934,-0.4503743328615695,-0.3501036914361106,-0.02127863662872799,0.052932418898665755,0.08535479801930895,5.0
0.4787705850391686,-0.45758895114440656,-0.35689630010107604,-0.018804591440988245,0.029672669753856892,0.10186768309915949,5.0
0.4958099377428435,-0.4503743328615695,-0.3467073722408672,0.00469881898295773,0.0614609935112171,0.07893312130412782,5.0
0.5043296140946806,-0.4648035694272433,-0.36368893849156325,-0.0008677751456240423,0.07774281695216184,0.06792453125089412,5.0
0.49155009956692425,-0.4648035694272433,-0.3738778663517721,0.010883931952307113,0.07076489346465493,0.07434620866539399,5.0
0.4872902613910057,-0.44676702372015115,-0.3670852279612852,0.018924571268628624,0.05060644405806344,0.07434620866539399,5.0
0.4958099377428435,-0.4395524685816418,-0.3467073722408672,0.010883931952307113,0.07154021777124141,0.0826026508556599,5.0
0.4958099377428435,-0.4648035694272433,-0.3806704750167378,0.015832014783953935,0.048280469069703985,0.05966808766199075,5.0
0.5043296140946806,-0.4431597145787326,-0.39085943260246825,-0.0039603316302987334,0.052157093853293555,0.08718956314473436,5.0
0.4830304232150875,-0.4359451594402231,-0.3738778663517721,0.003461796389087868,0.05060644405806344,0.07251144388962795,5.0
0.465991070511413,-0.4503743328615695,-0.3331221251854145,-0.0181860801440533,0.03897656970729473,0.07342882557819225,5.0
0.47025090868733116,-0.4359451594402231,-0.3501036914361106,-0.013237993540490137,0.007963572620635342,0.08443741563142594,5.0
0.4617312323354934,-0.4323378502988046,-0.3738778663517721,-0.018804591440988245,0.018818120005188947,0.08352003324354292,5.0
0.4872902613910057,-0.4359451594402231,-0.3738778663517721,-0.0181860801440533,0.02889734426521324,0.07709835652836178,5.0
0.4872902613910057,-0.4431597145787326,-0.37048154715652865,-0.03735991903328739,0.03509994462819087,0.08902432809533008,5.0
0.4830304232150875,-0.4395524685816418,-0.35689630010107604,-0.0342673625486127,0.04440384458162871,0.08076788607989385,5.0
0.49155009956692425,-0.453981642002988,-0.3534999809058325,-0.031174809835854345,0.04130254380911131,0.09177647552122367,5.0
0.4958099377428435,-0.4431597145787326,-0.3534999809058325,-0.04601907153250202,0.04130254380911131,0.07709835652836178,5.0
