acc_x,acc_y,acc_z,gyro_x,gyro_y,gyro_z,activity
-1.1173831478481406,0.7004243174320656,3.5380736166502875,0.1394601255743077,0.06447237840546341,-0.19650296562164585,0.0
-1.103439553159439,0.7030459252156095,3.5570608144001388,0.14093403851482153,0.005430417520327968,-0.1647043340460413,0.0
-1.1208690617751558,0.7082891407826973,3.5633898803167554,0.11145591153504356,-0.05409949377447127,-0.11050213515623505,0.0
-1.131326803556201,0.7502347735392646,3.645667294082944,0.12177325418027721,-0.02579838786820978,-0.08665316588180924,0.0
-1.103439553159439,0.7633427665669164,3.746932348748816,0.13552971903031608,-0.03653329092940045,-0.0960482125141016,0.0
-1.1104113199941104,0.7633427665669164,3.6962998214158804,0.05643009408095648,-0.00920808584246658,-0.023055907137877692,0.0
-1.0964677253054087,0.7449915579721766,3.614021964499859,-0.01087827827880327,-0.02140683715694209,-0.008601986699383104,0.0
-1.0964677253054087,0.7449915579721766,3.5697189462333725,-0.08506487707128697,0.020556869804933046,0.027532817702311634,0.0
-1.0650945609816314,0.7397483424050889,3.5823770780666067,-0.14844283989090742,0.005430417520327968,0.03114629836284499,0.0
-1.0476650523659148,0.7397483424050889,3.601364275816458,-0.1445124213623249,-0.023846586229554566,0.03909595625674614,0.0
-1.0546368192005862,0.7135323104597175,3.5444026825669046,-0.15630366496348153,0.03617127249920193,0.0636676243076452,0.0
-1.079038155670333,0.7082891407826973,3.5507317484835212,-0.08408227543528908,0.020068920139195878,0.06439032088047962,0.0
-1.0650945609816314,0.6925594940814338,3.493770155233968,-0.10029524287724882,0.02348457040309929,0.02536473018744715,0.0
-1.0546368192005862,0.6978027096485218,3.5570608144001388,-0.1450037176861022,0.06544827624908446,0.02030585748306433,0.0
-1.0546368192005862,0.7082891407826973,3.721616085082348,-0.19413392532420196,0.09814093286661364,0.02030585748306433,0.0
-1.0755523027626768,0.7213971338103491,3.7912358101651367,-0.24228151634556497,0.034707422014137145,0.06149953458914189,0.0
-1.103439553159439,0.7213971338103491,3.810223007914987,-0.2648814109003237,-0.02677428868753741,0.06294492773481077,0.0
-1.1382985703908723,0.7004243174320656,3.677312623666029,-0.24129889972882845,0.05324952493460895,0.04632291537417404,0.0
-1.152242226098933,0.6978027096485218,3.614021964499859,-0.12387773607185756,0.13522513424399746,-0.011492770787082024,0.0
-1.1836153904227102,0.6978027096485218,3.6393382281663267,-0.08899529559986952,0.25135724842419993,0.03403708245054392,0.0
-1.2184744686735027,0.6951811018649777,3.614021964499859,0.023512862873259707,0.1547431387277235,0.0549952698409096,0.0
-1.2149885547464876,0.6846947166208698,3.512757352983819,0.0593779079773934,0.0254363707398829,0.09835703336003224,0.0
-1.1626999678799783,0.6715866777031503,3.4304794960677976,-0.019721715473892364,-0.0716656966195421,0.12076061830334445,0.0
-1.124354975702171,0.6637219002425864,3.329214884551758,-0.07425623510612823,-0.05361154336480747,0.059331444870638586,0.0
-1.079038155670333,0.6715866777031503,3.310227686801907,-0.1052082600456815,0.05178567519347081,0.013801592734832054,0.0
-1.079038155670333,0.6715866777031503,3.310227686801907,-0.1278081546004401,-0.03555739011007283,0.024642033614612712,0.0
-1.037207310584869,0.6637219002425864,3.3925055437179283,-0.1332124740849456,-0.06385849601633431,0.028255514275146068,0.0
-1.009320060188107,0.6715866777031503,3.6393382281663267,-0.10864737625819122,-0.04043688825529778,-0.0006523288054819576,0.0
-1.0197778019691524,0.6506138613248668,3.63300916224971,-0.10569956236175429,-0.06922594457122305,-0.019442426477344354,0.0
-1.0476650523659148,0.645370645757779,3.658325425916178,-0.057060666028170615,-0.06922594457122305,-0.019442426477344354,0.0
-1.0685804749086465,0.6558570768919546,3.620351030416476,-0.04183030396739346,-0.13558715862560913,-0.054854534306204655,0.0
-1.0964677253054087,0.6742082854866942,3.6519963599995617,0.039725827319071684,-0.01799118726500199,-0.14808233931451512,0.0
-1.0964677253054087,0.6742082854866942,3.6519963599995617,0.16009481086477495,0.06593622665874826,-0.15169581336413201,0.0
-1.1417844843178877,0.7109107026761735,3.721616085082348,0.27211165503724033,-0.012135785324742862,-0.13796458729483302,0.0
-1.1592140539529632,0.7318835190544571,3.620351030416476,0.2932376606206671,-0.021894787566605886,-0.08376237959047152,0.0
-1.1382985703908723,0.7292619571609809,3.5380736166502875,0.2485291678349271,0.00396656629133655,-0.07653542267668244,0.0
-1.0964677253054087,0.7082891407826973,3.4241504301511805,0.14830356726361843,0.0005509163993964557,-0.04256870138257453,0.0
-1.0860099835243633,0.7135323104597175,3.4621248256508825,0.08001258727556522,0.006894267261466114,-0.028114780944079935,0.0
-1.0860099835243633,0.7135323104597175,3.4621248256508825,-0.05951717611046084,0.07618317931027511,-0.002820417422165853,0.0
-1.030235482730839,0.726640349377437,3.5760480121499896,-0.192660012383688,0.21476100935930625,-0.02739208437124549,0.0
-1.030235482730839,0.726640349377437,3.5760480121499896,-0.3533157558858849,0.32015822642973124,-0.012938161729112075,0.0
-1.0406932245118843,0.7030459252156095,3.595035209899841,-0.35970268000253597,0.2381826052175165,-0.03895522292568,0.0
-1.0685804749086465,0.6768298932702381,3.645667294082944,-0.3032029556002304,0.11863483816966733,-0.051241055849310116,0.0
-1.0685804749086465,0.6768298932702381,3.645667294082944,-0.25849448678367243,0.06544827624908446,7.036666553306758e-05,0.0
-1.0860099835243633,0.6794515010537822,3.746932348748816,-0.19364261701583366,0.04593027474106496,0.010188112212026127,0.0
-1.079038155670333,0.6820731088373257,3.708957953249114,-0.16711231591708353,0.05910492687486808,0.013801592734832054,0.0
-1.0616086470546162,0.6715866777031503,3.6836416895826463,-0.2673379164883922,0.14352028525686905,0.05716335955941292,0.0
-1.0616086470546162,0.6637219002425864,3.645667294082944,-0.327276763095503,-0.052147692135816055,0.13160105808130568,0.0
-1.1069254670864541,0.6584786846754984,3.601364275816458,-0.39605903940733356,-0.17803880260646854,0.18002169320299174,0.0
-1.1382985703908723,0.6584786846754984,3.5633898803167554,-0.39458512646681954,-0.02872609032619265,0.0940208627375809,0.0
-1.1208690617751558,0.6479922535413228,3.5254154848170534,-0.3685461336764377,0.04593027474106496,0.005851935667295465,0.0
-1.1138972339211257,0.634884260513671,3.5697189462333725,-0.3503679539740389,0.022996620365398804,0.09329816616474645,0.0
-1.152242226098933,0.6427490838643026,3.6266800963330925,-0.3002551536883845,-0.10679810230968377,0.16123159993840697,0.0
-1.134812717483216,0.6270194371630394,3.63300916224971,-0.27028571840023813,-0.19023755689665056,0.21976997826521982,0.0
-1.131326803556201,0.6060466207847558,3.5570608144001388,-0.18578179194325958,-0.25513493162487133,0.2031479659045831,0.0
-1.0999536392324236,0.6191546597024754,3.5633898803167554,-0.12977335787243588,-0.13461125780628144,0.1099201697108279,0.0
-1.079038155670333,0.6217762674860192,3.6266800963330925,-0.18430787900274562,-0.053123592955143656,0.0781215469497786,0.0
-1.079038155670333,0.6139114441353875,3.6709835577494125,-0.21673380789436963,-0.03750919174872806,0.12220600263445804,0.0
-1.0964677253054087,0.6191546597024754,3.7406032828321996,-0.17497314098965758,-0.07654520071618018,0.0998024265057011,0.0
-1.1069254670864541,0.5955602355406479,3.6962998214158804,-0.07720404600641739,-0.02091888674727827,-0.008601986699383104,0.0
-1.1069254670864541,0.6086682285682998,3.5570608144001388,-0.03249556651608313,0.030315871674832757,-0.05702262402470796,0.0
-1.0929818113783938,0.592938627757104,3.493770155233968,-0.013826090677166301,0.017141219169066312,-0.08520777273614037,0.0
-1.103439553159439,0.59031701997356,3.519086418900436,-0.005473955798150033,-0.00920808584246658,-0.043291397955408976,0.0
-1.1104113199941104,0.6086682285682998,3.53174455073367,-0.07278232815790979,0.02982792145115061,7.036666553306758e-05,0.0
-1.0964677253054087,0.6086682285682998,3.601364275816458,-0.06639540404125865,0.042514623361271583,-0.010047377641413153,0.0
-1.079038155670333,0.6165330519189314,3.6393382281663267,-0.00940437282865869,0.17474909957252646,-0.07364463638534469,0.0
-1.0441791384388994,0.6112898363518436,3.645667294082944,-0.01628260075945651,0.23330311302370474,-0.11194752830190392,0.0
-1.0546368192005862,0.5850738044064723,3.63300916224971,-0.04526941793279237,0.1474238885341795,-0.10255248166961153,0.0
-1.0860099835243633,0.5981818433241917,3.6519963599995617,0.0004216660024282763,0.1401046383406355,-0.13218301471215754,0.0
-1.0999536392324236,0.6008034052176681,3.6646544918327955,0.007299895431299984,0.10838788551814049,-0.09532551594126719,0.0
-1.079038155670333,0.59031701997356,3.6962998214158804,-0.0015435402657152316,0.0717916285990074,-0.07147654666684138,0.0
-1.0441791384388994,0.59031701997356,3.6836416895826463,-0.04084770008428477,0.057153125236212854,-0.09315742622276388,0.0
-1.0860099835243633,0.5772090269459083,3.6836416895826463,-0.017756506209601088,0.010797867563070013,-0.04184600480974011,0.0
-1.0860099835243633,0.5772090269459083,3.6836416895826463,0.025478066145255475,-0.09362344720017408,-0.043291397955408976,0.0
-1.0999536392324236,0.5850738044064723,3.5887061439832233,0.11243851616718915,-0.13949076190291948,-0.011492770787082024,0.0
-1.079038155670333,0.6086682285682998,3.6393382281663267,0.09475164477315874,-0.20633991446414307,0.002961151304141694,0.0
-1.0511509052735708,0.6217762674860192,3.734274216915583,0.06773003536604028,-0.12485224961300533,-0.04256870138257453,0.0
-1.0825240695973481,0.6270194371630394,3.689970755499264,0.04513014680357718,-0.059954892739023845,-0.04979566270364125,0.0
-1.0964677253054087,0.6139114441353875,3.620351030416476,0.017125932764313078,-0.01506348480701916,-0.09821630223260494,0.0
-1.0616086470546162,0.6086682285682998,3.6519963599995617,0.0033694798988651827,-0.010183986661794184,-0.17048590662871677,0.0
-1.0441791384388994,0.6139114441353875,3.708957953249114,-0.04625202256493801,0.050321825452332665,-0.2217973368562958,0.0
-1.0476650523659148,0.5981818433241917,3.6519963599995617,-0.02414343257336303,0.01567736868400153,-0.2196292383232372,0.0
-1.079038155670333,0.5981818433241917,3.5444026825669046,-0.03544337844629808,-0.10191859821304569,-0.195057572475977,0.0
-1.0964677253054087,0.5981818433241917,3.53174455073367,-0.05067374041344562,-0.0716656966195421,-0.13290571128499198,0.0
-1.0825240695973481,0.5876954121900161,3.4874410893173513,-0.06295629082489669,-0.04190073948428919,-0.1256787543712029,0.0
-1.0860099835243633,0.5955602355406479,3.5823770780666067,-0.06492149709304021,-0.05653924582279031,-0.14157806134444992,0.0
-1.0825240695973481,0.6086682285682998,3.614021964499859,-0.06246498850882387,-0.12582815043233292,-0.10688865229206287,0.0
-1.0860099835243633,0.6112898363518436,3.5633898803167554,-0.07720404600641739,-0.11167760640632184,-0.08593046930897483,0.0
-1.0720663888356616,0.603425013001212,3.5697189462333725,-0.09243441181237924,-0.13461125780628144,-0.05846801717037683,0.0
-1.079038155670333,0.6086682285682998,3.5697189462333725,-0.07622144437041951,-0.07654520071618018,-0.09821630223260494,0.0
-1.0964677253054087,0.6270194371630394,3.6076928985832417,-0.06983451725762063,0.06691212747807589,-0.0960482125141016,0.0
-1.0894958974513784,0.632262652730127,3.5823770780666067,-0.08162576685107276,0.1469359440759288,-0.09966169537827378,0.0
-1.0860099835243633,0.634884260513671,3.620351030416476,-0.052147645863590185,0.1537672379083959,-0.10761134886489733,0.0
-1.030235482730839,0.5876954121900161,3.614021964499859,-0.07032581957369345,0.14986364653391165,-0.15458659965546973,0.0
-1.037207310584869,0.5772090269459083,3.5823770780666067,-0.1454950259944705,-0.07068979580021449,-0.14230076673183964,0.0
-1.0755523027626768,0.59031701997356,3.5760480121499896,-0.16269058908013265,-0.10777400312901138,-0.07436733295817914,0.0
-1.0755523027626768,0.59031701997356,3.5760480121499896,-0.14156460746588798,0.04934592463300505,-0.1090567420105662,0.0
-1.0894958974513784,0.637505868297215,3.5823770780666067,-0.12043861985934781,0.05861697646520428,-0.0974936056597705,0.0
-1.0546368192005862,0.5981818433241917,3.595035209899841,-0.13566897967301417,0.15327929345014518,-0.18132634640667802,0.0
-1.0546368192005862,0.5981818433241917,3.595035209899841,-0.0634475931409695,0.06203262635714437,-0.15169581336413201,0.0
-1.0441791384388994,0.5745874191623644,3.601364275816458,-0.04526941793279237,0.17914064730808762,-0.20589801225393828,0.0
-1.0406932245118843,0.59031701997356,3.6266800963330925,0.039725827319071684,0.10302043696325172,-0.3793450839595394,0.0
-1.0406932245118843,0.59031701997356,3.6266800963330925,0.017125932764313078,0.09570118081829461,-0.523161604993484,0.0
-1.0232636548768088,0.6060466207847558,3.721616085082348,-0.161707984447987,0.14352028525686905,-0.6098851232171737,0.0
-1.0232636548768088,0.6060466207847558,3.721616085082348,-0.27962046839791727,-0.07752110153550779,-0.8476521810904842,0.0
-0.9884046376453751,0.5614793802446448,3.810223007914987,-0.2693031257526835,-0.4283571901730213,-0.9625608392110515,0.0
-1.0128059741151223,0.5772090269459083,3.911487619431027,-0.2629162016360324,-0.8372594073175935,-1.0500070804512418,0.0
-1.037207310584869,0.603425013001212,3.746932348748816,-0.41325460249299556,-0.95095177540089,-0.8021223234455808,0.0
-1.037207310584869,0.603425013001212,3.746932348748816,-0.6903489170046085,-0.9065483297813755,-0.614221320283291,0.0
-1.0406932245118843,0.5798305888393845,3.5697189462333725,-0.878026317852288,-0.9934034431874019,-0.7002221154904807,0.0
-1.037207310584869,0.5562362105676246,3.4621248256508825,-1.0362255078280522,-1.2876373081095662,-0.8209124167101657,0.0
-1.009320060188107,0.5352633941893411,3.373518345968077,-1.2376593495565884,-1.4486608361731865,-0.8541564061732179,0.0
-0.932630075832492,0.5405065638663612,3.4621248256508825,-1.5899229124350474,-1.2651916249735098,-0.6200028928659663,0.0
-0.796679798795055,0.501182538893338,3.5887061439832233,-1.889125705331732,-1.5482026483276459,-0.5397835997250099,0.0
-0.7827361430869947,0.48020972251505445,3.778577678331902,-1.9692080847206237,-1.7531417013581823,-0.3974124894658449,0.0
-0.8315388160264889,0.4566152983532269,3.6266800963330925,-2.091542187646187,-1.865370117038465,-0.5571283174730365,0.0
-0.8559402135155946,0.40418325740751815,3.272253291302204,-2.352423531719693,-1.5608893470760787,-0.6850454962755128,0.0
-0.7095320726583947,0.3517512164618091,3.4621248256508825,-2.4020451075891156,-1.1061198747428922,-0.9813509324756362,0.0
-0.7583347455978888,0.31767038411084,3.310227686801907,-2.749395563414709,-0.9592469026081092,-0.8874004661527125,0.0
-0.7443912119285458,0.2783463476652998,3.417821364234564,-2.7415348222342715,-0.9729095378843483,-0.732020799953417,0.0
-0.7269616422934703,0.197076684199451,3.3925055437179283,-2.7336738893003796,-1.0558610004017595,-0.6785412711927795,0.0
-0.6607293997189008,0.14988784448018377,3.133014062711546,-2.779364902826128,-0.931921727278241,-0.7992315018960218,0.0
-0.6921025030233191,0.14988784448018377,3.1140270865366113,-2.80294750987435,-0.601091528068573,-0.7710463619991448,0.0
-0.6921025030233191,0.14988784448018377,3.057065493287058,-2.9321598092711585,-0.1643762149415343,-0.7255165043542413,0.0
-0.6398139161568098,0.021429335558809298,3.2216209855441846,-2.760695594584225,0.2791704158236239,-0.7732144605322036,0.0
-0.5944971571443309,-0.007408292697589057,3.2279500514608017,-2.436927554053398,0.41238077648782023,-1.0420574093355077,0.0
-0.5700958816939425,-0.07294834961598363,3.272253291302204,-1.8154304418129465,0.5460791054159199,-1.1555206919395167,0.0
-0.5770675875092552,-0.13586679875083432,3.2659242253855876,-1.2239028607373676,1.045739991632524,-1.2733201010932,0.0
-0.6572434857918854,-0.12800199834523654,3.297569554968673,-1.3703108430657482,0.22208025955285024,-1.000141025740221,0.0
-0.9640032401562694,-0.08605636558866937,2.5064378664159577,-1.5555317383253588,-0.06873799416155926,-0.6438518356967264,0.0
-0.5840394153632855,-0.1830556470744892,3.6076928985832417,-0.9099609384355437,1.3951122230896331,-1.623105066053961,0.0
-0.30168099746864846,-0.24597409620933988,3.335543950468375,-1.2204637625017443,0.8583671295442319,-2.1636817146936864,0.0
-0.24939241060213976,-0.36918940964053126,3.6266800963330925,-0.9649867019589714,0.4270192768749084,-2.20848884932209,0.0
-0.4062581712016672,-0.384919010451727,3.417821364234564,-0.9030826460875692,0.22256820401110095,-2.347969243806359,0.0
-0.552666312058867,-0.32724377688396405,3.4114922983179463,-0.9477912107808552,-0.5781578766686134,-2.401448631534112,0.0
-0.5979830710713462,-0.2774333207767653,3.3671892800514605,-1.3044764166041276,-1.7102020176964634,-2.4881722907906862,0.0
-0.6677012275729308,-0.2014068556692288,3.2595951594689705,-1.760895950644114,-1.5130702664431568,-2.332792554074949,0.0
-0.6014689849983612,-0.033624313170443496,3.329214884551758,-1.4946103230398755,-0.28099627357998763,-2.1326058237636927,0.0
-0.5700958816939425,0.013564523680694513,3.601364275816458,-0.6854359058284715,0.5319285494870827,-1.8348549415305686,0.0
-0.6084408128523915,-0.023137904981301707,3.5380736166502875,-0.1307559625045815,0.18841169914028685,-1.3159592782214293,0.0
-0.5456944842048369,-0.08867795042717946,3.5760480121499896,0.1689382525540857,-1.0134093326152476,-1.149739119356841,0.0
-0.4934058973383277,-0.11489398237255086,3.455795759734266,0.2627769290087433,-1.5891904589337544,-1.2978918374569026,0.0
-0.500377725192358,-0.031002705386899598,3.1963047218777167,0.12373846344456846,-1.4184079464825092,-1.3961785008459435,0.0
-0.45157505225286376,0.05813176422080554,2.8482067611885284,-0.2697944220764608,-0.4171343486049931,-1.0868645439639109,0.0
-0.4829481555572824,0.05813176422080554,2.924155330613017,-0.3090985833931042,0.050321825452332665,-0.7732144605322036,0.0
-0.47946224163026707,0.052888560126234635,3.1076980206199942,-0.18774698922295985,-0.7211272455260859,-0.6438518356967264,0.0
-0.46900449984922177,0.03453734579523652,3.1583303263780143,-0.1916774077515424,-1.0656199847893832,-0.874391874954361,0.0
-0.3435119645928303,-0.004786684914045157,3.354531148218226,0.3359809201729336,-1.0051142054080284,-1.2444123086962648,0.0
-0.25287832452915476,0.016186131464238415,3.2849114231354384,-0.13959939820159672,-0.9943792844925985,-1.3802791586144754,0.0
0.012050523730406467,-0.09129955821072332,2.373527925316833,-0.4535413564571937,-0.6289046716623445,-1.73729107167447,0.0
-0.1936179098086152,-0.16732602331825963,2.7406128621809556,0.17286867108266832,-1.6535997939811136,-1.7683669626044638,0.0
-0.008864837792966823,0.02405093760609474,2.759600059930807,0.15763830527670633,-3.2169920257348115,0.0528271801224063,0.0
0.20028950967307016,0.016186131464238415,2.759600059930807,-0.7050879984713843,-4.7935584959990996,1.8537858276244679,0.0
0.06782502452393073,0.08959099309042469,2.563399459665511,-1.3786630483542366,-3.6990865781752564,0.9135582298294028,0.0
0.0015927819493611489,0.07123977732536198,2.1773273250515377,-1.6390530241964185,-2.598271310977195,0.09907972993286668,0.0
-0.022808493501027153,0.0659965732307911,2.012771832794411,-1.92253433473223,-1.3461913096579183,0.32672900052827397,0.0
-0.047209890990133084,0.02405093760609474,1.6456868959302886,-2.1278984511742554,-0.8777592020484928,0.18146708634866063,0.0
-0.0681252525135061,-0.01002988900861604,1.2469565186956226,-2.449210129932106,-1.5311243780379995,-0.9741239843764025,0.0
-0.13435749508807596,-0.05459712954872706,1.019110588847242,-2.426610067593074,-2.8359029521840116,-1.521204858098861,0.0
-0.17967425410055488,-0.1778124315074015,0.9305038875895196,-1.9947557811872287,-3.671273577415399,-2.009024771510891,0.0
-0.10995621963768765,-0.30889256828922446,0.746961419157459,-1.2479766442634581,-3.5170811289333743,-2.4773319391582778,0.0
0.03645192121951239,-0.32724377688396405,0.5507607081047048,-0.24915973678599354,-2.5641147703979037,-1.9902346782463063,0.0
0.1689162843299342,-0.1699476311018035,0.43683779857424404,0.1905555304921076,-2.418217734790926,-1.0442255078685663,0.0
0.1584585425488889,-0.031002705386899598,0.7975938357029366,-0.3194159260383379,-2.6675602334409767,-0.5419516982580685,0.0
0.325782166968179,0.03191574374795108,0.7786066379530854,-0.49038903615495044,-3.6863998794268236,-0.29406694125240773,0.0
0.33972582267623935,0.139401436291042,0.6330384542332682,-0.8711480255043136,-4.3992949934924885,-0.20011645730037333,0.0
0.33972582267623935,0.139401436291042,0.6330384542332682,-0.5596626087905581,-6.386715411123047,-1.2827151477254923,0.0
0.7057460527805214,-0.13324519096729046,0.3165858231271655,-0.3685461336764377,-6.838557359540646,-2.823503359552981,0.0
0.9114144863195439,-0.033624313170443496,-0.01252491211530628,-0.8721306660902323,-4.705727826955706,-2.2663045751488444,0.0
1.1031392641505036,-0.13848840653437822,-0.20872554007746644,-1.0003605166545781,-3.6297976557114735,-0.9921913546244868,0.0
1.0926815223694597,-0.26170369702053564,-0.3985971228956577,-0.8146483490403721,-3.7415383411843774,0.12148330606162361,0.0
0.9671888650743511,-0.2223796720475125,-0.7593531115548375,-0.678557661418861,-3.5819787655237705,1.5155640078290578,0.0
0.9358158838086501,-0.2774333207767653,-1.012515194282228,-0.6019145720190475,-3.9079291868717974,1.920996600083515,0.0
0.9985620904174873,-0.40589182683001046,-1.1011219509336794,-0.5110237214454176,-2.9813120671383886,1.2539481481578718,0.0
0.9881043486364423,-0.429486250991838,-1.1960577181080185,-0.43192407851917164,-1.8541473706930465,0.6461606565426571,0.0
0.9776466068553956,-0.4006486112629228,-1.3226388148654429,-0.3086072870693269,-1.0260960313636804,1.071828647061815,0.0
0.8382102938522252,-0.3534597629392679,-1.3859293078504262,-0.20395995966106728,-1.2188363062983827,0.9547518904081894,0.0
0.6534573438752951,-0.2092716560748268,-1.4049164502065479,-0.10668216699389994,-0.9548553310668956,0.9005497091474935,0.0
0.5070492030180953,-0.09392116599426717,-1.4808651304184939,-0.12682554996829445,-1.7375272882489405,0.21687919197388209,0.0
0.3850424596500015,-0.06770514552141273,-1.5821299635094501,-0.23982501075749652,-1.8336533701673834,-0.5708595611714461,0.0
0.3885283735770159,-0.025759501292328714,-1.5251684810473547,-0.2756900498693346,-0.9475361403874828,0.34046020896846235,0.0
0.4373311685552278,-0.05197552176518316,-1.5441556787972062,-0.3253115538312117,-0.6284167510097463,0.8933227610482599,0.0
0.29440894162504333,-0.12275878277814864,-1.5125103492141208,-0.4142372191097322,-0.4093271420503722,1.196132422331117,0.0
0.14102921699124824,-0.25121728883139394,-1.3859293078504262,-0.44862834528105644,-0.14729795655471414,1.2561161056580459,0.0
0.1584585425488889,-0.2669469125876235,-1.3732712314109208,-0.678557661418861,0.8495840816844145,1.2973098367532745,0.0
0.41292977106612244,-0.15159642250706384,-1.39858743968366,-1.3545892648281461,1.011095530400633,0.9121128543128445,0.0
0.46521847997134874,-0.05197552176518316,-1.4935232622517283,-2.062555392943959,0.6280547266281347,0.674345796439534,0.0
0.44778891033627366,0.026672539653380192,-1.7466853449791186,-2.643274406958073,-0.11802095578053821,-0.03678713320717669,0.0
0.25955004643232704,-0.08867795042717946,-2.0631379760852213,-2.2831499111457196,-0.8831267101175126,-0.19216678618463925,0.0
0.3606413062383305,-0.13324519096729046,-2.2973128610627604,-0.7203183522927551,0.9881619266119784,0.5457059298787786,0.0
0.6011688790475052,-0.05459712954872706,-2.328958190645846,-0.3469288317692337,0.8788610348472856,0.697472086770236,0.0
0.5697956537043661,0.03453734579523652,-2.1200994585473167,-0.5734190496714152,1.6361596897550754,1.4678661221675378,0.0
0.3850424596500015,-0.007408292697589057,-1.9555440770776482,-0.8500220678592509,2.024567953985288,1.882693620021403,0.0
0.2351486489432214,-0.1122723745890068,-1.6137751823050774,-1.1064816731112146,1.7215509459806968,1.0870052662767828,0.0
0.02948009336548209,-0.25121728883139394,-1.3796002419338087,-1.6390530241964185,0.9945052759861948,-0.480522533639918,0.0
0.17240219825694922,-0.28005492856030917,-1.2213739263807575,-2.0542031876554696,0.8905718922905219,-2.0646723988045874,0.0
0.17240219825694922,-0.28005492856030917,-1.2213739263807575,-2.0345511429509213,1.4590337327070049,-2.767855732259283,0.0
0.06085319666990042,-0.36394619407344336,-1.1011219509336794,-0.6402361167189543,4.354041507616154,-2.5185253881877383,0.0
0.726661292265179,-0.3482165932622477,-1.2530192005701135,-1.1900030548590026,4.771726725009239,-1.3051187855561364,0.0
0.7963795708054798,-0.10702918196695285,-0.9555537672138622,-0.6254970831905428,1.6259125942696333,-0.6770958956762211,0.0
0.744090861900253,0.173482265773882,-0.8732760487821633,-0.5753842829048883,1.7927915510548713,0.7213211001174381,0.0
0.7336331201192079,0.25475193497598925,-0.9492247012972448,0.11686024300414004,2.0216402396244795,0.6266479107780142,0.0
0.8347246240026449,-0.429486250991838,-0.3859390187592882,-0.15089934547897604,1.2428718381084398,0.9590880874743066,0.0
1.2112023518105388,-0.004786684914045157,-0.5694815425850785,-0.4107980969049271,1.3028896968371964,0.5760591683087144,0.0
1.0926815223694597,0.49593934627128405,-1.5378266128805893,-0.3041855722169671,0.8793490507224935,0.21615650421560292,0.0
0.7406049479732374,0.2311575108141618,-0.8416308022896718,-0.296324735159802,0.5207057079190544,0.18002169320299174,0.0
0.6081404628241,-0.017894700886730824,-0.8416308022896718,-0.36805481338347834,0.14644798771485187,0.4560915901055299,0.0
0.44081708248224283,-0.14111001431792203,-0.5631524905168938,-0.19364261701583366,0.15181544817256687,0.06583570961887085,0.0
0.8207809682945855,-0.09392116599426717,-0.5947977577820337,-0.11503430037484234,0.4279952134027145,-0.3077981849508173,0.0
0.7057460527805214,-0.10965076680546294,-0.5315072267138619,0.03923452500299886,0.5782838205509049,-0.21818384517756836,0.0
0.4896198774604544,0.013564523680694513,-0.44290049083505906,0.03432150184227068,0.19329120323692486,0.18146708634866063,0.0
0.4268734267741825,-0.07294834961598363,-0.2973322828804854,0.14191664314696717,0.0756952289006113,0.3202247401873194,0.0
0.6429996020942506,0.09745579923228105,-0.5061910184411229,-0.019230413157819544,-0.4527546987533855,0.2660225236684027,0.0
0.5732815676313812,0.003078115491552735,-0.5441653343123395,0.2485291678349271,-0.6884346097385026,0.5146299684323428,0.0
0.8695835191953609,0.013564523680694513,-0.7656821774714546,0.1640252293933576,0.39286278390692053,2.5613053581452805,0.0
1.228631921445615,0.05813176422080554,-0.8479598405094242,-0.24129889972882845,1.0545231347149513,5.5460401413455624,0.0
1.064794455030773,-0.10965076680546294,-0.803656489880563,-0.1450037176861022,1.835731234716592,7.231367315157725,0.0
-0.026294407428042166,-0.36918940964053126,-0.4555585967024826,0.5010584024966723,1.0945350087932524,2.9638470583337373,0.0
-0.1971038237356305,-0.48978309234314477,0.06342368500604603,-0.06246498850882387,0.04788207489186691,0.34190561974324185,0.0
0.31532442518713366,-0.4085134346135544,-0.44922954463429793,-0.06492149709304021,0.41482054639037863,0.37876311851413225,0.0
0.49659146123705,-0.41899981985766244,-0.41758428256232005,-0.18823829753132815,0.19914659625006442,0.21471111106993404,0.0
0.5523660840692927,-0.4111350423970984,-0.41758428256232005,-0.3032029556002304,-0.17755085814821783,0.036927866538242836,0.0
0.5035632890910801,-0.4268646432082942,-0.4555585967024826,-0.2221381393634661,-0.8475063123578154,-1.374497656548242,0.0
0.12708556128318763,-0.4137566501806422,0.1203851674681413,-0.2958334388360247,-0.95095177540089,-2.139110119362868,0.0
0.18634585396500955,-0.24335248842579596,-0.12011881112287975,-0.06443019477696739,-0.23952051851562953,-0.24203282326654946,0.0
0.9427877116626796,-0.24073088064225212,-0.727707865062346,0.11440372543148045,0.5075310409067186,0.1395507115679292,0.0
0.9950761764904723,-0.25646050439848167,-0.7087206950093594,0.10064727256603255,0.6802653788022701,0.36069571300782677,0.0
0.744090861900253,-0.25383889661493775,-0.6137849139865881,0.12668627734100535,0.41384463366822477,0.5955719493315782,0.0
0.7824359150974203,-0.2852981441273969,-0.1517640853122358,0.14437314873503582,0.07618317931027511,0.24072817006286315,0.0
0.5140210308721256,-0.28005492856030917,-0.044170186304662594,0.1807295081398334,-0.5147243829264496,0.45536890234725075,0.0
0.29440894162504333,-0.19354205526363102,-0.2973322828804854,0.09327774381723579,-0.9177711713494037,0.547151305395337,0.0
-0.5317508284967764,-0.37705418710109534,-1.5758008975928333,-1.125642445461168,1.686418373650989,2.73186150252666,0.0
-0.04372397706311779,-0.09129955821072332,0.13937236521799215,-0.16711231591708353,-0.2658698287346489,2.976132997032032,0.0
1.6957434113558985,-0.5631879726121711,-0.6264430181229576,-0.45108485086912503,-0.0492199896778332,-0.39596707869106545,0.0
1.158913886982746,-0.4819183148825808,-0.9555537672138622,-0.4171850210215781,0.6578196956662138,-0.12423336122553404,0.0
0.5593379119233222,-0.36918940964053126,0.5507607081047048,0.5909666604227475,-0.3595562359731425,0.27975374973770145,0.0
0.5244787726531714,-0.36918940964053126,-0.5315072267138619,-0.15482976400755857,-0.04775614440025489,0.40188940884483415,0.0
0.6708869135103712,-0.5658095803957149,-0.772011215691207,-0.20936427914557287,0.3391882745523802,-0.795618027846405,0.0
0.4721903078253793,-0.3901622260188148,-0.6137849139865881,-0.3351376001526681,0.5860910271055259,-0.5643552655722702,0.0
0.5244787726531714,-0.39540544158590263,-0.36062281048654915,-0.015791298443383697,0.49386845324178424,-0.1871079189893535,0.0
0.4896198774604544,-0.39802700347937886,-0.5125200705093076,-0.0845735777513619,0.7222290783248788,-0.3020166123681417,0.0
0.4024720292850768,-0.40589182683001046,-0.5125200705093076,-0.05116504272951844,0.63732579036316,-0.3316471277815773,0.0
0.5035632890910801,-0.37967579488463915,-0.34163564735777874,-0.18136006510630867,0.5860910271055259,-0.028837475313275556,0.0
0.3885283735770159,-0.4137566501806422,-0.12011881112287975,-0.2525988589907987,0.3006402100431789,-0.457396243309216,0.0
0.5488801701422777,-0.41899981985766244,-0.22138364421383594,-0.10815607394211837,0.20451405670777936,-0.8649968283220686,0.0
0.7684922593893592,-0.3560813707228117,-0.22138364421383594,-0.06590410172518583,0.2630680582561314,-0.7493654471850013,0.0
0.8033513986595099,-0.14635320693997617,-0.1391059811758663,-0.06295629082489669,-0.21902661321257594,0.052104483549571874,0.0
0.6429996020942506,-0.33248694656098426,-0.36062281048654915,0.013195517231878288,0.08155063084087043,-0.057745320597542386,0.0
0.5453942562152627,-0.33248694656098426,-0.32897754322140915,-0.20936427914557287,0.20597790198535773,0.04415482785930954,0.0
0.49659146123705,-0.384919010451727,-0.1391059811758663,0.0181085373964587,0.07325547982799882,0.10486130251554217,0.0
0.2630357162819071,-0.45045906737012154,0.03177846621041891,0.3030636829729415,-0.08191264927106894,-0.6763731726597209,0.0
0.31183851126011897,-0.36918940964053126,-0.3099903870168549,-0.1278081546004401,-0.21658686711566996,-1.4850701176026921,0.0
0.6220841185321594,-0.31413573796624467,-0.41758428256232005,-0.17104272246107505,0.0010388668090602685,-0.17988095326100914,0.0
0.7371190340462229,-0.3744325793175514,-0.3859390187592882,-0.1528645547432673,-0.2307374230445072,-0.4205387445383257,0.0
0.6674009995833562,-0.30889256828922446,-0.34163564735777874,-0.10029524287724882,-0.007256284203811341,0.013078896712907326,0.0
0.5732815676313812,-0.27219010520967746,-0.25935797047137676,-0.09243441181237924,0.21036944972091878,0.14605498072343912,0.0
0.5070492030180953,-0.3534597629392679,-0.34163564735777874,-0.2137860059825237,0.32162208361013583,-0.13290571128499198,0.0
0.46870439389836377,-0.32724377688396405,-0.20872554007746644,-0.09931263824510318,0.3001522655849282,0.1894167398352841,0.0
0.36761313409236057,-0.36132458628989944,-0.1327769152592492,0.011721613279807586,0.23281514475980156,0.2768629634463639,0.0
0.3571553923113152,-0.35870297850635563,-0.2150546059940835,-0.005965258114222845,0.14205643997929074,0.40044399807005465,0.0
0.3641272201653458,-0.36132458628989944,-0.07581546049401873,0.07067784926247718,-0.23512897078006845,0.5536555657362915,0.0
0.17588811218396422,-0.3193789535333323,-0.10746070698651025,0.09180383087672184,-0.3839537445535066,1.535076894626585,0.0
0.3885283735770159,-0.3901622260188148,-0.14543501939561884,-0.0855561793873598,-0.16974366349642317,2.015669718906497,0.0
0.48613396353343963,-0.40589182683001046,-0.253028918403192,0.10654290035890637,-0.052147692135816055,2.0546953514686668,0.0
0.03645192121951239,-0.40589182683001046,-0.1517640853122358,0.313381025618175,0.14937569017283472,2.682718311865025,0.0
-0.1936179098086152,-0.3822974026681832,0.1330432993013753,0.09917337161010963,-0.3702911568885725,3.108386302384183,0.0
0.813809140440556,-0.6575656233694133,-0.5441653343123395,-0.03642598242303639,-0.1229004598771763,0.5269158013559728,0.0
1.3332090951786324,-0.6103768209358259,-0.7846693198275766,-0.2506336497265074,0.7246688244217849,-0.06641767065700034,0.0
1.0508507993227136,-0.5605663648286272,-0.44922954463429793,-0.07916925527070866,1.3126486812248201,-0.2535959684319004,0.0
0.6848305692184302,-0.4845398767760569,-0.06315732866078456,0.1340558060898021,1.0896555165994404,-0.1090567420105662,0.0
0.5976829651204901,-0.46881027596486113,-0.1137897729031273,0.15076007285168688,0.8032288106205921,-0.04473679110107783,0.0
0.41990159892015216,-0.5002695234773203,0.09506895919540216,0.040217129635144504,0.26258011379788065,-0.12495605779836845,0.0
0.4059579432120921,-0.5186207320720599,-0.02518301625167604,-0.03544337844629808,0.07667112971993892,-0.14013266819878104,0.0
0.4582466521173187,-0.5133775165049723,0.057094674483158116,-0.044286814049683675,0.05471337616360038,-0.18855331213502236,0.0
0.4826480496064244,-0.48716148455960095,-0.1644221894486054,0.053973582500592386,0.1322974436888408,-0.10833404543773174,0.0
0.5175069447991404,-0.47667509931549296,-0.10113166876675773,0.07411695948269142,0.1957309493338308,0.002961151304141694,0.0
0.49659146123705,-0.47929670709903677,-0.044170186304662594,0.014669424180096747,0.2108574060819957,0.14388689100493582,0.0
0.5140210308721256,-0.48978309234314477,-0.1517640853122358,-0.06541279940911303,0.39139892672651594,0.03114629836284499,0.0
0.5140210308721256,-0.48978309234314477,-0.1517640853122358,-0.056078061396024975,0.47337454793873057,-0.006433898082699209,0.0
0.4338452546282125,-0.48716148455960095,-0.09480260285014075,0.08738211602436198,0.15083954735323926,0.1518365444915593,0.0
0.4268734267741825,-0.474053491531949,-0.06315732866078456,0.1478122589552501,0.3679773308683057,0.23061041804318103,0.0
0.4268734267741825,-0.474053491531949,-0.06315732866078456,-0.1317385671367271,0.23281514475980156,0.2465097426455386,0.0
0.5000773751640653,-0.5055126931543406,0.025449400293801987,-0.430941485871617,-0.016039385626346755,0.09907972993286668,0.0
0.46521847997134874,-0.5186207320720599,0.01912033437718506,-0.34250711691687385,0.18694785386270854,0.0940208627375809,0.0
0.4164156849931374,-0.5133775165049723,-0.01252491211530628,-0.11552560269091516,0.5563260580674468,0.03981865282958058,0.0
0.5453942562152627,-0.5631879726121711,-0.05049922452441518,-0.1420559157742563,0.40359768101669796,-0.2825037960870568,0.0
0.5628238258503366,-0.5605663648286272,0.10772709102863652,-0.13272117176887274,0.2347669463984567,-0.2268562040515816,0.0
0.3815565457229865,-0.5055126931543406,0.16468857349073127,-0.026599942655653245,0.2840499080174357,0.04776830851984289,0.0
0.3466976505302699,-0.46881027596486113,0.1203851674681413,-0.029056452737943456,0.11375533407302925,-0.30273930012642086,0.0
0.48613396353343963,-0.49502630791023255,0.012791268460568137,0.1104733069028979,0.38651943453270415,0.014524288756756784,0.0
0.09571233594005167,-0.5212423398556039,-0.03151208216829309,-0.002034842581788055,0.16206238892126745,0.05860874829780414,0.0
0.5558519979963071,-0.5867823967739983,0.06975275092266296,0.050043169964305356,0.45336861089958,-0.2030072259626005,0.0
0.48613396353343963,-0.568431188179259,0.1203851674681413,0.08099519190771085,0.12595408836321131,-0.43065651418711826,0.0
0.4826480496064244,-0.5133775165049723,0.1330432993013753,0.13258190513387913,0.25721265334016574,-0.04545948767391229,0.0
0.45476073819030344,-0.4819183148825808,0.2089919241195923,0.11292982447555752,0.31967028197148056,-0.006433898082699209,0.0
0.5140210308721256,-0.5422151562338874,0.14570137574088007,0.07657347705535097,0.570476613996284,-0.21601576427362035,0.0
0.5314506005072009,-0.5395935484503436,0.14570137574088007,0.08689081970058467,0.6197595518096106,-0.2319150712468674,0.0
0.40944385713910686,-0.5133775165049723,0.19000478176347055,0.007791197747372796,0.37920017243633375,-0.1625362531420933,0.0
0.2456063907242667,-0.5579447570450832,0.2722824171045755,-0.07966055758678146,0.07227957900867121,-0.6727596986101039,0.0
0.3606413062383305,-0.5395935484503436,0.2089919241195923,-0.06541279940911303,-0.13607510308385978,-0.4718501747659048,0.0
0.37458496194639085,-0.4661886681813172,0.2722824171045755,0.14633835799932712,-0.35174905322417405,-0.29334425349412857,0.0
0.43035934070119775,-0.47667509931549296,0.24063719830894845,0.33254182193731047,-0.8084702795847108,-0.9148628830330893,0.0
0.6081404628241,-0.5055126931543406,0.2786114830211925,0.37135468693017654,-0.4171343486049931,-0.057745320597542386,0.0
0.461732566044334,-0.4452158518030337,0.10772709102863652,0.22740318622068253,-0.12534020597408219,0.14316419443210138,5.0
0.5140210308721256,-0.4137566501806422,0.19633379228635847,0.08296040117200214,0.25379701832675833,0.15689542050140035,5.0
0.5663097397773517,-0.43997263623594596,0.012791268460568137,0.015160726496169553,0.754921761723767,0.08173502540667314,5.0
0.4896198774604544,-0.3665678018569874,0.006462257937680214,0.007299895431299984,1.5985874189397653,-0.16687243257909987,5.0
0.4721903078253793,-0.4321078587753818,0.06342368500604603,-0.08801269096772385,2.101663987781082,-0.13724189072199858,5.0
0.4338452546282125,-0.5395935484503436,0.34823109731652163,-0.16612971128493786,1.2648296005918982,0.5724456590008764,5.0
0.31183851126011897,-0.5369719406667997,0.7089870236577565,-0.6485882740690786,-0.30880944097941143,0.5117391821410049,5.0
0.3571553923113152,-0.4819183148825808,0.5570897740213221,-0.8362656269783939,-1.0924572394666532,-0.08376237959047152,5.0
0.3501835644572855,-0.573674357856279,0.37354730558926086,-0.7517617005214154,-1.3793719137094047,0.4640412612212639,5.0
0.37109904801937554,-0.32986538466750787,0.24063719830894845,-0.444697926752474,-2.011267343090661,0.04632291537417404,5.0
0.6848305692184302,-0.49502630791023255,0.39253444794538267,0.009265101699443492,-1.7921776389086774,-0.07581272610384798,5.0
0.6429996020942506,-0.5186207320720599,0.08241088275589732,-0.039865096201176065,-1.5467387911472417,-0.11556101116607609,5.0
0.4721903078253793,-0.4635670603977734,0.06975275092266296,-0.09587352203259346,-1.3852273424310229,0.21037493163292745,5.0
0.37458496194639085,-0.42162142764120625,-0.10746070698651025,-0.044778116365756494,-1.1895593531355115,0.326006312769995,5.0
0.4164156849931374,-0.47143188374840517,0.006462257937680214,0.2288770991611965,-0.7830968820878453,0.05644066298657848,5.0
0.6185982046051438,-0.5343503328832557,-0.06948639457740168,0.11440372543148045,-0.27660472584442636,-0.010047377641413153,5.0
0.2142331653811305,-0.4137566501806422,0.08873989327878523,0.37479378516579986,-0.8806869164093019,0.5008987599921543,5.0
0.4582466521173187,-0.5186207320720599,-0.34163564735777874,0.279481195770628,-0.9148434569885946,0.26819062220146106,5.0
0.6952883109994774,-0.48978309234314477,-1.3163097489488258,-0.8333178010973661,1.810357837219726,0.16050889455101724,5.0
0.5035632890910801,-0.573674357856279,0.6330384542332682,0.1109646152112662,1.1862696143930906,0.03548247559621279,5.0
0.325782166968179,-0.45045906737012154,0.10139802511201915,0.24607266224685864,-0.31661664753403235,0.03981865282958058,5.0
0.42338751284716747,-0.5055126931543406,-0.1327769152592492,-0.16318189738850097,-0.11509325332255538,-0.051241055849310116,5.0
0.43035934070119775,-0.5133775165049723,-0.07581546049401873,-0.035934680481482045,-0.5083810335522333,-0.1386872838676675,5.0
0.5244787726531714,-0.5002695234773203,-0.32897754322140915,-0.07474753742220104,-0.12631610679340982,-0.05340914556781342,5.0
0.4512748242632884,-0.48716148455960095,-0.056828290441032166,-0.1366515843051598,-0.29173119449541746,-0.11483831459324166,5.0
0.4443029964092578,-0.46094545261422937,-0.06948639457740168,0.008282497067297874,-1.084162112259434,-0.0974936056597705,5.0
0.49659146123705,-0.4819183148825808,-0.26568702253956156,0.03481280415834351,-0.782608961435247,-0.008601986699383104,5.0
0.5488801701422777,-0.5055126931543406,-0.44922954463429793,-0.17055142613729773,-0.3629718947922023,0.03981865282958058,5.0
0.5907111372664573,-0.5500799336944515,-0.36062281048654915,-0.0315129624457152,-0.13119561089004791,-0.06714036722983477,5.0
0.5070492030180953,-0.4819183148825808,-0.3796099666911034,-0.02512603645647173,-0.06434644642599811,-0.034619043488673396,5.0
0.3885283735770159,-0.47667509931549296,-0.03784112038804561,0.19939896019682732,-0.9968190782008093,-0.1806036586483989,5.0
0.4373311685552278,-0.4924047001266887,-0.2783451266759311,0.3688981813421079,-0.9270422350844291,0.02247394609974823,5.0
0.3571553923113152,-0.47143188374840517,-0.4935329125736993,0.27997249209440545,-0.6474467991323952,0.2335012043345188,5.0
0.43035934070119775,-0.4819183148825808,-0.5884686987896328,0.23379011033733363,-0.42689338060392173,0.24434164411248008,5.0
0.47567622175239405,-0.5002695234773203,-0.5251781746456771,0.15272528211597822,-0.22049047039298034,0.283367241416429,5.0
0.5419083422882449,-0.5343503328832557,-0.6074558619184032,0.1163689346957717,0.004454516701000351,0.08896198672773985,5.0
0.6046547929745196,-0.5212423398556039,-0.6074558619184032,-0.08064316221892712,0.34162802064928627,-0.18204905179406772,5.0
0.48613396353343963,-0.49502630791023255,-0.44290049083505906,-0.021686923240109755,0.1698695954758884,-0.17193129977438565,5.0
0.48613396353343963,-0.4924047001266887,-0.44922954463429793,-0.026108640339580425,0.09277348431172489,-0.11339292144757279,5.0
0.5419083422882449,-0.5133775165049723,-0.4872038596399875,0.007791197747372796,0.2498934150494478,-0.07798080700779604,5.0
0.44081708248224283,-0.4845398767760569,-0.32897754322140915,0.07460826779105972,0.2064658464436084,0.02536473018744715,5.0
0.44081708248224283,-0.4845398767760569,-0.32897754322140915,0.08050389558393353,0.09423733554071631,0.01886046543921487,5.0
0.41292977106612244,-0.4976479156937766,-0.39226807082747295,-0.018247808525673904,0.18109244894674287,0.019583160910229897,5.0
0.4826480496064244,-0.5186207320720599,-0.42391333463050485,0.10654290035890637,0.09765298245694984,0.08318041414506437,5.0
0.4826480496064244,-0.5186207320720599,-0.42391333463050485,-0.04084770008428477,0.4865492149510665,0.19303023151401155,5.0
0.5732815676313812,-0.46881027596486113,-0.42391333463050485,0.08443430212792508,0.5016756597964052,0.10413860594270771,5.0
0.5453942562152627,-0.47667509931549296,-0.4049261749638425,0.05544748944881084,0.690512331453797,0.24940051130776586,5.0
0.5453942562152627,-0.47667509931549296,-0.4049261749638425,0.0289171823577652,0.5856030588416227,0.16339968084235498,5.0
0.5279646865801865,-0.46881027596486113,-0.2783451266759311,0.10556029572676073,0.4748384051191353,-0.5831453588368551,5.0
0.6151122906781293,-0.5946471742345627,-0.3099903870168549,0.25245958636350974,0.6275667583642316,-0.1769901669696714,5.0
0.18285994003799452,-0.37967579488463915,0.06975275092266296,0.6956139998155981,0.07227957900867121,1.007508696152327,5.0
0.31183851126011897,-0.2276228876146002,-0.36062281048654915,0.271620358713463,0.09228553390206108,0.8362297582380054,5.0
0.5872252233394428,-0.5186207320720599,-0.20872554007746644,0.304046299589678,-0.08923189946461296,0.2949303689526694,5.0
0.4826480496064244,-0.6025119975851941,-0.2846741787441158,0.27555077724204563,-0.3595562359731425,-0.10399786600072515,5.0
0.48613396353343963,-0.5500799336944515,-0.18340933180472735,0.31092452003010657,-0.27514089246967444,0.27252680163846776,5.0
0.5767674815583984,-0.5369719406667997,-0.6770754346684357,-0.3036942758931898,0.7232050148526852,0.017415073395365414,5.0
0.6220841185321594,-0.5107559087214283,-0.6770754346684357,-0.14795153158253913,0.6861208075238883,0.08028963226100427,5.0
0.4373311685552278,-0.5317287250997117,-0.3732809146229186,-0.16023408349206406,0.8676381932792574,0.38309928032202833,5.0
0.3920142875040318,-0.5055126931543406,-0.20872554007746644,0.010247706331589133,0.7110062367568506,0.3202247401873194,5.0
0.22469090716217607,-0.5238639476391479,0.00013319202106284688,0.14830356726361843,0.25818856606231944,0.2949303689526694,5.0
0.25955004643232704,-0.5133775165049723,-0.20872554007746644,0.10113856888980985,0.40408562547494864,0.05065909481118064,5.0
0.5767674815583984,-0.6234848139634779,-0.22771271013045302,0.12079064954813154,0.676849743788863,-0.2709406685508164,5.0
0.5035632890910801,-0.5841607889904548,-0.1517640853122358,0.08983863359702157,0.4143325781264755,-0.05846801717037683,5.0
0.42338751284716747,-0.5448367640174314,0.057094674483158116,0.024004159197037023,0.35626652103637424,0.1279875752171335,5.0
0.3606413062383305,-0.5055126931543406,0.19633379228635847,0.15125138116005524,0.017141219169066312,0.23422389209279798,5.0
0.31532442518713366,-0.5317287250997117,0.30392769129393166,0.23772052886591627,-0.1268040512516605,0.6425471824930401,5.0
0.4164156849931374,-0.5238639476391479,0.30392769129393166,0.0028781775827923708,0.3601701243136848,-0.5723049366880042,5.0
0.9009567445384994,-0.5998903898016505,-0.8163145940169327,-0.10717346930997276,0.7197893322279729,-0.567246051863608,5.0
0.44081708248224283,-0.568431188179259,-0.056828290441032166,-0.13370377640101838,0.061544675947480566,-0.0013750253783163906,5.0
0.290923027698028,-0.5553231492615394,0.42417972213473876,0.30060717738487286,-0.25123132834756096,0.582563428649669,5.0
0.31881033911414897,-0.5186207320720599,0.4684830727636002,0.3349983275253791,-0.4303090156173288,0.5789499193418309,5.0
0.5488801701422777,-0.5946471742345627,-0.2846741787441158,-0.1646557983444239,0.03177972178793422,0.05065909481118064,5.0
0.4582466521173187,-0.6392144147746737,0.16468857349073127,0.2500030807754411,-0.3907850621916262,-0.27383145484215393,5.0
0.44081708248224283,-0.573674357856279,-0.056828290441032166,0.007299895431299984,-0.1243643051547546,-0.05196375242214455,5.0
0.5767674815583984,-0.6051336053687382,-0.32897754322140915,-0.20297735502892167,0.2733150109076582,-0.08593046930897483,5.0
0.37458496194639085,-0.5369719406667997,0.06342368500604603,0.13012538756121964,-0.5357062088821014,0.4416376939070623,5.0
0.1131419055751273,-0.4976479156937766,0.7912647697863198,0.4337500151561738,-1.8102318457261302,0.8752553202837333,5.0
0.14451513091826323,-0.48978309234314477,-0.23404174835020547,-0.09882133592903036,-0.9099639647947827,0.9128355068129026,5.0
0.6952883109994774,-0.6365928069911297,-0.26568702253956156,-0.13419507871709122,-0.46348961966881547,0.2652998359101235,5.0
0.17588811218396422,-0.5238639476391479,0.050765608566541186,0.053482280184519566,-1.2407940687818408,1.0378619345822624,5.0
0.36761313409236057,-0.5815391812069107,-0.32264849115322447,-0.15384715937541293,-1.0963608903552686,0.9937775229703596,5.0
0.5941970511934729,-0.6811600934213082,-0.41758428256232005,-0.04723462569900977,-0.681115371447785,0.515352691448843,5.0
0.6046547929745196,-0.7073760794766121,-0.5251781746456771,-0.14893413621468476,-0.223418160948137,0.1655677793754136,5.0
0.6952883109994774,-0.6890248249918047,-0.5315072267138619,-0.17251663540158899,0.2986884084045236,-0.22902430258464013,5.0
0.5697956537043661,-0.6497008459088492,-0.4049261749638425,-0.02758254653876194,0.32747746472044903,-0.24131013550827027,5.0
0.461732566044334,-0.5631879726121711,-0.44922954463429793,0.17532517667073677,0.7998131756071849,0.36503191007394376,5.0
0.5105351169451103,-0.5631879726121711,-0.4555585967024826,-0.18086876878253139,1.3331425865278739,0.665673472823742,5.0
0.2874371137710133,-0.6261064217470217,-0.01252491211530628,-0.0482172303311554,0.38066402961673834,0.4199567790929187,5.0
0.24909230465128174,-0.6811600934213082,-0.1770802935849749,-0.26193358501929576,-0.021894787566605886,0.27975374973770145,5.0
0.17588811218396422,-0.6706736622871329,-0.3732809146229186,-0.4304501655786577,0.18109244894674287,0.3245609019952155,5.0
0.325782166968179,-0.5920255664510186,-0.20872554007746644,-0.5503278587928793,0.11131558797612333,0.4640412612212639,5.0
0.45476073819030344,-0.6234848139634779,-0.1517640853122358,-0.4589456879262901,0.09960478409560508,0.4148979295267434,5.0
0.3815565457229865,-0.7414568888825476,-0.03151208216829309,-0.24080760340505114,-0.09947885211613977,0.14027340814076364,5.0
0.3571553923113152,-0.7598081433673548,-0.06315732866078456,-0.04330421016657498,-0.32491179854690394,-0.015828948020449818,5.0
0.4338452546282125,-0.6995112561259804,-0.32897754322140915,0.06773003536604028,-0.19950862063167601,-0.017274338962479856,5.0
0.4164156849931374,-0.568431188179259,-0.4682167021371427,0.21069891945879773,0.1474238885341795,0.3744269567062361,5.0
0.4896198774604544,-0.7204841183943316,0.01912033437718506,0.502040995144227,-0.41615845968849174,-0.03534174006150782,5.0
0.4896198774604544,-0.7204841183943316,0.01912033437718506,0.15763830527670633,0.0010388668090602685,-0.044014094528243404,5.0
0.4373311685552278,-0.6811600934213082,-0.32897754322140915,-0.22557724958368036,0.16645394855965487,-0.2030072259626005,5.0
0.4373311685552278,-0.6811600934213082,-0.32897754322140915,-0.08309967080314344,0.4538565315521783,-0.3461010592382658,5.0
0.4443029964092578,-0.662808838936501,-0.2973322828804854,0.1556730960124152,0.5421755021386094,-0.234083169779926,5.0
0.3571553923113152,-0.6864033089883961,-0.1644221894486054,-0.482036878804826,0.1249781875438837,-0.019442426477344354,5.0
0.3222962530411637,-0.9852659538514539,-0.5251781746456771,-0.4343805841072403,-0.3702911568885725,-0.2969577275437452,5.0
0.30835259733310394,-0.573674357856279,-0.41758428256232005,-0.1784122512098718,0.7934698262329685,0.2472324304038178,5.0
0.5070492030180953,-0.620863206179934,-0.22771271013045302,-0.3071333741288131,0.5548622008870423,0.2689133099597402,5.0
0.3606413062383305,-0.6234848139634779,0.012791268460568137,-0.1960991345884932,-0.011159884505415241,0.06800379933737416,5.0
0.31881033911414897,-0.7545649278002668,0.28494054893780935,0.14093403851482153,-0.4683691118626273,0.05644066298657848,5.0
0.4059579432120921,-0.6549440614759369,-0.34163564735777874,-0.04919983346522716,-0.12826790843206504,-0.062081495627271374,5.0
0.5732815676313812,-0.6706736622871329,-0.26568702253956156,-0.016773903075529336,0.1713334407534667,-0.1914440984263601,5.0
0.5035632890910801,-0.6365928069911297,-0.253028918403192,-0.10864737625819122,0.1776768020305093,-0.165427039433431,5.0
0.48613396353343963,-0.6051336053687382,-0.1517640853122358,-0.1391081018778194,0.08008677961187902,-0.09098933650426058,5.0
0.5663097397773517,-0.5658095803957149,-0.056828290441032166,-0.6220579370165555,0.35968217985543405,-0.3359833248476942,5.0
0.43035934070119775,-0.7309705495285073,-0.056828290441032166,-0.5326409993834398,0.26014036770097465,-0.2673271945011994,5.0
0.3327539948222096,-0.6680520545035888,-0.42391333463050485,-0.593562414668923,0.1776768020305093,-0.4458331334020862,5.0
0.31532442518713366,-0.568431188179259,-0.2973322828804854,-0.38623299308587716,0.3221100280683865,-0.062081495627271374,5.0
0.31183851126011897,-0.576295965639823,-0.17075122766835785,-0.4520674435166797,-0.07361749825819733,-0.05196375242214455,5.0
0.41990159892015216,-0.6051336053687382,-0.2150546059940835,-0.1975730355444162,0.2293995097463942,-0.08448507616330594,5.0
0.3362399087492246,-0.6497008459088492,-0.1264478770394968,-0.12142122449149347,-0.11411735250322777,-0.30418467564297924,5.0
0.283951199843998,-0.7257273339614193,-0.1644221894486054,-0.15384715937541293,-0.48056788995846184,-0.3750088868934221,5.0
0.34321173660325516,-0.6942680405588925,-0.1897383977213444,-0.29730732780735664,-0.6952659273766221,-0.5694141503966667,5.0
0.36761313409236057,-0.6811600934213082,-0.22138364421383594,-0.46828043792396923,-1.0187768406842674,-0.75225626873456,5.0
0.34321173660325516,-0.6864033089883961,-0.24037081426682252,-0.41865893396209214,-1.2505530531694644,-1.0803603188811775,5.0
0.5384224283612304,-0.6261064217470217,-0.5758105946532633,-0.08113446453499994,-0.5640073207397761,-0.8006768774125802,5.0
0.8347246240026449,-0.5186207320720599,-1.012515194282228,0.26768994018488057,1.2516548859682572,-0.5484559585990231,5.0
0.646485516021265,-0.5159991242885159,-1.1201090932898012,0.06723873904226296,1.5966356411067626,-0.05196375242214455,5.0
0.4582466521173187,-0.5553231492615394,-0.2973322828804854,0.17679908961125076,1.4487867324441732,0.300711941535345,5.0
0.25955004643232704,-0.5500799336944515,0.057094674483158116,0.3777416110468277,-0.3366225845731829,0.5579917628024088,5.0
0.14102921699124824,-0.5291071173161681,0.01912033437718506,0.14093403851482153,-0.6962418162931234,0.0940208627375809,5.0
0.45476073819030344,-0.5946471742345627,-0.42391333463050485,-0.3759156504406434,-0.3722429347215753,-0.23625125068387406,5.0
0.4721903078253793,-0.6103768209358259,-0.4302423866986896,-0.6372882908379264,-0.14827385737404178,-0.330924440023298,5.0
0.5035632890910801,-0.6365928069911297,-0.3732809146229186,-0.4348719044001996,-0.07654520071618018,-0.3446556837217074,5.0
0.4164156849931374,-0.6549440614759369,-0.1644221894486054,-0.0855561793873598,-0.2497674711671564,-0.33815138812253176,5.0
0.37458496194639085,-0.5553231492615394,-0.22138364421383594,0.1473209626314728,-0.33564669565668154,-0.3005712015933622,5.0
0.45476073819030344,-0.5527015414779954,-0.3099903870168549,0.2038206990183693,-0.2624541699155891,-0.27166335630909555,5.0
0.5000773751640653,-0.5500799336944515,-0.41758428256232005,0.1561643923361925,-0.19316527125745966,-0.1871079189893535,5.0
0.49659146123705,-0.5343503328832557,-0.4618876496361944,0.1473209626314728,-0.06776209334223164,-0.05196375242214455,5.0
0.4164156849931374,-0.5133775165049723,-0.253028918403192,0.10703419668268369,-0.5025256048306149,-0.21023419169094487,5.0
0.4826480496064244,-0.5055126931543406,-0.5947977577820337,0.011721613279807586,-0.3112491870763174,-0.2947896290106869,5.0
0.5105351169451103,-0.5238639476391479,-0.6644173305320661,-0.1032430507813902,-0.07703314517443087,-0.2774449288917709,5.0
0.5384224283612304,-0.5500799336944515,-0.6074558619184032,-0.25112494605028474,0.2884414557529969,-0.13435110443066084,5.0
0.4826480496064244,-0.5395935484503436,-0.4302423866986896,-0.4329066951359083,0.2620921693396299,-0.08014889672629935,5.0
0.37109904801937554,-0.5002695234773203,-0.34163564735777874,-0.4515761711620844,0.10643608387948526,-0.002097720849331418,5.0
0.42338751284716747,-0.5264855095326241,-0.4365714387668743,-0.2933769332479561,0.14498414243727356,-0.022333212768682102,5.0
0.4896198774604544,-0.5789175734233669,-0.3859390187592882,-0.0885039932837967,0.12302638590522848,-0.11556101116607609,5.0
0.5035632890910801,-0.5841607889904548,-0.41758428256232005,-0.020704318607964123,0.1171709869406759,-0.19433488471769783,5.0
0.43035934070119775,-0.5238639476391479,-0.2783451266759311,-0.019230413157819544,-0.22097841485123101,-0.18493983808540546,5.0
0.44081708248224283,-0.4819183148825808,-0.4365714387668743,-0.03298686845763748,-0.1731593104126566,-0.1177290920700241,5.0
0.46521847997134874,-0.49502630791023255,-0.41758428256232005,0.12668627734100535,-0.05361154336480747,-0.09243472964992944,5.0
0.5070492030180953,-0.5212423398556039,-0.4302423866986896,0.16648173498142604,-0.04531639235193585,-0.020165123050178778,5.0
0.5314506005072009,-0.5527015414779954,-0.5251781746456771,0.3045375959134553,0.16401419055992272,0.17857630005732286,5.0
0.49659146123705,-0.5500799336944515,-0.5504943863805243,0.5236582730822489,0.3709050214234623,0.35997302524954755,5.0
0.5105351169451103,-0.5291071173161681,-0.4302423866986896,0.42146748721583094,0.4885009927840693,0.2667452290557922,5.0
0.42338751284716747,-0.5343503328832557,-0.4049261749638425,0.1374949163100164,0.2899053129334015,-0.04184600480974011,5.0
0.44081708248224283,-0.5448367640174314,-0.4618876496361944,0.0023868752667195584,0.2991763766684268,-0.057745320597542386,5.0
0.4443029964092578,-0.5553231492615394,-0.4112552270320272,-0.10471695772960868,0.2923450590303073,-0.11267022487473835,5.0
0.4721903078253793,-0.5369719406667997,-0.32264849115322447,-0.11945602121949768,0.26258011379788065,-0.09893899880543937,5.0
0.4721903078253793,-0.5317287250997117,-0.2910032308123007,-0.094399615084375,0.21183330690132332,-0.11917448521569299,5.0
0.44081708248224283,-0.5238639476391479,-0.2973322828804854,-0.02512603645647173,0.13083358650843627,-0.08087159329913376,5.0
0.44081708248224283,-0.5238639476391479,-0.2973322828804854,-0.01235218522702172,0.15279133708906825,0.010910808371678283,5.0
0.42338751284716747,-0.46094545261422937,-0.2466998663350073,0.12816017829692833,-0.07068979580021449,0.06077683801630746,5.0
0.3920142875040318,-0.5002695234773203,-0.23404174835020547,0.17434256005400012,-0.22146638311513417,0.04993639823834621,5.0
0.4373311685552278,-0.5212423398556039,-0.253028918403192,0.14093403851482153,-0.22878562140585193,0.05644066298657848,5.0
0.4268734267741825,-0.5474583259109075,-0.3732809146229186,0.16795563593734905,-0.3366225845731829,0.010188112212026127,5.0
0.461732566044334,-0.5867823967739983,-0.2466998663350073,0.3035550032659007,-0.3595562359731425,-0.15025042021846313,5.0
0.4338452546282125,-0.5107559087214283,-0.36062281048654915,-0.3036942758931898,-0.06385849601633431,0.0015157592602922318,5.0
0.5314506005072009,-0.4976479156937766,-0.5441653343123395,-0.4972672326261969,0.1479118448952564,0.17496282600770596,5.0
0.5732815676313812,-0.5291071173161681,-0.1644221894486054,0.009265101699443492,0.05178567519347081,-0.00787929012654867,5.0
0.4826480496064244,-0.5474583259109075,-0.26568702253956156,0.015160726496169553,-0.1243643051547546,-0.015828948020449818,5.0
0.4931055473100347,-0.5317287250997117,-0.41758428256232005,-0.020704318607964123,-0.04092483866496158,-0.024501300283546572,5.0
0.4826480496064244,-0.5317287250997117,-0.42391333463050485,-0.04870853264722822,0.02836407124505832,-0.006433898082699209,5.0
0.46521847997134874,-0.5238639476391479,-0.3732809146229186,-0.02463473488943585,-0.05019589049716081,0.028978210847980506,5.0
0.49659146123705,-0.5343503328832557,-0.3859390187592882,0.027443275409546747,-0.047268193990591095,0.08028963226100427,5.0
0.5070492030180953,-0.5474583259109075,-0.4112552270320272,-0.0005609386297173592,0.06447237840546341,0.06944919248304303,5.0
0.4826480496064244,-0.5369719406667997,-0.4555585967024826,-0.0049826564782249555,0.07959882920221518,0.08823929015490542,5.0
0.44778891033627366,-0.5422151562338874,-0.3732809146229186,-0.01087827827880327,0.0025027165501984036,0.0687264959102086,5.0
0.42338751284716747,-0.5500799336944515,-0.36062281048654915,-0.008421769694586934,-0.026286338277873602,0.08751659358207096,5.0
0.42338751284716747,-0.5500799336944515,-0.3985971228956577,0.012212915595880416,-0.024822487048882166,0.051381791384015066,5.0
0.4443029964092578,-0.573674357856279,-0.42391333463050485,0.029899786989910845,-0.022382737976269693,-0.009324682170398129,5.0
0.4582466521173187,-0.568431188179259,-0.41758428256232005,0.06134311124938915,0.016165319093665337,-0.030282868458944408,5.0
0.4338452546282125,-0.5553231492615394,-0.4049261749638425,0.07166045389462282,6.29659897326541e-05,-0.03606443663434228,5.0
0.4512748242632884,-0.5369719406667997,-0.41758428256232005,0.0682213436744086,-0.009696036252130382,-0.04256870138257453,5.0
0.45476073819030344,-0.5317287250997117,-0.42391333463050485,0.06576483209404453,-0.04434049153260824,-0.022333212768682102,5.0
0.46521847997134874,-0.5369719406667997,-0.41758428256232005,0.06871263999818591,-0.06629824806465334,0.011633504393603014,5.0
0.4721903078253793,-0.5238639476391479,-0.3985971228956577,0.05888660566132056,-0.05263564254547986,0.033314388081348296,5.0
0.46521847997134874,-0.5238639476391479,-0.3859390187592882,0.06183441356546199,-0.05019589049716081,0.03981865282958058,5.0
0.46521847997134874,-0.5238639476391479,-0.39226807082747295,0.054956187132738026,-0.03653329092940045,0.04921370166551176,5.0
0.45476073819030344,-0.5369719406667997,-0.42391333463050485,0.053973582500592386,-0.0492199896778332,0.04198674034444505,5.0
0.461732566044334,-0.5422151562338874,-0.41758428256232005,0.0652735297779717,-0.06483439683566193,0.005129239645370735,5.0
0.4582466521173187,-0.5500799336944515,-0.41758428256232005,0.09475164477315874,-0.030189941555184056,-0.054854534306204655,5.0
0.45476073819030344,-0.571052750072735,-0.3732809146229186,0.1193167485922086,-0.03946099338738328,-0.10399786600072515,5.0
0.4582466521173187,-0.5579447570450832,-0.3669518625547339,0.15174267748383255,-0.049707940087497016,-0.11917448521569299,5.0
0.461732566044334,-0.5500799336944515,-0.32264849115322447,0.1777816822588054,-0.06288259519700667,-0.1314603181393231,5.0
0.46870439389836377,-0.5212423398556039,-0.34163564735777874,0.19448594902069025,-0.07215364702920592,-0.13362840785782643,5.0
0.48613396353343963,-0.4976479156937766,-0.34163564735777874,0.20136416946111865,-0.06922594457122305,-0.1357964975763297,5.0
0.5175069447991404,-0.48716148455960095,-0.34163564735777874,0.1900642341683303,-0.05068384090682462,-0.10616595571922843,5.0
0.5279646865801865,-0.47667509931549296,-0.3669518625547339,0.18269469343494252,-0.020430936337614475,-0.11845178864285856,5.0
0.5384224283612304,-0.46881027596486113,-0.41758428256232005,0.12177325418027721,0.008846067412268064,-0.08303968301763708,5.0
0.5279646865801865,-0.46881027596486113,-0.3796099666911034,0.08885602896487593,0.04837002530153073,-0.05919071374321126,5.0
0.5140210308721256,-0.4557022829372092,-0.4049261749638425,0.036778013422634766,0.06935187952639492,-0.020887819623013226,5.0
0.49659146123705,-0.46881027596486113,-0.3796099666911034,-0.030530358562606504,0.08399038288918946,-0.010047377641413153,5.0
0.47916213567940935,-0.47667509931549296,-0.36062281048654915,-0.08752138865165106,0.08838193062475062,0.024642033614612712,5.0
0.4721903078253793,-0.49502630791023255,-0.3859390187592882,-0.12043861985934781,0.04007487280080583,0.030423601790010555,5.0
0.4721903078253793,-0.5186207320720599,-0.4049261749638425,-0.1504080491551987,0.007870168080793735,0.04198674034444505,5.0
0.46870439389836377,-0.5422151562338874,-0.4049261749638425,-0.12829945691651293,0.034219472348399976,0.024642033614612712,5.0
0.46870439389836377,-0.5579447570450832,-0.41758428256232005,-0.12191252680756628,0.07130367818934359,-0.038232526352845575,5.0
0.4582466521173187,-0.5553231492615394,-0.36062281048654915,-0.10913867857426403,0.06837597870706731,-0.04835026955797237,5.0
0.42338751284716747,-0.5631879726121711,-0.3669518625547339,-0.08752138865165106,0.024460470478500265,-0.09171203307709501,5.0
0.42338751284716747,-0.5500799336944515,-0.33530659528959394,-0.059025873794388006,-0.024334536639218373,-0.10399786600072515,5.0
0.44081708248224283,-0.5369719406667997,-0.32897754322140915,-0.046743324131973886,-0.06190669437767906,-0.0873758624546437,5.0
0.4582466521173187,-0.5317287250997117,-0.36062281048654915,-0.02856515042187064,-0.07898494681308607,-0.11050213515623505,5.0
0.4721903078253793,-0.5238639476391479,-0.39226807082747295,-0.044778116365756494,-0.05361154336480747,-0.1314603181393231,5.0
0.48613396353343963,-0.5081343009378844,-0.36062281048654915,-0.05558676057802605,-0.03604534051973663,-0.11339292144757279,5.0
0.4826480496064244,-0.5133775165049723,-0.3479646994259635,-0.0604997792445326,-0.03653329092940045,-0.07725811043496159,5.0
0.47567622175239405,-0.5212423398556039,-0.3669518625547339,-0.05313025049573583,-0.02140683715694209,-0.051241055849310116,5.0
0.4826480496064244,-0.5317287250997117,-0.33530659528959394,-0.05656936371209781,-0.038485092568055664,-0.03606443663434228,5.0
0.47567622175239405,-0.5317287250997117,-0.36062281048654915,-0.03544337844629808,-0.04287664030361682,-0.02739208437124549,5.0
0.4582466521173187,-0.5238639476391479,-0.32897754322140915,-0.025617338772544546,-0.04531639235193585,-0.028114780944079935,5.0
0.4373311685552278,-0.5133775165049723,-0.32264849115322447,-0.03200426457452878,-0.09508730438057862,0.013078896712907326,5.0
0.44778891033627366,-0.5186207320720599,-0.26568702253956156,-0.03642598242303639,-0.14778591291579107,0.03186899493567943,5.0
0.47916213567940935,-0.5500799336944515,-0.32897754322140915,-0.029547754679497804,-0.15412926229000756,0.04415482785930954,5.0
0.5000773751640653,-0.5658095803957149,-0.3859390187592882,0.013686819547951111,-0.13509920226453215,0.028255514275146068,5.0
0.48613396353343963,-0.5631879726121711,-0.3859390187592882,0.03432150184227068,-0.0945993480195017,0.03981865282958058,5.0
0.46870439389836377,-0.5553231492615394,-0.3859390187592882,0.054956187132738026,-0.0945993480195017,0.04560022100497841,5.0
0.461732566044334,-0.5500799336944515,-0.39226807082747295,0.05544748944881084,-0.10484630067102854,0.027532817702311634,5.0
0.45476073819030344,-0.5527015414779954,-0.3036613349486701,0.06625613441011732,-0.1365630594449367,0.036927866538242836,5.0
0.48613396353343963,-0.5343503328832557,-0.34163564735777874,0.040217129635144504,-0.15510516310933506,0.0860712004364021,5.0
0.5244787726531714,-0.5474583259109075,-0.32897754322140915,0.046112751435722826,-0.14778591291579107,0.11425634914783453,5.0
0.5593379119233222,-0.5631879726121711,-0.4049261749638425,0.054956187132738026,-0.08923189946461296,0.1576181082596795,5.0
0.5628238258503366,-0.573674357856279,-0.4302423866986896,0.08443430212792508,-0.07605724435510326,0.19013944522267381,5.0
0.5628238258503366,-0.5815391812069107,-0.4302423866986896,0.10654290035890637,-0.04336459071328062,0.2291650248975122,5.0
0.5558519979963071,-0.5815391812069107,-0.44290049083505906,0.09082123822916721,-0.003840634311871247,0.3036027278266826,5.0
0.5593379119233222,-0.5894040045575425,-0.49986196464188404,0.10703419668268369,0.0034786173695260177,0.40478019513617197,5.0
0.5802533954854133,-0.6051336053687382,-0.49986196464188404,0.14339054410289015,0.02933997141345012,0.49150371335986204,5.0
0.5941970511934729,-0.6287280295305655,-0.49986196464188404,0.1777816822588054,0.06593622665874826,0.5767818560669936,5.0
0.5802533954854133,-0.6182415983963899,-0.4872038596399875,0.2136467213706437,0.17328524239212192,0.6280932862945725,5.0
0.5558519979963071,-0.6077552131522821,-0.4872038596399875,0.2347727269540703,0.2659957726169403,0.7112033304686456,5.0
0.4721903078253793,-0.6077552131522821,-0.4872038596399875,0.2219988547515861,0.32552566308179376,0.7878090790435429,5.0
0.41990159892015216,-0.6156199906128461,-0.4872038596399875,0.2023467860778553,0.33382081409466535,0.8839277144159675,5.0
0.3955002014310468,-0.620863206179934,-0.4618876496361944,0.17335996740644546,0.2855137651978402,1.016903742784619,5.0
0.3955002014310468,-0.620863206179934,-0.4618876496361944,0.16697304328979437,0.24794161341079268,1.0805010411940492,5.0
0.3571553923113152,-0.6418360225582175,-0.4365714387668743,0.1424079394707445,0.22452000564975616,1.12964437288857,5.0
0.33972582267623935,-0.6444576303417613,-0.44290049083505906,0.0937690401410131,0.18645989750163164,1.157829512785447,5.0
0.33972582267623935,-0.6444576303417613,-0.44290049083505906,0.05741269871310213,0.22256820401110095,1.1318124714216284,5.0
0.2874371137710133,-0.6523224536923931,-0.4618876496361944,0.021547653608968438,0.24550186731388673,1.1000137869586921,5.0
0.24212047679725143,-0.6444576303417613,-0.4555585967024826,-0.0339694724811906,0.24355006567523146,1.0588201263799057,5.0
0.24212047679725143,-0.6444576303417613,-0.4555585967024826,-0.10569956236175429,0.23037539866289558,0.9431887452428384,5.0
0.256064132505312,-0.6995112561259804,-0.4872038596399875,-0.16809492054922917,0.271363209269003,0.835507035221505,5.0
0.256064132505312,-0.6995112561259804,-0.4872038596399875,-0.1803774604741631,0.35968217985543405,0.7415565688985815,5.0
0.2700075441359374,-0.7335920655319158,-0.42391333463050485,-0.1612166881242097,0.421163895764595,0.6317067603441894,5.0
0.29440894162504333,-0.7571865355838109,-0.4618876496361944,-0.16514710665279222,0.44068191215114727,0.5298065876473104,5.0
0.2734934580629524,-0.7676729667179865,-0.4365714387668743,-0.2024860587051443,0.40213384764194604,0.49367181189292036,5.0
0.25955004643232704,-0.7676729667179865,-0.49986196464188404,-0.20592516892535861,0.39188689499041907,0.4575370008803093,5.0
0.2769793719899677,-0.7650513589344426,-0.4935329125736993,-0.15482976400755857,0.42994699123571734,0.4098390447023472,5.0
0.283951199843998,-0.7493217122331791,-0.4935329125736993,-0.1450037176861022,0.4587360237459903,0.36719997334878124,5.0
0.29440894162504333,-0.7283489417449632,-0.44290049083505906,-0.19118611142776504,0.40310973655844745,0.3780404307558531,5.0
0.2630357162819071,-0.6968896483424366,-0.4935329125736993,-0.32236372795018386,0.24111031957832565,0.3888808529047037,5.0
0.256064132505312,-0.6680520545035888,-0.4872038596399875,-0.44027623586929604,0.170845496295216,0.31877932941253995,5.0
0.2769793719899677,-0.6549440614759369,-0.44922954463429793,-0.5213410640906514,0.20890560444334058,0.17062664657069934,5.0
0.3571553923113152,-0.6365928069911297,-0.4112552270320272,-0.6196014314284869,0.2616042010757268,0.05716335955941292,5.0
0.47567622175239405,-0.6523224536923931,-0.3732809146229186,-0.7104923299404807,0.2996643211266775,-0.08231698644480263,5.0
0.5488801701422777,-0.704754471693068,-0.4302423866986896,-0.7606051302261352,0.3757845374229266,-0.165427039433431,5.0
0.5488801701422777,-0.7807809138555707,-0.4365714387668743,-0.7773093969880199,0.4323867373326232,-0.23625125068387406,5.0
0.4338452546282125,-0.8384561933134013,-0.3732809146229186,-0.6697142317141414,0.3094233293199537,-0.2355285629255949,5.0
0.30138076947907333,-0.867293787152249,-0.3163194390850397,-0.5341149123239538,0.13912873752130792,-0.24347821641221834,5.0
0.20028950967307016,-0.864672179368705,-0.2783451266759311,-0.37198523191206095,-0.05019589049716081,-0.11628370773891052,5.0
0.21771907930814577,-0.8935098649876878,-0.2846741787441158,-0.22312074399561171,-0.08532829618730248,-0.11194752830190392,5.0
0.2316627350162061,-0.890888257204144,-0.36062281048654915,-0.04133900240035758,-0.07800904599375848,-0.13435110443066084,5.0
0.2665216302089224,-0.8777802182864245,-0.35429375149414827,0.060851808933316334,-0.09313550274192339,-0.1610908599964244,5.0
0.30486668340608863,-0.8489426244475767,-0.3859390187592882,0.12422977175293681,-0.10923784840658969,-0.1806036586483989,5.0
0.325782166968179,-0.8305913699627696,-0.3859390187592882,0.1394601255743077,-0.12729200761273743,-0.1769901669696714,5.0
0.3850424596500015,-0.7676729667179865,-0.4872038596399875,0.12570367270885976,-0.03214173724242617,-0.15458659965546973,5.0
0.39898611535806155,-0.7440784966660914,-0.5568234384487091,0.08836472065650762,0.07374343023766264,-0.14230076673183964,5.0
0.4059579432120921,-0.7493217122331791,-0.5631524905168938,0.04070843195121733,0.18450809586297637,-0.11194752830190392,5.0
0.40944385713910686,-0.7624297511508988,-0.4618876496361944,0.00877379938337068,0.2630680582561314,-0.13218301471215754,5.0
0.3850424596500015,-0.7676729667179865,-0.44922954463429793,-0.05755196834424344,0.3235738614431385,-0.17048590662871677,5.0
0.3327539948222096,-0.7545649278002668,-0.41758428256232005,-0.10815607394211837,0.29380891621071187,-0.15314120650980087,5.0
0.3327539948222096,-0.7493217122331791,-0.34163564735777874,-0.1165082073230608,0.24696570068863885,-0.15097310797674232,5.0
0.31532442518713366,-0.7388352810990035,-0.2910032308123007,-0.1803774604741631,0.3191823137075774,-0.1560319928011386,5.0
0.3501835644572855,-0.7467001044496352,-0.23404174835020547,-0.1052082600456815,0.3601701243136848,-0.2355285629255949,5.0
0.33972582267623935,-0.7414568888825476,-0.1897383977213444,-0.10913867857426403,0.2967366067658685,-0.1618135653838141,5.0
0.37109904801937554,-0.704754471693068,-0.20872554007746644,-0.10619086467782712,0.3479713700235026,-0.1625362531420933,5.0
0.4164156849931374,-0.6864033089883961,-0.2846741787441158,-0.20543386061699023,0.46117581745420094,-0.17193129977438565,5.0
0.4059579432120921,-0.7073760794766121,-0.3036613349486701,-0.27225092766452946,0.49728408825519155,-0.2138476833696723,5.0
0.3501835644572855,-0.7362136733154596,-0.24037081426682252,-0.3267854667717257,0.4255554435001562,-0.20806611078699686,5.0
0.30835259733310394,-0.7414568888825476,-0.20872554007746644,-0.3557722854431353,0.35236291775906387,-0.2217973368562958,5.0
0.290923027698028,-0.7362136733154596,-0.1517640853122358,-0.36903743000021505,0.28453787628133886,-0.27166335630909555,5.0
0.325782166968179,-0.7519433200167231,-0.1517640853122358,-0.36756351705970103,0.28063427300402843,-0.2745541426004331,5.0
0.36761313409236057,-0.7676729667179865,-0.14543501939561884,-0.3208898389788519,0.3333328696364147,-0.27383145484215393,5.0
0.3920142875040318,-0.7650513589344426,-0.14543501939561884,-0.22508594127531203,0.4011579349197921,-0.30996624822565455,5.0
0.3571553923113152,-0.7676729667179865,-0.1517640853122358,-0.2024860587051443,0.4431216582480534,-0.3395967988973112,5.0
0.325782166968179,-0.7388352810990035,-0.08847356463038823,-0.19315132069205634,0.3938386728234219,-0.315025133050051,5.0
0.30138076947907333,-0.7204841183943316,0.025449400293801987,-0.22262943568724342,0.2733150109076582,-0.27672224113349175,5.0
0.30835259733310394,-0.7021328639095242,0.01912033437718506,-0.23245547002410874,0.18938759995961446,-0.27021796316342667,5.0
0.3501835644572855,-0.6916464327753487,-0.056828290441032166,-0.25112494605028474,0.1015565857342603,-0.24636900270355616,5.0
0.39898611535806155,-0.6995112561259804,-0.06315732866078456,-0.2643901145765464,0.14352028525686905,-0.21818384517756836,5.0
0.41292977106612244,-0.6916464327753487,-0.09480260285014075,-0.2643901145765464,0.22452000564975616,-0.2030072259626005,5.0
0.3815565457229865,-0.6785384856377644,-0.1137897729031273,-0.2737248406050435,0.2620921693396299,-0.21890655056495809,5.0
0.37458496194639085,-0.6759168778542206,-0.08847356463038823,-0.29435952589551073,0.27429092362981194,-0.21240229022400348,5.0
0.3362399087492246,-0.6706736622871329,-0.03151208216829309,-0.3572461744144673,0.23867054967576723,-0.18204905179406772,5.0
0.32926808089519427,-0.6732952700706765,0.01912033437718506,-0.3651070114716324,0.2108574060819957,-0.14230076673183964,5.0
0.31532442518713366,-0.6916464327753487,0.03177846621041891,-0.34398102985738777,0.09423733554071631,-0.14157806134444992,5.0
0.3571553923113152,-0.6968896483424366,0.038107476733306896,-0.29485082221928804,-0.019455038493993413,-0.13435110443066084,5.0
0.3850424596500015,-0.704754471693068,-0.01252491211530628,-0.2550553645788673,0.009334017821931866,-0.09315742622276388,5.0
0.4164156849931374,-0.7152409028272436,-0.056828290441032166,-0.22803375517174884,0.09911683368594126,-0.08665316588180924,5.0
0.3920142875040318,-0.704754471693068,-0.05049922452441518,-0.21034688377771837,0.1542551942694728,-0.11556101116607609,5.0
0.37458496194639085,-0.6890248249918047,-0.03151208216829309,-0.1946252216479793,0.13571309060507436,-0.1394099804405019,5.0
0.3571553923113152,-0.6811600934213082,-0.05049922452441518,-0.1528645547432673,0.11375533407302925,-0.17048590662871677,5.0
0.3641272201653458,-0.6916464327753487,0.00013319202106284688,-0.15384715937541293,0.1098517367471319,-0.18566252584368462,5.0
0.3955002014310468,-0.6995112561259804,0.00013319202106284688,-0.11798211427127925,0.09862888327627746,-0.1834944449397366,5.0
0.3815565457229865,-0.6864033089883961,0.00013319202106284688,-0.10127784750939445,0.11912278857933113,-0.1560319928011386,5.0
0.36761313409236057,-0.6680520545035888,-0.01252491211530628,-0.10569956236175429,0.11424328448269307,-0.16614972719171014,5.0
0.36761313409236057,-0.6785384856377644,0.03177846621041891,-0.09243441181237924,0.09423733554071631,-0.14446884763578766,5.0
0.3850424596500015,-0.6759168778542206,-0.03151208216829309,-0.08899529559986952,0.09423733554071631,-0.11483831459324166,5.0
0.3815565457229865,-0.6811600934213082,-0.07581546049401873,-0.094399615084375,0.1161950861213483,-0.15025042021846313,5.0
0.3780706317959706,-0.6732952700706765,-0.06315732866078456,-0.08260836848707064,0.12595408836321131,-0.13073762156648866,5.0
0.36761313409236057,-0.6864033089883961,-0.05049922452441518,-0.039865096201176065,0.10594813346982145,-0.1177290920700241,5.0
0.37109904801937554,-0.6995112561259804,-0.02518301625167604,-0.014808695309311943,0.09082168267306966,-0.12423336122553404,5.0
0.3606413062383305,-0.6837817012048522,-0.01252491211530628,-0.003017447213933696,0.08301448206986185,-0.11339292144757279,5.0
0.3606413062383305,-0.6890248249918047,-0.03151208216829309,0.028425880041692393,0.0600808276941957,-0.06714036722983477,5.0
0.36761313409236057,-0.6916464327753487,-0.01252491211530628,0.06379962282975324,0.0254363707398829,-0.06352688877294024,5.0
0.3815565457229865,-0.6811600934213082,0.006462257937680214,0.08394300580414776,0.05471337616360038,-0.012215467359916458,5.0
0.3885283735770159,-0.6706736622871329,-0.01252491211530628,0.09524295308152707,0.050809775861996476,-0.014383554874780944,5.0
0.3850424596500015,-0.6732952700706765,0.006462257937680214,0.12275585881242286,0.04495437392173734,0.002238455282216962,5.0
0.36761313409236057,-0.662808838936501,0.03177846621041891,0.1311079921933653,0.012749669201725244,0.021028554055898766,5.0
0.37109904801937554,-0.6549440614759369,0.006462257937680214,0.14289924777911284,-0.0184791376746658,0.04198674034444505,5.0
0.37458496194639085,-0.6497008459088492,0.00013319202106284688,0.15076007285168688,-0.04678024358092728,0.05788605613224736,5.0
0.3815565457229865,-0.6549440614759369,-0.03151208216829309,0.15174267748383255,-0.0487320392681694,0.0708945856287119,5.0
0.39898611535806155,-0.6497008459088492,0.00013319202106284688,0.1556730960124152,-0.023846586229554566,0.051381791384015066,5.0
0.4164156849931374,-0.6418360225582175,-0.09480260285014075,0.14633835799932712,0.020556869804933046,0.04632291537417404,5.0
0.41990159892015216,-0.6497008459088492,-0.044170186304662594,0.12717758564937368,0.08106268043120662,-0.02739208437124549,5.0
0.42338751284716747,-0.6182415983963899,-0.07581546049401873,0.07706477337912832,0.10399633183116622,-0.03534174006150782,5.0
0.39898611535806155,-0.5972687820181065,-0.1264478770394968,0.028425880041692393,0.1015565857342603,-0.08303968301763708,5.0
0.42338751284716747,-0.5998903898016505,-0.10113166876675773,-0.011860882910948908,0.12156253467623705,-0.11989718178852744,5.0
0.42338751284716747,-0.5998903898016505,-0.10113166876675773,-0.0604997792445326,0.1401046383406355,-0.15314120650980087,5.0
0.45476073819030344,-0.5920255664510186,-0.06315732866078456,-0.10569956236175429,0.1776768020305093,-0.13290571128499198,5.0
0.44081708248224283,-0.5998903898016505,-0.07581546049401873,-0.11454299805876952,0.1093637863374681,-0.11339292144757279,5.0
0.42338751284716747,-0.6156199906128461,-0.1391059811758663,-0.15237324643489897,0.030315871674832757,-0.04835026955797237,5.0
0.4582466521173187,-0.6313496373141095,-0.1327769152592492,-0.20199475039677597,0.024948420702182415,0.023919338143597688,5.0
0.461732566044334,-0.6444576303417613,-0.1391059811758663,-0.20199475039677597,0.05764107564587667,0.055717966413744054,5.0
0.41990159892015216,-0.6811600934213082,-0.06948639457740168,-0.18234266973845434,-0.02091888674727827,0.09835703336003224,5.0
0.3815565457229865,-0.6916464327753487,-0.07581546049401873,-0.1317385671367271,-0.11509325332255538,0.04921370166551176,5.0
0.3641272201653458,-0.6995112561259804,-0.08847356463038823,-0.07474753742220104,-0.16340031412220665,0.0015157592602922318,5.0
0.36761313409236057,-0.704754471693068,-0.1264478770394968,-0.021686923240109755,-0.23708077241872355,-0.02522399685638102,5.0
0.3885283735770159,-0.6995112561259804,-0.15809312353198834,0.03776061805478041,-0.1960929618126162,-0.023778603710712144,5.0
0.39898611535806155,-0.6680520545035888,-0.22138364421383594,0.05593879176488366,-0.1590087663866456,0.01886046543921487,5.0
0.3885283735770159,-0.6549440614759369,-0.2150546059940835,0.04218233290714028,-0.1560810639286627,0.026087426760281585,5.0
0.3815565457229865,-0.6523224536923931,-0.23404174835020547,0.014178121864023917,-0.13070765452897098,0.02030585748306433,5.0
0.3920142875040318,-0.6680520545035888,-0.22138364421383594,0.02695197309347394,-0.10191859821304569,0.033314388081348296,5.0
0.4024720292850768,-0.6654304467200449,-0.2150546059940835,0.054956187132738026,-0.05897899191969623,0.016692376822530976,5.0
0.41292977106612244,-0.6706736622871329,-0.20239650185771393,0.0628170181976076,-0.03214173724242617,-0.00787929012654867,5.0
0.4164156849931374,-0.6549440614759369,-0.10113166876675773,0.06134311124938915,-0.03214173724242617,-0.015828948020449818,5.0
0.4164156849931374,-0.6497008459088492,-0.1391059811758663,0.04070843195121733,-0.016527336036010577,7.036666553306758e-05,5.0
0.4164156849931374,-0.6365928069911297,-0.1391059811758663,0.048077960700014084,-0.03506943970040903,-0.016551642389645432,5.0
0.42338751284716747,-0.6392144147746737,-0.1137897729031273,0.052499675552373934,-0.01799118726500199,-0.04835026955797237,5.0
0.4059579432120921,-0.6261064217470217,-0.1517640853122358,0.07509956411483704,-0.06385849601633431,-0.028114780944079935,5.0
0.4024720292850768,-0.6182415983963899,-0.1327769152592492,0.08050389558393353,-0.07947290317416301,0.024642033614612712,5.0
0.4164156849931374,-0.6129983828293023,-0.1644221894486054,0.09671685403745,-0.08484035172905179,0.05788605613224736,5.0
0.42338751284716747,-0.6156199906128461,-0.1517640853122358,0.10801680131482931,-0.08923189946461296,0.09257546959191203,5.0
0.4164156849931374,-0.6156199906128461,-0.1644221894486054,0.1473209626314728,-0.06776209334223164,0.11353365257500007,5.0
0.42338751284716747,-0.6234848139634779,-0.1327769152592492,0.1777816822588054,-0.05849104151003242,0.12220600263445804,5.0
0.4338452546282125,-0.6156199906128461,-0.14543501939561884,0.20922500651828374,-0.041412789074625395,0.13449183555808814,5.0
0.4268734267741825,-0.6129983828293023,-0.14543501939561884,0.25737259753964686,-0.0340935388810814,0.1532819376372282,5.0
0.41292977106612244,-0.5920255664510186,-0.15809312353198834,0.2765333938587823,-0.026286338277873602,0.18363516725260862,5.0
0.42338751284716747,-0.5972687820181065,-0.10113166876675773,0.2863594162110567,-0.03897304297771949,0.19592100017623873,5.0
0.42338751284716747,-0.5972687820181065,-0.10113166876675773,0.3128897292943977,-0.03750919174872806,0.19519831241795957,5.0
0.4512748242632884,-0.6234848139634779,-0.1391059811758663,0.29716807914924953,0.05861697646520428,0.1597862067927381,5.0
0.4268734267741825,-0.6365928069911297,-0.12011881112287975,0.28390291062298806,0.04593027474106496,0.09113007644624316,5.0
0.42338751284716747,-0.6182415983963899,-0.1264478770394968,0.30011588106109555,-0.03458148929074521,0.06439032088047962,5.0
0.42338751284716747,-0.6182415983963899,-0.1264478770394968,0.2465639585706358,-0.07752110153550779,0.036927866538242836,5.0
0.42338751284716747,-0.5815391812069107,-0.18340933180472735,0.2141380416636029,-0.07215364702920592,0.04487752443214397,5.0
0.44081708248224283,-0.5920255664510186,-0.1960674359410969,0.1959598619612042,-0.06239464478734288,0.07306267093993755,5.0
0.44081708248224283,-0.5920255664510186,-0.1960674359410969,0.18515122299219317,-0.05263564254547986,0.04776830851984289,5.0
0.46521847997134874,-0.6129983828293023,-0.1897383977213444,0.19645115828498153,-0.07117774620987828,0.03475977902337834,5.0
0.4512748242632884,-0.6182415983963899,-0.14543501939561884,0.15812960160048364,-0.07703314517443087,-0.028837475313275556,5.0
0.44778891033627366,-0.620863206179934,-0.1644221894486054,0.11292982447555752,-0.11899685659986586,-0.057745320597542386,5.0
0.43035934070119775,-0.6575656233694133,-0.10113166876675773,0.0515170709202283,-0.24342412179294007,-0.12278796807986517,5.0
0.4059579432120921,-0.6575656233694133,-0.10746070698651025,0.03874322268692605,-0.31417687763147406,-0.0974936056597705,5.0
0.3815565457229865,-0.6732952700706765,-0.09480260285014075,0.033830199526197875,-0.39615252264934125,-0.03606443663434228,5.0
0.33972582267623935,-0.704754471693068,-0.1327769152592492,0.010739008647661944,-0.435676476075044,0.015246984778681517,5.0
0.32926808089519427,-0.7231057261778755,-0.1391059811758663,0.05888660566132056,-0.4747124612368437,0.09185277301907761,5.0
0.31183851126011897,-0.7335920655319158,-0.15809312353198834,0.12422977175293681,-0.46690525468222277,0.1554500273557315,5.0
0.30835259733310394,-0.7414568888825476,-0.1770802935849749,0.1807295081398334,-0.4303090156173288,0.17351743286203708,5.0
0.31881033911414897,-0.7309705495285073,-0.18340933180472735,0.2583552141563835,-0.3712670458050739,0.23856007152980457,5.0
0.30835259733310394,-0.7204841183943316,-0.34163564735777874,0.25737259753964686,-0.3200322825474397,0.3354013594022873,5.0
0.283951199843998,-0.6837817012048522,-0.3859390187592882,0.19153814710884426,-0.22293021648988628,0.4156206172850226,5.0
0.2630357162819071,-0.6759168778542206,-0.3479646994259635,0.11686024300414004,-0.20731582718629693,0.35780492671648895,5.0
0.24212047679725143,-0.6732952700706765,-0.2846741787441158,0.041691036583362956,-0.21951458147647895,0.27180409625107804,5.0
0.24212047679725143,-0.7283489417449632,-0.22138364421383594,0.0033694798988651827,-0.2219543275733849,0.11570174229350341,5.0
0.290923027698028,-0.7938889527732902,-0.1644221894486054,0.014669424180096747,-0.22146638311513417,-0.01799703553531431,5.0
0.3536694783843005,-0.7938889527732902,-0.32264849115322447,0.023512862873259707,-0.12729200761273743,-0.14157806134444992,5.0
0.3850424596500015,-0.7938889527732902,-0.3796099666911034,0.052008373236301114,-0.049707940087497016,-0.25287326304451063,5.0
0.3955002014310468,-0.7781593060720269,-0.3036613349486701,0.14977746821954127,-0.03165378683276237,-0.3670592510359093,5.0
0.4164156849931374,-0.7912673449897463,-0.253028918403192,0.2519682900397324,-0.03311763806175379,-0.41258910868081283,5.0
0.43035934070119775,-0.775537698288483,-0.1897383977213444,0.32271577561585413,-0.05897899191969623,-0.3836812457674353,5.0
0.4373311685552278,-0.7362136733154596,-0.1897383977213444,0.3978849760443357,-0.03458148929074521,-0.29623503978546634,5.0
0.36761313409236057,-0.6759168778542206,-0.22138364421383594,0.4180283410418436,0.007870168080793735,-0.20806611078699686,5.0
0.34321173660325516,-0.6654304467200449,-0.2150546059940835,0.3462982628181673,0.0029906669598622187,-0.10688865229206287,5.0
0.283951199843998,-0.6234848139634779,-0.20239650185771393,0.30895931076581523,-0.11021374922591731,-0.15097310797674232,5.0
0.2874371137710133,-0.6129983828293023,-0.253028918403192,0.2401770344539847,-0.15705696474799033,-0.19288949157202898,5.0
0.3362399087492246,-0.6129983828293023,-0.26568702253956156,0.15812960160048364,-0.12826790843206504,-0.24636900270355616,5.0
0.47916213567940935,-0.6313496373141095,-0.24037081426682252,0.08099519190771085,0.07423138064732644,-0.30996624822565455,5.0
0.5244787726531714,-0.6392144147746737,-0.20872554007746644,0.046112751435722826,0.21622485463688457,-0.3670592510359093,5.0
0.5384224283612304,-0.6444576303417613,-0.18340933180472735,0.025969368461328305,0.3504111161204086,-0.3865720320587731,5.0
0.5279646865801865,-0.6392144147746737,-0.01885397803192371,-0.009895675144731516,0.4016458793780428,-0.41186642092253367,5.0
0.5175069447991404,-0.6261064217470217,0.006462257937680214,-0.00940437282865869,0.3748086247007727,-0.3793450839595394,5.0
0.4826480496064244,-0.6129983828293023,0.03177846621041891,-0.04526941793279237,0.3357726157333206,-0.27383145484215393,5.0
0.4443029964092578,-0.5920255664510186,0.025449400293801987,-0.14107331114211066,0.2308633669267988,-0.08809855902747812,5.0
0.43035934070119775,-0.6025119975851941,0.012791268460568137,-0.18234266973845434,0.13620103506332504,0.06800379933737416,5.0
0.4512748242632884,-0.6418360225582175,0.038107476733306896,-0.14598632231824785,0.11863483816966733,0.16195428769668613,5.0
0.44081708248224283,-0.6654304467200449,0.006462257937680214,-0.099803940561176,0.15230339263081757,0.22121537141088868,5.0
0.3501835644572855,-0.662808838936501,-0.01252491211530628,-0.07671274668649232,0.15718289672745564,0.25445939613216206,5.0
0.30138076947907333,-0.6497008459088492,0.00013319202106284688,-0.06541279940911303,0.1020445361439241,0.24434164411248008,5.0
0.256064132505312,-0.6444576303417613,-0.03784112038804561,-0.08260836848707064,0.024948420702182415,0.1915848383683427,5.0
0.2769793719899677,-0.6575656233694133,-0.07581546049401873,-0.07376493279005542,-0.0716656966195421,0.1178698320120067,5.0
0.33972582267623935,-0.6680520545035888,-0.09480260285014075,-0.04625202256493801,-0.09850295129681216,0.015246984778681517,5.0
0.33972582267623935,-0.6680520545035888,-0.09480260285014075,-0.07376493279005542,-0.031165836423098572,-0.04040061607134888,5.0
0.4059579432120921,-0.6365928069911297,-0.08847356463038823,-0.04576072024886519,0.010309918641259484,-0.0873758624546437,5.0
0.4059579432120921,-0.6497008459088492,0.025449400293801987,-0.02709124497172606,-0.02872609032619265,-0.10761134886489733,5.0
0.4059579432120921,-0.6497008459088492,0.025449400293801987,-0.0732736304739826,-0.1560810639286627,-0.08665316588180924,5.0
0.5558519979963071,-0.6811600934213082,-0.02518301625167604,-0.0005609386297173592,-0.2526951855279654,-0.06280419220010579,5.0
0.6569432578023096,-0.6601872311529571,-0.20872554007746644,0.04070843195121733,-0.20097247781208058,-0.03389635132311659,5.0
0.6569432578023096,-0.6601872311529571,-0.20872554007746644,-0.0005609386297173592,0.052273625603134616,0.07233997436710313,5.0
0.6569432578023096,-0.6601872311529571,-0.20872554007746644,-0.0005609386297173592,0.052273625603134616,0.07233997436710313,5.0
0.5453942562152627,-0.5867823967739983,-0.1897383977213444,-0.11306909111055108,0.4787420083964456,0.3549141404251511,5.0
0.3536694783843005,-0.5998903898016505,-0.06315732866078456,-0.18283397804682264,0.3084474165977998,0.5644960231433636,5.0
0.25955004643232704,-0.6182415983963899,-0.02518301625167604,-0.23687718487646856,0.05861697646520428,0.6208663381953388,5.0
0.2769793719899677,-0.6680520545035888,-0.06315732866078456,-0.23540328392054558,0.00396656629133655,0.5811180178748895,5.0
0.30486668340608863,-0.7073760794766121,-0.2150546059940835,-0.25702057384315863,0.1322974436888408,0.47054552156221835,5.0
0.30486668340608863,-0.7362136733154596,-0.20872554007746644,-0.2501423534027302,0.18938759995961446,0.3744269567062361,5.0
0.29440894162504333,-0.7362136733154596,-0.20872554007746644,-0.2044512679694356,0.09277348431172489,0.24795511816209695,5.0
0.30486668340608863,-0.7126192950436998,-0.2910032308123007,-0.20985558745394106,0.04690617407253929,0.18869405207700493,5.0
0.31532442518713366,-0.7152409028272436,-0.2973322828804854,-0.17104272246107505,0.0678880282974035,0.20097988500063507,5.0
0.32926808089519427,-0.7231057261778755,-0.2846741787441158,-0.17693835025394886,0.08984578185374205,0.2154337988282132,5.0
0.325782166968179,-0.7362136733154596,-0.23404174835020547,-0.14254721209803362,0.11082763756645952,0.23422389209279798,5.0
0.32926808089519427,-0.7388352810990035,-0.1960674359410969,-0.08113446453499994,0.08399038288918946,0.22121537141088868,5.0
0.33972582267623935,-0.7126192950436998,-0.23404174835020547,-0.06197368619275104,0.056177227392591796,0.18363516725260862,5.0
0.3327539948222096,-0.704754471693068,-0.2466998663350073,-0.06197368619275104,0.008846067412268064,0.1662904671336927,5.0
0.3362399087492246,-0.6890248249918047,-0.2846741787441158,-0.08703008633557822,-0.04434049153260824,0.16267699308407585,5.0
0.3606413062383305,-0.6864033089883961,-0.2783451266759311,-0.11356039342662388,-0.03799714215839186,0.17929900544471256,5.0
0.3606413062383305,-0.6890248249918047,-0.3859390187592882,-0.12486034070400319,-0.01164783491507906,0.18363516725260862,5.0
0.3641272201653458,-0.7126192950436998,-0.2910032308123007,-0.12829945691651293,0.005430417520327968,0.1691812534250305,5.0
0.33972582267623935,-0.7283489417449632,-0.2846741787441158,-0.1332124740849456,0.009821968231595684,0.1518365444915593,5.0
0.325782166968179,-0.7362136733154596,-0.2466998663350073,-0.0914518071802336,0.016165319093665337,0.0528271801224063,5.0
0.325782166968179,-0.7362136733154596,-0.2466998663350073,-0.05755196834424344,-0.03458148929074521,-0.051241055849310116,5.0
0.3850424596500015,-0.7440784966660914,-0.2466998663350073,-0.02856515042187064,-0.03067788601343475,-0.11122483172906948,5.0
0.4059579432120921,-0.7231057261778755,-0.24037081426682252,-0.02709124497172606,0.06203262635714437,-0.1647043340460413,5.0
0.4059579432120921,-0.7231057261778755,-0.24037081426682252,-0.033478170492821445,0.06056877810385951,-0.14013266819878104,5.0
0.3815565457229865,-0.7021328639095242,-0.3036613349486701,-0.0501824380973728,0.03568332283346476,-0.10616595571922843,5.0
0.37458496194639085,-0.7073760794766121,-0.3163194390850397,-0.06246498850882387,0.021044820214596853,-0.03317365475028216,5.0
0.37458496194639085,-0.7073760794766121,-0.3163194390850397,-0.056078061396024975,0.022996620365398804,0.0007930632383675027,5.0
0.3641272201653458,-0.7204841183943316,-0.26568702253956156,-0.03102166050416085,0.019093019319868263,0.015969680800606248,5.0
0.36761313409236057,-0.7204841183943316,-0.26568702253956156,-0.014808695309311943,0.018117119244467288,0.012356200415527744,5.0
0.36761313409236057,-0.7204841183943316,-0.26568702253956156,-0.014808695309311943,0.018117119244467288,0.012356200415527744,5.0
0.3327539948222096,-0.7388352810990035,-0.27201607460774635,0.011721613279807586,-0.04580434276159965,0.03403708245054392,5.0
0.34321173660325516,-0.7414568888825476,-0.3099903870168549,0.03137369393812929,-0.05263564254547986,0.02536473018744715,5.0
0.3501835644572855,-0.7362136733154596,-0.2846741787441158,0.025478066145255475,-0.038485092568055664,0.0015157592602922318,5.0
0.3641272201653458,-0.7414568888825476,-0.32897754322140915,0.01663463044824026,-0.017015286445674377,0.013078896712907326,5.0
0.3780706317959706,-0.7493217122331791,-0.34163564735777874,0.033338897210125056,0.00396656629133655,-0.012215467359916458,5.0
0.37458496194639085,-0.7467001044496352,-0.2973322828804854,0.04267363522321309,0.02933997141345012,-0.024501300283546572,5.0
0.3815565457229865,-0.7467001044496352,-0.2973322828804854,0.05544748944881084,0.04056282321046964,-0.0649722819186091,5.0
0.3606413062383305,-0.7283489417449632,-0.253028918403192,0.047095356067868445,0.04105077362013344,-0.08087159329913376,5.0
0.3362399087492246,-0.7126192950436998,-0.25935797047137676,0.03628671110656196,0.03129177175023373,-0.07798080700779604,5.0
0.3466976505302699,-0.7178625106107877,-0.20872554007746644,0.03088239162205648,0.01567736868400153,-0.09098933650426058,5.0
0.36761313409236057,-0.704754471693068,-0.22138364421383594,0.036778013422634766,-0.006280383384483727,-0.025946693429215448,5.0
0.3885283735770159,-0.6995112561259804,-0.2846741787441158,0.02695197309347394,-0.0004249844199311641,0.005129239645370735,5.0
0.3885283735770159,-0.6916464327753487,-0.26568702253956156,0.007791197747372796,0.019093019319868263,0.02970090742081494,5.0
0.37458496194639085,-0.6916464327753487,-0.22138364421383594,-0.005473955798150033,0.0020147676283878715,0.059331444870638586,5.0
0.37458496194639085,-0.6968896483424366,-0.25935797047137676,-0.00940437282865869,-0.02140683715694209,0.06583570961887085,5.0
0.3815565457229865,-0.6942680405588925,-0.253028918403192,-0.013826090677166301,-0.01506348480701916,0.05716335955941292,5.0
0.36761313409236057,-0.7126192950436998,-0.2846741787441158,-0.007930467378514121,-0.020430936337614475,0.0636676243076452,5.0
0.37458496194639085,-0.7073760794766121,-0.27201607460774635,0.009265101699443492,-0.008720135432802763,0.03475977902337834,5.0
0.37109904801937554,-0.6864033089883961,-0.253028918403192,0.004843383850935895,0.013237618123535773,0.006574631689220197,5.0
0.3885283735770159,-0.6968896483424366,-0.24037081426682252,0.010247706331589133,0.021044820214596853,-0.017274338962479856,5.0
0.3815565457229865,-0.704754471693068,-0.26568702253956156,0.011230310963734768,0.030803821712533246,-0.04835026955797237,5.0
0.3780706317959706,-0.6890248249918047,-0.26568702253956156,0.014178121864023917,0.03763512298426671,-0.08159428987196822,5.0
0.3850424596500015,-0.6968896483424366,-0.2783451266759311,0.0033694798988651827,0.05373747534427276,-0.06280419220010579,5.0
0.3815565457229865,-0.6890248249918047,-0.253028918403192,-0.005473955798150033,0.04202667295160778,-0.050518359276475674,5.0
0.3850424596500015,-0.6811600934213082,-0.20239650185771393,-0.02365213100632715,0.05520132657326418,-0.04184600480974011,5.0
0.3920142875040318,-0.6811600934213082,-0.22771271013045302,-0.0315129624457152,0.05373747534427276,-0.04473679110107783,5.0
0.3850424596500015,-0.6916464327753487,-0.26568702253956156,-0.046743324131973886,0.05666517482654905,-0.03317365475028216,5.0
0.39898611535806155,-0.6916464327753487,-0.253028918403192,-0.06197368619275104,0.07862292838288759,-0.03678713320717669,5.0
0.3815565457229865,-0.6864033089883961,-0.20872554007746644,-0.09096050486416078,0.0864301289860954,-0.03317365475028216,5.0
0.3815565457229865,-0.6864033089883961,-0.20872554007746644,-0.09587352203259346,0.07325547982799882,-0.012215467359916458,5.0
0.37458496194639085,-0.6916464327753487,-0.20872554007746644,-0.09292570813615655,0.05910492687486808,-0.04184600480974011,5.0
0.3780706317959706,-0.6837817012048522,-0.2783451266759311,-0.11847341658735207,0.09130963308273347,-0.038232526352845575,5.0
0.3815565457229865,-0.6968896483424366,-0.24037081426682252,-0.13026466018850869,0.08106268043120662,-0.03606443663434228,5.0
0.3850424596500015,-0.704754471693068,-0.1770802935849749,-0.11503430037484234,0.09814093286661364,-0.06641767065700034,5.0
0.3920142875040318,-0.6942680405588925,-0.1770802935849749,-0.11798211427127925,0.11033968715679572,-0.051241055849310116,5.0
0.3885283735770159,-0.6942680405588925,-0.1960674359410969,-0.12977335787243588,0.10009273450526888,-0.044014094528243404,5.0
0.37458496194639085,-0.6968896483424366,-0.22138364421383594,-0.1307559625045815,0.06642417706841208,-0.04762757298513795,5.0
0.36761313409236057,-0.6995112561259804,-0.253028918403192,-0.13419507871709122,0.06349647758613579,-0.038232526352845575,5.0
0.37109904801937554,-0.6942680405588925,-0.22138364421383594,-0.11503430037484234,0.07081572777967979,-0.03606443663434228,5.0
0.3850424596500015,-0.6890248249918047,-0.1960674359410969,-0.12977335787243588,0.05276157452494515,-0.004988506038849748,5.0
0.3850424596500015,-0.6916464327753487,-0.18340933180472735,-0.12191252680756628,0.045442324331401156,-0.028114780944079935,5.0
0.39898611535806155,-0.6916464327753487,-0.22771271013045302,-0.11208648647840544,0.06349647758613579,-0.03678713320717669,5.0
0.3955002014310468,-0.6864033089883961,-0.24037081426682252,-0.11257778879447826,0.07325547982799882,-0.030282868458944408,5.0
0.3885283735770159,-0.6864033089883961,-0.22138364421383594,-0.11208648647840544,0.06203262635714437,-0.04618218424674671,5.0
0.3780706317959706,-0.6942680405588925,-0.2150546059940835,-0.10815607394211837,0.03568332283346476,-0.03678713320717669,5.0
0.3815565457229865,-0.6916464327753487,-0.1960674359410969,-0.10226044614924458,0.04690617407253929,-0.03172826160461328,5.0
0.3850424596500015,-0.6864033089883961,-0.1897383977213444,-0.09587352203259346,0.04837002530153073,-0.03606443663434228,5.0
0.3955002014310468,-0.6785384856377644,-0.253028918403192,-0.08801269096772385,0.05812902605554047,-0.04907296613080682,5.0
0.3920142875040318,-0.6890248249918047,-0.20872554007746644,-0.09882133592903036,0.05471337616360038,-0.028837475313275556,5.0
0.39898611535806155,-0.6864033089883961,-0.1897383977213444,-0.09734742898081192,0.03763512298426671,-0.01799703553531431,5.0
0.3850424596500015,-0.6916464327753487,-0.20239650185771393,-0.10176914982546727,0.030315871674832757,-0.017274338962479856,5.0
0.37458496194639085,-0.6864033089883961,-0.24037081426682252,-0.0855561793873598,0.030803821712533246,-0.017274338962479856,5.0
0.3920142875040318,-0.6811600934213082,-0.1897383977213444,-0.08064316221892712,0.05178567519347081,-0.01366085830194651,5.0
0.3920142875040318,-0.6837817012048522,-0.22138364421383594,-0.06295629082489669,0.03763512298426671,0.0036838473260664244,5.0
0.39898611535806155,-0.6811600934213082,-0.2466998663350073,-0.044286814049683675,0.03568332283346476,0.0007930632383675027,5.0
0.3815565457229865,-0.6890248249918047,-0.26568702253956156,-0.03544337844629808,0.02836407124505832,0.015246984778681517,5.0
0.3815565457229865,-0.6916464327753487,-0.23404174835020547,-0.016773903075529336,0.012749669201725244,-0.0013750253783163906,5.0
0.3641272201653458,-0.6864033089883961,-0.1960674359410969,-0.004000051846079314,-0.002376783082879831,-0.00787929012654867,5.0
0.3780706317959706,-0.6995112561259804,-0.22771271013045302,0.011230310963734768,-0.00530448554086268,-0.002097720849331418,5.0
0.3955002014310468,-0.6995112561259804,-0.22771271013045302,0.0289171823577652,0.02592432077758339,-0.026669387798411066,5.0
0.4059579432120921,-0.6968896483424366,-0.26568702253956156,0.025969368461328305,0.04056282321046964,-0.03172826160461328,5.0
0.39898611535806155,-0.7021328639095242,-0.253028918403192,0.02302156055718688,0.024460470478500265,-0.04618218424674671,5.0
0.3815565457229865,-0.6995112561259804,-0.20872554007746644,0.036778013422634766,0.04397847459026301,-0.044014094528243404,5.0
0.3920142875040318,-0.6968896483424366,-0.22138364421383594,0.04267363522321309,0.024460470478500265,-0.04762757298513795,5.0
0.3920142875040318,-0.6968896483424366,-0.23404174835020547,0.03874322268692605,0.04007487280080583,-0.04112330823690566,5.0
0.3920142875040318,-0.6995112561259804,-0.253028918403192,0.039725827319071684,0.05276157452494515,-0.062081495627271374,5.0
0.37458496194639085,-0.6916464327753487,-0.22771271013045302,0.048077960700014084,0.05861697646520428,-0.04979566270364125,5.0
0.3815565457229865,-0.6890248249918047,-0.1897383977213444,0.06330832051368042,0.0473941244822031,-0.07364463638534469,5.0
0.3920142875040318,-0.6942680405588925,-0.27201607460774635,0.05741269871310213,0.04690617407253929,-0.07292193981251024,5.0
0.4024720292850768,-0.6916464327753487,-0.2846741787441158,0.06183441356546199,0.07862292838288759,-0.06352688877294024,5.0
0.3920142875040318,-0.6995112561259804,-0.24037081426682252,0.06183441356546199,0.08106268043120662,-0.07075385009400695,5.0
0.3850424596500015,-0.6890248249918047,-0.25935797047137676,0.06478222746189888,0.08106268043120662,-0.05846801717037683,5.0
0.3850424596500015,-0.6942680405588925,-0.20872554007746644,0.060851808933316334,0.08740602980542302,-0.0794262001534649,5.0
0.3815565457229865,-0.6995112561259804,-0.2466998663350073,0.053482280184519566,0.08106268043120662,-0.08882125560031255,5.0
0.37458496194639085,-0.6837817012048522,-0.22771271013045302,0.05544748944881084,0.08106268043120662,-0.07725811043496159,5.0
0.37458496194639085,-0.6916464327753487,-0.1770802935849749,0.05643009408095648,0.07325547982799882,-0.08159428987196822,5.0
0.3815565457229865,-0.6995112561259804,-0.1897383977213444,0.046112751435722826,0.059592877284531894,-0.06786306380266921,5.0
0.3780706317959706,-0.709997687260156,-0.24037081426682252,0.06625613441011732,0.06203262635714437,-0.09098933650426058,5.0
0.3815565457229865,-0.709997687260156,-0.23404174835020547,0.06576483209404453,0.06203262635714437,-0.08882125560031255,5.0
0.37109904801937554,-0.709997687260156,-0.22138364421383594,0.0593779079773934,0.07276752941833502,-0.10399786600072515,5.0
0.36761313409236057,-0.704754471693068,-0.22771271013045302,0.0515170709202283,0.05178567519347081,-0.12206527150703074,5.0
0.36761313409236057,-0.6916464327753487,-0.20872554007746644,0.05544748944881084,0.034219472348399976,-0.089543952173147,5.0
0.39898611535806155,-0.6837817012048522,-0.20239650185771393,0.040217129635144504,0.01177376838239763,-0.04040061607134888,5.0
0.39898611535806155,-0.6497008459088492,-0.1644221894486054,0.03284760088634774,0.00152681721872407,0.014524288756756784,5.0
0.41292977106612244,-0.6497008459088492,-0.12011881112287975,0.005334686167008707,0.008846067412268064,0.10702939223404546,5.0
0.3850424596500015,-0.6418360225582175,-0.1137897729031273,-0.022669526374181518,-0.04580434276159965,0.1554500273557315,5.0
0.3885283735770159,-0.6418360225582175,-0.18340933180472735,-0.057060666028170615,-0.07117774620987828,0.20387067129197284,5.0
0.39898611535806155,-0.6549440614759369,-0.24037081426682252,-0.08359097311921627,-0.055075394593798885,0.23566928523846684,5.0
0.39898611535806155,-0.6549440614759369,-0.20239650185771393,-0.0968561266647391,-0.0487320392681694,0.24072817006286315,5.0
0.40944385713910686,-0.662808838936501,-0.1770802935849749,-0.0968561266647391,-0.03311763806175379,0.2609636564731168,5.0
0.41292977106612244,-0.6706736622871329,-0.1517640853122358,-0.09636482434866628,-0.0184791376746658,0.23277851657623966,5.0
0.40944385713910686,-0.6759168778542206,-0.20872554007746644,-0.10127784750939445,0.013237618123535773,0.22049266602349898,5.0
0.4024720292850768,-0.6785384856377644,-0.1644221894486054,-0.10471695772960868,0.02592432077758339,0.1655677793754136,5.0
0.3920142875040318,-0.6811600934213082,-0.1644221894486054,-0.10864737625819122,0.01762916957873012,0.12871027178996794,5.0
0.4059579432120921,-0.6811600934213082,-0.1327769152592492,-0.0855561793873598,0.0254363707398829,0.06944919248304303,5.0
0.3920142875040318,-0.6864033089883961,-0.1897383977213444,-0.0717997265219119,0.050321825452332665,0.04993639823834621,5.0
0.3955002014310468,-0.6759168778542206,-0.15809312353198834,-0.056078061396024975,0.04495437392173734,0.005851935667295465,5.0
0.3815565457229865,-0.6785384856377644,-0.14543501939561884,-0.0673780086734043,0.0600808276941957,-0.020887819623013226,5.0
0.3850424596500015,-0.6811600934213082,-0.1391059811758663,-0.05362155131373478,0.05812902605554047,0.005129239645370735,5.0
0.3850424596500015,-0.6811600934213082,-0.1391059811758663,-0.046743324131973886,0.06447237840546341,0.002238455282216962,5.0
0.37109904801937554,-0.6916464327753487,-0.17075122766835785,-0.06246498850882387,0.06203262635714437,-0.0013750253783163906,5.0
0.37109904801937554,-0.6942680405588925,-0.14543501939561884,-0.05509545826195323,0.07081572777967979,-0.025946693429215448,5.0
0.37109904801937554,-0.6942680405588925,-0.14543501939561884,-0.05067374041344562,0.07764702756355997,-0.03389635132311659,5.0
0.37458496194639085,-0.704754471693068,-0.22138364421383594,-0.04723462569900977,0.07813497797322379,-0.07364463638534469,5.0
0.3885283735770159,-0.7178625106107877,-0.1770802935849749,-0.04919983346522716,0.08740602980542302,-0.08159428987196822,5.0
0.3885283735770159,-0.7178625106107877,-0.1770802935849749,-0.04772592801508259,0.08935783144407823,-0.11267022487473835,5.0
0.3780706317959706,-0.7126192950436998,-0.18340933180472735,-0.04526941793279237,0.09765298245694984,-0.11267022487473835,5.0
0.37458496194639085,-0.7126192950436998,-0.20872554007746644,-0.03642598242303639,0.10399633183116622,-0.14663694616884623,5.0
0.37458496194639085,-0.7126192950436998,-0.20872554007746644,-0.026599942655653245,0.09326143472138869,-0.1437461598775085,5.0
0.37109904801937554,-0.704754471693068,-0.20872554007746644,-0.02807384885483476,0.09814093286661364,-0.1386872838676675,5.0
0.36761313409236057,-0.704754471693068,-0.20872554007746644,-0.02807384885483476,0.07618317931027511,-0.12784684408970623,5.0
0.36761313409236057,-0.704754471693068,-0.20872554007746644,-0.02365213100632715,0.0600808276941957,-0.08014889672629935,5.0
0.37458496194639085,-0.7073760794766121,-0.18340933180472735,-0.007439165062441298,0.06642417706841208,-0.09677090908693606,5.0
0.3815565457229865,-0.704754471693068,-0.20872554007746644,-0.021686923240109755,0.06203262635714437,-0.06063610688888013,5.0
0.3780706317959706,-0.6942680405588925,-0.18340933180472735,-0.02758254653876194,0.051297724783807,-0.04545948767391229,5.0
0.37458496194639085,-0.6916464327753487,-0.17075122766835785,-0.02414343257336303,0.02982792145115061,-0.00787929012654867,5.0
0.3815565457229865,-0.6916464327753487,-0.1897383977213444,-0.026599942655653245,0.030803821712533246,-0.0006523288054819576,5.0
0.3885283735770159,-0.6890248249918047,-0.20239650185771393,-0.017265205391602145,0.04056282321046964,-0.004265809466015311,5.0
0.3850424596500015,-0.709997687260156,-0.14543501939561884,-0.014808695309311943,0.020068920139195878,0.010188112212026127,5.0
0.3920142875040318,-0.6942680405588925,-0.1517640853122358,-0.008421769694586934,0.015189419018264363,0.03909595625674614,5.0
0.3920142875040318,-0.6785384856377644,-0.1770802935849749,-0.0049826564782249555,0.02933997141345012,0.05788605613224736,5.0
0.3920142875040318,-0.6759168778542206,-0.1391059811758663,-0.002034842581788055,-0.0009129348295949658,0.07739885037694419,5.0
0.3815565457229865,-0.6680520545035888,-0.1644221894486054,-0.018739110841746728,-0.02775018950686502,0.0636676243076452,5.0
0.3885283735770159,-0.6706736622871329,-0.20239650185771393,-0.01087827827880327,-0.013111686144070475,0.0788442391153354,5.0
0.39898611535806155,-0.662808838936501,-0.20872554007746644,-0.016773903075529336,0.014213518942863388,0.0528271801224063,5.0
0.3955002014310468,-0.6680520545035888,-0.1770802935849749,-0.019721715473892364,0.010797867563070013,0.05644066298657848,5.0
0.37109904801937554,-0.6706736622871329,-0.1960674359410969,-0.030530358562606504,0.018117119244467288,0.08028963226100427,5.0
0.3920142875040318,-0.6732952700706765,-0.1897383977213444,-0.035934680481482045,0.021044820214596853,0.055717966413744054,5.0
0.3885283735770159,-0.6785384856377644,-0.20872554007746644,-0.01235218522702172,0.03177972178793422,0.0549952698409096,5.0
0.3780706317959706,-0.6811600934213082,-0.17075122766835785,-0.00940437282865869,0.004454516701000351,0.036205172169047214,5.0
0.37458496194639085,-0.6785384856377644,-0.1897383977213444,-0.02217822480714564,0.01177376838239763,0.02970090742081494,5.0
0.3815565457229865,-0.6785384856377644,-0.18340933180472735,-0.010386977460804326,0.020068920139195878,0.019583160910229897,5.0
0.3850424596500015,-0.6811600934213082,-0.15809312353198834,-0.011369580594876083,0.00396656629133655,0.014524288756756784,5.0
0.3920142875040318,-0.6837817012048522,-0.12011881112287975,-0.008913072010659745,0.020068920139195878,0.02175124952691379,5.0
0.3920142875040318,-0.6811600934213082,-0.1644221894486054,-0.02856515042187064,0.018605069654131095,0.015969680800606248,5.0
0.3815565457229865,-0.6864033089883961,-0.17075122766835785,-0.02365213100632715,0.018605069654131095,-0.01366085830194651,5.0
0.3850424596500015,-0.6811600934213082,-0.17075122766835785,-0.02758254653876194,0.017141219169066312,-0.002097720849331418,5.0
0.3885283735770159,-0.6732952700706765,-0.14543501939561884,-0.03495207645792892,0.028852021375749635,-0.012938161729112075,5.0
0.37458496194639085,-0.6864033089883961,-0.15809312353198834,-0.039865096201176065,0.02982792145115061,-0.030282868458944408,5.0
0.3850424596500015,-0.6916464327753487,-0.1770802935849749,-0.03249556651608313,0.018117119244467288,-0.016551642389645432,5.0
0.37458496194639085,-0.6864033089883961,-0.14543501939561884,-0.025617338772544546,0.022508670327698314,-0.01366085830194651,5.0
0.3920142875040318,-0.6942680405588925,-0.22138364421383594,-0.03200426457452878,0.02202072028999783,-0.03245095817744773,5.0
0.39898611535806155,-0.6916464327753487,-0.1960674359410969,-0.04330421016657498,0.04056282321046964,-0.034619043488673396,5.0
0.37458496194639085,-0.6654304467200449,-0.1897383977213444,-0.060991081560605405,-0.01164783491507906,-0.0006523288054819576,5.0
0.3850424596500015,-0.6732952700706765,-0.12011881112287975,-0.057060666028170615,-0.012623735734406663,0.04415482785930954,5.0
0.4164156849931374,-0.6864033089883961,-0.1897383977213444,-0.05116504272951844,0.05666517482654905,0.04054134719877617,5.0
0.3780706317959706,-0.6680520545035888,-0.14543501939561884,-0.10029524287724882,0.03958692313506866,0.06583570961887085,5.0
0.30835259733310394,-0.662808838936501,-0.07581546049401873,-0.12633424765222165,-0.234153081863567,0.1937529192722907,5.0
0.3815565457229865,-0.662808838936501,-0.1327769152592492,-0.1391081018778194,-0.33125514792112043,0.2992665483896761,5.0
0.3920142875040318,-0.6916464327753487,-0.20239650185771393,-0.13272117176887274,-0.11558119778080607,0.3166112661377024,5.0
0.3780706317959706,-0.7178625106107877,-0.14543501939561884,-0.07867795295463585,-0.2536710744444668,0.32311552647865716,5.0
0.3641272201653458,-0.7126192950436998,-0.22138364421383594,-0.12289513143971192,-0.22536996258679226,0.3021573346810139,5.0
0.33972582267623935,-0.7204841183943316,-0.23404174835020547,-0.16416450202064659,-0.3175925364505337,0.17640821915337482,5.0
0.40944385713910686,-0.7178625106107877,-0.3859390187592882,-0.16711231591708353,-0.4351885078111409,0.21976997826521982,5.0
0.5070492030180953,-0.7414568888825476,-0.6137849139865881,-0.06688670635733147,0.0756952289006113,0.2465097426455386,5.0
0.4059579432120921,-0.7781593060720269,-0.5188491225774924,-0.040356398517248884,0.31479076597201616,0.32311552647865716,5.0
0.24909230465128174,-0.7624297511508988,-0.2150546059940835,0.03039108930598365,0.08252653166019805,0.5139072806740635,5.0
0.3327539948222096,-0.7126192950436998,-0.1897383977213444,-0.005473955798150033,0.04397847459026301,0.2624090496187857,5.0
0.2665216302089224,-0.6995112561259804,-0.2973322828804854,-0.08408227543528908,-0.052147692135816055,0.0528271801224063,5.0
0.290923027698028,-0.7781593060720269,-0.24037081426682252,-0.015299997625384752,-0.1907255251605537,-0.031005565031778853,5.0
0.37458496194639085,-0.8069969916910098,-0.3859390187592882,0.08296040117200214,-0.22878562140585193,-0.015106251447615389,5.0
0.44778891033627366,-0.7309705495285073,-0.5188491225774924,0.09082123822916721,0.07715908012960272,0.04198674034444505,5.0
0.4512748242632884,-0.7152409028272436,-0.5504943863805243,0.025478066145255475,0.23330311302370474,-0.044014094528243404,5.0
0.3920142875040318,-0.6864033089883961,-0.34163564735777874,0.0289171823577652,0.18987554441786517,-0.22974699034291932,5.0
0.4059579432120921,-0.6680520545035888,-0.32897754322140915,0.0038607792187902597,0.13424924532749605,-0.3316471277815773,5.0
0.4059579432120921,-0.6497008459088492,-0.3099903870168549,-0.08653878401950542,0.23037539866289558,-0.32586555519890165,5.0
0.3641272201653458,-0.6261064217470217,-0.1960674359410969,-0.19315132069205634,0.24159826403657636,-0.21746115741928917,5.0
0.3571553923113152,-0.6365928069911297,-0.1264478770394968,-0.265372707224101,0.1703575399341391,-0.21312497798228255,5.0
0.37109904801937554,-0.6549440614759369,-0.1264478770394968,-0.2874813054550823,0.13766489224372955,-0.2333604643925363,5.0
0.3920142875040318,-0.6968896483424366,-0.14543501939561884,-0.27028571840023813,0.1566949403663787,-0.23914203697521166,5.0
0.3885283735770159,-0.6995112561259804,-0.1517640853122358,-0.2909204036907056,0.23525491466235984,-0.234083169779926,5.0
0.36761313409236057,-0.709997687260156,-0.1770802935849749,-0.2815856776622085,0.226959751746662,-0.16687243257909987,5.0
0.3571553923113152,-0.6916464327753487,-0.1897383977213444,-0.27962046839791727,0.17914064730808762,-0.07798080700779604,5.0
0.3466976505302699,-0.7152409028272436,-0.17075122766835785,-0.23245547002410874,0.15181544817256687,-0.043291397955408976,5.0
0.32926808089519427,-0.7414568888825476,-0.1517640853122358,-0.11847341658735207,0.07325547982799882,0.0427094369172795,5.0
0.32926808089519427,-0.7598081433673548,-0.12011881112287975,0.0038607792187902597,-0.07312954189712041,0.10558399908837658,5.0
0.3571553923113152,-0.7650513589344426,-0.15809312353198834,0.08639951139221634,-0.18877372352189842,0.11570174229350341,5.0
0.39898611535806155,-0.7493217122331791,-0.2783451266759311,0.12766888197315102,-0.17559905650956256,0.10124781965136999,5.0
0.40944385713910686,-0.7178625106107877,-0.4302423866986896,0.10654290035890637,-0.016039385626346755,0.06149953458914189,5.0
0.4059579432120921,-0.662808838936501,-0.3796099666911034,0.0795212909517879,0.0473941244822031,0.03548247559621279,5.0
0.3955002014310468,-0.6313496373141095,-0.3732809146229186,-0.022669526374181518,0.061544675947480566,0.03259169150851387,5.0
0.40944385713910686,-0.6051336053687382,-0.2783451266759311,-0.14058200283374236,0.0717916285990074,0.0549952698409096,5.0
0.42338751284716747,-0.620863206179934,-0.2846741787441158,-0.2997638573646072,0.15620699590812803,0.0427094369172795,5.0
0.41292977106612244,-0.6418360225582175,-0.27201607460774635,-0.39704163205488796,0.2020742987080472,0.02030585748306433,5.0
0.3920142875040318,-0.6549440614759369,-0.25935797047137676,-0.47122826380499705,0.17523704403077717,-0.0006523288054819576,5.0
0.3815565457229865,-0.6785384856377644,-0.2973322828804854,-0.48596729733340865,0.16352624610167202,0.017415073395365414,5.0
0.3815565457229865,-0.7073760794766121,-0.3099903870168549,-0.4938281343905737,0.21378510853997865,0.021028554055898766,5.0
0.3466976505302699,-0.7676729667179865,-0.2783451266759311,-0.4771238676286889,0.19865865179181372,0.028255514275146068,5.0
0.33972582267623935,-0.8043753839074658,-0.2910032308123007,-0.4083415913168584,0.17377319875319888,0.005851935667295465,5.0
0.325782166968179,-0.8069969916910098,-0.2783451266759311,-0.3130290019216868,0.18841169914028685,-0.08014889672629935,5.0
0.31532442518713366,-0.8069969916910098,-0.2846741787441158,-0.23442067928839994,0.12009868939865875,-0.13435110443066084,5.0
0.3327539948222096,-0.7807809138555707,-0.32897754322140915,-0.18234266973845434,0.005918367929991787,-0.1271241475168718,5.0
0.3920142875040318,-0.7571865355838109,-0.34163564735777874,-0.12289513143971192,-0.01506348480701916,-0.09171203307709501,5.0
0.4024720292850768,-0.7493217122331791,-0.3859390187592882,-0.0914518071802336,0.12400228672455609,-0.022333212768682102,5.0
0.4024720292850768,-0.7493217122331791,-0.3859390187592882,-0.07425623510612823,0.1840201514047257,-0.006433898082699209,5.0
0.3501835644572855,-0.7335920655319158,-0.3479646994259635,-0.0919431094963064,0.14352028525686905,-0.022333212768682102,5.0
0.3327539948222096,-0.7335920655319158,-0.3099903870168549,-0.08211706617099782,0.061544675947480566,-0.04545948767391229,5.0
0.3327539948222096,-0.7335920655319158,-0.3099903870168549,-0.08211706617099782,0.032755621863335194,-0.04256870138257453,5.0
0.39898611535806155,-0.7126192950436998,-0.34163564735777874,-0.10078654519332164,0.07959882920221518,-0.02522399685638102,5.0
0.3815565457229865,-0.6995112561259804,-0.36062281048654915,-0.1032430507813902,0.08350243247952567,0.009465416121237684,5.0
0.3815565457229865,-0.6995112561259804,-0.36062281048654915,-0.11994731754327502,0.032267671825634704,0.051381791384015066,5.0
0.3571553923113152,-0.6995112561259804,-0.34163564735777874,-0.09341701045222937,0.028852021375749635,0.03186899493567943,5.0
0.3780706317959706,-0.7231057261778755,-0.3732809146229186,-0.07130842420583908,0.04837002530153073,0.026087426760281585,5.0
0.3780706317959706,-0.7231057261778755,-0.3732809146229186,-0.03789988843495867,0.07764702756355997,0.004406543347991154,5.0
0.37109904801937554,-0.7414568888825476,-0.3985971228956577,-0.003508749530006508,0.0473941244822031,-0.023778603710712144,5.0
0.3850424596500015,-0.7545649278002668,-0.3732809146229186,0.036778013422634766,0.051297724783807,-0.04907296613080682,5.0
0.3850424596500015,-0.7493217122331791,-0.3732809146229186,0.07411695948269142,0.056177227392591796,-0.03895522292568,5.0
0.36761313409236057,-0.7414568888825476,-0.36062281048654915,0.0682213436744086,0.05568927698292799,-0.04979566270364125,5.0
