acc_x,acc_y,acc_z,gyro_x,gyro_y,gyro_z,activity
-1.0357453670302965,1.0519967816435225,2.0195650369670224,-0.2570754894051149,1.3747198103779488,-1.73452086098792,0.0
-1.0930718738114267,0.964048163946839,2.118899167306652,-0.11778192212180719,0.8504622770077348,-1.3135703249564186,0.0
-1.0930718738114267,0.964048163946839,2.118899167306652,0.2000797392178255,0.1542260528534238,-0.9914664856174883,0.0
-1.105140634318847,0.7832649488798813,2.0546240094271515,0.18384626044471422,-0.003883368483830121,-1.054523866827956,0.0
-1.105140634318847,0.7832649488798813,2.0546240094271515,0.15871058681399314,-0.14604315300526052,-1.0204387846675005,0.0
-1.1292781025191294,0.685544264926011,2.0078786446252943,0.06549909956309928,0.08487981768768924,-1.3689585315012212,0.0
-1.1292781025191294,0.6562280661544501,1.8851717296022092,-0.03975657049056088,0.6562928176978782,-2.095822482452249,0.0
-1.0870374935577163,0.6611141099740442,1.8471911590566479,-1.0792217801992083,0.48986183807571787,-2.5176250935718243,0.0
-1.0508313176645723,1.0226805614899608,1.8997797200293687,-1.732749550076326,0.5134395576514577,-2.0625895585253673,0.0
-1.123243722265419,1.0861990028526765,2.08383999028147,-1.5541814113112866,-0.19458551783272462,-1.3178309498332876,0.0
-1.047814127537717,0.7734928612406934,2.1656445321085096,-1.280830899901082,-0.03855648923844683,-1.3860010310086988,0.0
-1.029711039591145,0.553621365108487,2.1218207653920844,-0.9729187637986046,0.480846829639817,-1.8972770139790327,0.0
-1.044796937410862,0.6415699667686697,2.136428755819243,-0.4220284066860951,-0.14951045873722335,-1.8393324158790083,0.0
-1.123243722265419,0.5780515360969546,2.1656445321085096,-0.08636232050296695,-0.8041389549019913,-1.9467003623253183,0.0
-1.0568656451037235,0.39726829430249555,1.9552898790875208,-0.7058521516352024,-1.917839477665701,-1.5675039999744373,0.0
-1.0810031661185648,0.4510146627261489,1.8296615705440569,-1.7866864498780903,-2.8047778131079144,-0.7648008763278339,0.0
-1.044796937410862,0.6171398011257024,1.8588773468333226,-2.111879347231031,-1.6418414542207487,-0.33192058232654775,0.0
-1.0719515957379993,0.6171398011257024,1.9698978695146803,-2.479488807204338,-1.8561213950383704,0.10181178936110863,0.0
-0.9874704306297322,0.3044336595137194,2.49578450206715,-2.661722345222677,-2.6799548067572534,0.5943409121857698,0.0
-0.8456628115548933,0.3044336595137194,2.0049570465398627,-2.650725534314692,-2.3283692071011677,0.24241265713600346,0.0
-0.7973878751543289,0.22137108563662994,1.9786626637709759,-2.319248686619275,-1.370004224719747,-0.3191387076959395,0.0
-0.8064394455348943,0.15785266565591535,2.186095718706533,-1.8825163860268121,-0.29999180154356014,-0.5330224423549857,0.0
-0.8064394455348943,0.15785266565591535,2.186095718706533,-1.4400235591739352,0.28459697335798506,-0.6369818805852504,0.0
-0.8064394455348943,0.15785266565591535,2.186095718706533,-1.3871339163016856,0.29430545308987666,-0.6361297223516762,0.0
-0.8366112411743282,0.0063856279785172295,2.1714877282793728,-1.4206480796817487,0.5141330120314515,-1.022143017989148,0.0
-0.8366112411743282,0.0063856279785172295,2.1714877282793728,-1.3719477711015995,0.6542124207259028,-1.1278067311138105,0.0
-0.6917864319726342,-0.10599316605213402,2.127663961562948,-0.40108201625180023,0.33383280948144006,-1.436276454443058,0.0
-0.6374771153183594,-0.15485347595606777,2.0984479807086287,-0.0031003680696673444,0.30332046152577746,-1.2266534278063816,0.0
-0.7249754177389232,-0.19882778480440932,2.060467205598015,0.2828180184776533,0.3379935865093935,-0.9991356602831534,0.0
-0.8154909631009009,-0.13530934344169382,2.022486635052454,0.3844080721213996,0.30262700714578367,-0.9164793880099861,0.0
-0.8516971918086038,-0.07179090207897806,1.990349056112703,0.22416810482335842,0.4440933415162197,-0.7341242608106736,0.0
-0.8245425334814663,-0.04247472468941824,2.0254082331378855,0.014180405954713643,0.9558685607185703,-0.4367321372176362,0.0
-0.8426456214280382,0.016157672853703006,1.993270654198135,0.05973884155497236,0.7485232990288622,-0.39327368864261786,0.0
-0.9150580260288852,0.0014995841589232912,2.0078786446252943,0.027795576343099277,0.5210676573273709,-0.3719705226855208,0.0
-0.9150580260288852,0.016157672853703006,1.9991138503689987,-0.03242533767073324,0.46489720973999044,-0.4648523196068246,0.0
-0.8909205578286029,0.04058784918767089,1.9991138503689987,-0.08479133930430707,0.4531083499521205,-0.37282268091909454,0.0
-0.8788518501357412,0.08456215803601276,1.990349056112703,-0.14344126333741072,0.5002637891036001,-0.286757900429882,0.0
-0.9150580260288852,0.05524593788245099,2.010800242710726,-0.20156752856770088,0.2381350055024962,-0.2995397750604901,0.0
-0.9150580260288852,0.07479007039682499,2.0400162235650448,-0.3042048998170742,0.27488851054209035,-0.28505362553548397,0.0
-0.91204083590203,0.07479007039682499,2.080918392196038,-0.4000346826787752,0.3865359513368577,-0.25437709316382406,0.0
-0.9150580260288852,0.07479007039682499,2.086761588366902,-0.4052712994482265,0.36434514052110545,-0.24159517696046565,0.0
-0.9029893183360234,0.06501802552163877,2.045859215170856,-0.34347939784877507,0.13619603598162203,-0.26545473447278456,0.0
-0.8788518501357412,0.025929760492891175,2.034173027394181,-0.22513223058020096,0.10290983667399058,-0.2688632426888302,0.0
-0.8728174698820309,0.025929760492891175,2.0429376170854234,-0.20994609176707393,0.02940282659480208,-0.26375048036476173,0.0
-0.8728174698820309,0.05524593788245099,2.048780813256288,-0.19318896856180742,-0.07808384563001011,-0.21943989434254443,0.0
-0.8728174698820309,0.050359936826859054,2.045859215170856,-0.16595864534917412,0.0862667412491741,-0.21858777768172055,0.0
-0.8637658995014653,0.050359936826859054,2.022486635052454,-0.020904808880560823,0.10915099798692168,-0.2364824354227723,0.0
-0.8667830896283205,0.050359936826859054,2.010800242710726,0.18698823561595232,-0.11414387937361362,-0.28505362553548397,0.0
-0.8577315192477549,0.050359936826859054,2.0137218407961583,0.2273100544467598,-0.21469593167650183,-0.18876334118450944,0.0
-0.8516971918086038,0.07479007039682499,2.0254082331378855,0.12467269277782514,-0.15367123576517688,-0.11718471022030275,0.0
-0.8848861775748925,0.07479007039682499,2.0254082331378855,0.08644548999739415,0.05090016029968966,-0.018338044707294106,0.0
-0.8879033677017478,0.07479007039682499,2.010800242710726,0.1419534540282876,0.10568368802595962,-0.04986672491934053,0.0
-0.8848861775748925,0.13342248932194747,1.9991138503689987,0.26448992365416574,-0.027461083830570693,-0.047310343757306354,0.0
-0.8848861775748925,0.15296662183632137,1.9991138503689987,0.27025016888837433,-0.1862639637768176,-0.04645821670329494,0.0
-0.8848861775748925,0.15296662183632137,1.9991138503689987,0.20374534285382076,-0.07392306860205657,-0.03367632128631165,0.0
-0.893937747955458,0.14808057801672733,1.9961922522835667,0.12624365481560734,0.09805560103704404,0.005521497215243536,0.0
-0.8667830896283205,0.14808057801672733,1.9786626637709759,0.09482405639024682,0.15699990420539284,0.04301506160877589,0.0
-0.8728174698820309,0.1627386880935083,1.9845058599418397,0.0801615907505916,0.1244071719647529,0.13078409100941774,0.0
-0.8999721282091685,0.17739679817028922,2.0078786446252943,0.08539818197220597,0.14590450725551518,0.2287786346650087,0.0
-0.8728174698820309,0.1969409306846631,2.0049570465398627,0.06916472874693164,0.12302024628876837,0.2236658723409404,0.0
-0.8547143819354589,0.23602919571341086,2.0195650369670224,0.011038456331312336,0.18889916937904125,0.19895420856098517,0.0
-0.8547143819354589,0.211599019379443,2.0400162235650448,0.046647337953099194,0.16046721839535413,0.28246259749497626,0.0
-0.8426456214280382,0.1627386880935083,2.034173027394181,0.16551816562122668,0.22287882306666648,0.27223709363321463,0.0
-0.8577315192477549,0.1627386880935083,2.0195650369670224,0.21631319244309985,0.40456596820865953,0.26627219386194734,0.0
-0.8728174698820309,0.22625712945622392,2.060467205598015,0.014180405954713643,0.693739760201469,0.29865300112800514,0.0
-0.8879033677017478,0.23602919571341086,2.060467205598015,-0.1664823057487274,0.6521320237539275,0.33529445405730746,0.0
-0.893937747955458,0.17739679817028922,2.022486635052454,-0.06227395489743398,0.6327150981221383,0.3020615093440507,0.0
-0.9361783041023122,0.1969409306846631,1.9991138503689987,0.08854013159560738,0.6264739072062123,0.3489284661351146,0.0
-0.9241095964094506,0.22137108563662994,2.060467205598015,0.1377641963796983,0.4683645154719533,0.3949433062653546,0.0
-0.9301439766631608,0.22625712945622392,2.080918392196038,0.12414901321739433,0.1646279869653092,0.40005606858942316,0.0
-0.9603157723025946,0.21648506319903696,2.0721535979397427,0.098489685574079,0.06893018192911556,0.35830185333605247,0.0
-0.9542814448634432,0.201826953122256,2.034173027394181,0.14404809562650087,0.2949989243858674,0.2040669708850535,0.0
-0.9603157723025946,0.211599019379443,2.022486635052454,0.1000606476118612,0.4933291438076807,0.10266391381682313,0.0
-0.9422126843560226,0.29466159325653246,2.060467205598015,0.09744235200105411,0.3123354699616785,0.07113523474153162,0.0
-0.9422126843560226,0.2848895269993455,2.051702411341719,0.1602815743996121,0.0571413218769332,0.008930000234695309,0.0
-0.9633329624294497,0.27511746074215865,2.022486635052454,0.19379581442318589,-0.08917923412188929,-0.017485917653282734,0.0
-0.9210924062825953,0.3874962280453086,2.0312514293087496,-0.016715525684134487,0.08210596633572018,0.14271385937238967,0.0
-0.9150580260288852,0.39726829430249555,2.045859215170856,-0.2109934125661805,0.3782143972809507,0.3199561670851024,0.0
-0.9391954942291673,0.35329399079965407,2.0750751960251743,-0.1392519825360941,0.1077640765399364,0.29694874701998236,0.0
-0.9874704306297322,0.201826953122256,2.034173027394181,0.03198485953952551,-0.4400712102380116,0.09414264977245143,0.0
-0.9814361031905808,0.22625712945622392,2.034173027394181,0.13985881243007459,-0.45879468148980695,0.04557144017251319,0.0
-0.8999721282091685,0.29466159325653246,1.9991138503689987,0.11158118917595217,-0.07739038279201788,0.5116846399126026,0.0
-0.8788518501357412,0.39726829430249555,2.0575456075125835,0.1257200008030133,0.3275916523975081,0.7758438395787581,0.0
-0.9422126843560226,0.3777241617881217,2.095526382623197,0.2985278432381705,0.33105895812947095,0.6471727271753508,0.0
-0.9874704306297322,0.3288638251566868,2.1218207653920844,0.3524647941356081,0.04812631106222025,0.42391558452899175,0.0
-0.9935048108834422,0.29466159325653246,2.104291176879493,0.30638273007059214,-0.08779230844590476,0.33529445405730746,0.0
-0.9723845328100152,0.3044336595137194,2.063388803683447,0.32209250373543563,-0.14188237597730696,0.2637158230931007,0.0
-0.9572985821757393,0.3288638251566868,2.010800242710726,0.47133566012549066,-0.014978765433707757,0.11544581183210335,0.0
-0.9935048108834422,0.411926393688276,2.0195650369670224,0.5682127510123799,0.1368894988196143,-0.27397598422652325,0.0
-1.0146250889568695,0.4559006965229299,2.0750751960251743,0.3079537176562112,1.175002648364154,-0.407759838167624,0.0
-0.9572985821757393,0.4559006965229299,2.060467205598015,0.29957515126335865,1.3559963729581472,-0.1708686834434578,0.0
-0.9301439766631608,0.5145331000797393,2.034173027394181,0.25454036967569393,0.8234172517000321,0.07369161419843347,0.0
-0.9935048108834422,0.5682794698397676,2.0195650369670224,0.07335398639552099,0.3941640510127709,0.1077766735425946,0.0
-1.029711039591145,0.5780515360969546,2.01664343888159,-0.0015293932579666899,0.018307429644924437,0.07880437319343393,0.0
-1.0357453670302965,0.5682794698397676,2.0692319998543103,-0.1340153817340408,-0.35477534037095304,-0.14530489260949112,0.0
-1.0357453670302965,0.5389632657227066,2.1218207653920844,-0.22565589097975425,-0.107209267909688,-0.2058058822647373,0.0
-0.9633329624294497,0.5194191332083328,2.1393501493396223,-0.18585772616154095,-0.10443541655771897,-0.12996660563728607,0.0
-0.9754017229368704,0.4852168972990533,2.063388803683447,-0.09107525771198736,-0.4608750784617823,0.08562138442893129,0.0
-0.9814361031905808,0.5829375692255481,2.034173027394181,-0.11673460132270061,-0.603034884128209,0.1691297824569615,0.0
-0.9723845328100152,0.5975956686113285,2.063388803683447,-0.12563682172814736,-0.46226198722176987,0.1273755827933722,0.0
-0.9422126843560226,0.5731655029683612,2.080918392196038,-0.16124570494667412,-0.12523928478148977,0.16231276602487038,0.0
-0.9331611139754571,0.4852168972990533,2.0896831864523335,-0.22094295377073384,-0.1335608388373969,0.16742552834893873,0.0
-0.9301439766631608,0.42169846261821303,2.080918392196038,-0.29268438380082024,-0.25214290801208666,0.1912850650748826,0.0
-0.9301439766631608,0.42169846261821303,2.080918392196038,0.22416810482335842,1.0141194052779259,0.2185531204100596,0.0
-0.9391954942291673,0.680658242488418,1.823818374373193,0.5268435986085476,1.0716767616252938,0.25775094410820854,0.0
-0.9391954942291673,0.7050883974403849,2.2532922701064115,0.21578953843050577,0.495409540779656,0.34211144970302343,0.0
-0.9391954942291673,0.7050883974403849,2.2532922701064115,0.07125934479730792,0.3379935865093935,0.3489284661351146,0.0
-0.9633329624294497,0.5829375692255481,2.1305855596483796,-0.1732898861527008,-0.0662949773841417,0.49805060704842036,0.0
-1.008590708703159,0.5585074035825808,2.0546240094271515,-0.4518770430736734,-0.603034884128209,0.1793552967119107,0.0
-1.008590708703159,0.5585074035825808,2.0546240094271515,-0.2560281749929675,-0.07808384563001011,-0.09929006287243859,0.0
-0.9331611139754571,0.553621365108487,2.0254082331378855,-0.37070972585162765,-0.0031899056458378544,0.18105955081993344,0.0
-0.9361783041023122,0.6073677348685155,2.0254082331378855,-0.3916561162859225,-0.10512887093771274,0.215144612194014,0.0
-0.9361783041023122,0.6073677348685155,2.0254082331378855,-0.45030605548805425,-0.1883443607487929,0.0924383969635771,0.0
-0.9633329624294497,0.4998749980212087,2.08383999028147,-0.3968927330553738,-0.15575163273715215,-0.028563558962243277,0.0
-0.9361783041023122,0.4510146627261489,2.110134373050357,-0.30263391223145514,0.19791417781494214,-0.00811253045234499,0.0
-0.9361783041023122,0.4510146627261489,2.110134373050357,-0.22827419297752072,0.17225607818322405,-0.036232702448345824,0.0
-0.9572985821757393,0.42169846261821303,2.1159775692212204,-0.13611002253388405,0.13411564746764526,-0.0370848295023572,0.0
-0.9663501525563049,0.42169846261821303,2.110134373050357,-0.128255122129174,0.0862667412491741,-0.0370848295023572,0.0
-0.9633329624294497,0.4510146627261489,2.086761588366902,-0.234558111385201,0.005825107019062273,0.011486381396729485,0.0
-0.9663501525563049,0.4461286295975554,2.066310401768879,-0.24136569019243456,0.11677908497583726,0.04301506160877589,0.0
-0.9633329624294497,0.44124259513258685,2.086761588366902,-0.19214164776270085,0.20484880619486473,0.05324057846202194,0.0
-0.9542814448634432,0.4607867299856171,2.080918392196038,-0.19842556936386074,0.2090095832228183,-0.01663379059927134,0.0
-0.9633329624294497,0.49498896489261535,2.0400162235650448,-0.4497824014754602,0.5113591945114763,-0.21347501535765237,0.0
-0.9512642547365879,0.4559006965229299,2.051702411341719,-0.42359939427171406,0.5619819393949189,-0.32851207411050243,0.0
-1.0357453670302965,0.4607867299856171,2.1539581397667815,-0.10573773931904071,0.6805640254856055,-0.2023973740486918,0.0
-0.9482470646097328,0.43147052887539994,2.1714877282793728,-0.05441905529109382,0.2804362132460285,-0.11548045611228,0.0
-0.9572985821757393,0.4754448303736788,2.136428755819243,0.05659687915765254,-0.023300315260615625,-0.09417730054837029,0.0
-0.9995391911371526,0.4754448303736788,2.1656445321085096,0.03826877156024653,-0.28958985051567776,-0.18620697041566284,0.0
-0.8999721282091685,0.4461286295975554,2.148114943595918,-0.15339080414277909,0.5918008160545905,-0.24841219339255663,0.0
-0.8848861775748925,0.411926393688276,2.1714877282793728,-0.41050789066984106,1.9606954940394816,0.8627607367287948,0.0
-1.2409138731399754,0.13342248932194747,1.9845058599418397,-0.6456312503952887,1.8545957897806464,1.5180459735701155,0.0
-1.271085721593968,0.5096470642783957,2.127663961562948,-0.24817327538662734,0.7922114324483789,1.5793990383134353,0.0
-1.0719515957379993,0.685544264926011,2.267900260533571,0.2634425900811407,-0.7562900275385238,0.9215574930623934,0.0
-1.029711039591145,0.675772198668824,2.1159775692212204,0.11734143441016061,-0.608582586832147,1.0161434817325947,0.0
-0.9633329624294497,0.38261019491671516,1.9640546733438167,-0.1738135465522541,0.025935514519340414,0.7971469639631054,0.0
-0.8456628115548933,0.35329399079965407,1.9406820932254147,-0.2612647726015412,0.08279942917371243,-0.007260403398333578,0.0
-1.0870374935577163,0.5291911994655197,2.0049570465398627,-0.40631860747341464,0.6583732146698532,0.08050862600230826,0.0
-1.376687138368383,0.5291911994655197,1.9465250848312254,-0.9341679581012532,1.8053599536571914,0.8729862198041811,0.0
-1.430996455022658,0.4754448303736788,1.9231525047128235,-1.415935219116239,2.0806645565541437,1.610075736976096,0.0
-1.274102911720823,0.3777241617881217,2.1305855596483796,-1.2619791510650002,1.2609919387792123,1.4609535337036654,0.0
-1.1503983805925566,0.48033086417045984,2.2007037091336907,-0.3649494550695823,1.7332398861699845,1.030629672830351,0.0
-1.1202265321385638,0.39238226117390207,2.08383999028147,-0.17538452615417416,1.023134413713827,0.9096276935198588,0.0
-1.1292781025191294,0.36306605705684103,2.0429376170854234,-0.3680914302408205,-0.02884800950655521,0.5594037133644904,0.0
-1.1896217466125556,0.3190917588994998,2.0049570465398627,-0.6330634008060094,-0.24451480833617337,0.08902989134582841,0.0
-1.2077248609664069,0.2702314169225646,1.993270654198135,-0.7252275800317152,-0.05797343178623312,-0.08224753218539832,0.0
-1.1715186586659836,0.201826953122256,2.086761588366902,-0.5508487755587758,-0.4164934906622717,-0.2450036851765113,0.0
-1.1926389367394106,0.09922024673079281,2.1451933455104863,-0.28168752179716033,-0.7347927049347593,-0.1853548329684639,0.0
-1.3284122019678188,0.09922024673079281,2.1335071577338116,-0.132968062531674,-0.11830465640156718,0.8286756545683389,0.0
-1.3284122019678188,0.09922024673079281,2.1335071577338116,-0.13872832293491072,-0.017059149718685298,1.0033616071019864,0.0
-0.9422126843560226,0.09433420291119858,2.148114943595918,-0.07693643969796693,-0.1737816496089539,0.09925540819907445,0.0
-1.1202265321385638,0.06501802552163877,2.148114943595918,0.15295031603194756,0.7457494815088871,0.09584690258132578,0.0
-1.1202265321385638,0.06501802552163877,2.148114943595918,0.09796603156148488,0.5404845829591604,0.09499477552731438,0.0
-1.123243722265419,0.07479007039682499,2.1159775692212204,0.05502589157203342,0.11261831217688296,0.04216293455476452,0.0
-1.1262609123922744,0.25068728440819077,2.110134373050357,0.027795576343099277,0.1729495410212163,0.1094809276506174,0.0
-1.2047076708395519,0.23602919571341086,2.1218207653920844,-0.071699835702434,0.11955293632780631,-0.09588155465639303,0.0
-1.2047076708395519,0.23602919571341086,2.1218207653920844,-0.10783238091725388,0.15283912717743928,-0.09417730054837029,0.0
-1.213759214812838,0.22625712945622392,2.136428755819243,-0.0842676789047538,-0.1266262104574743,0.09584690258132578,0.0
-1.213759214812838,0.22625712945622392,2.136428755819243,-0.0952645409084137,-0.30831335559946715,0.08562138442893129,0.0
-1.1141921518848537,0.27511746074215865,2.095526382623197,-0.10259578011520057,-0.3214891241473246,0.007225746126672545,0.0
-1.2077248609664069,0.1920548868650691,2.15103654168135,-0.15862740454564744,0.0009708713821156902,0.06772672863660227,0.0
-1.2439310632668308,0.211599019379443,2.124742363477516,-0.2743562762034143,0.12163332484178309,0.08476925867406834,0.0
-1.2439310632668308,0.211599019379443,2.124742363477516,-0.2769745718142215,0.12579409764073737,0.10351604087083453,0.0
-1.225827948912979,0.24580126197059776,2.113055971135789,-0.1827157669577008,-0.17863588101690137,0.18020742376592205,0.0
-1.198673316993121,0.2848895269993455,2.1218207653920844,-0.1392519825360941,-0.36240340621487255,0.20747546870791153,0.0
-1.1805702290465494,0.2604593506653777,2.101369578794061,-0.18062112535948766,-0.0683753658981185,0.15208725176992122,0.0
-1.1534155707194118,0.2604593506653777,2.104291176879493,-0.12040022092609404,-0.11830465640156718,0.21344035808599124,0.0
-1.213759214812838,0.24580126197059776,2.1685661301939416,-0.2005202077685943,-0.3790465143266866,0.36852737798418905,0.0
-1.3163434678676773,0.34352192454246716,2.1685661301939416,-0.20209118896725417,0.019000892482916688,1.2359921577356585,0.0
-1.271085721593968,0.069904069341233,2.104291176879493,-0.36547313463001324,0.20138150046290193,0.6054185534947303,0.0
-1.0779859759917096,0.22137108563662994,2.101369578794061,-0.2502679105978813,0.08210596633572018,0.6258695612182537,0.0
-1.0779859759917096,0.22625712945622392,2.136428755819243,-0.14187028293712076,0.09458829107608199,0.7673225898250194,0.0
-1.1473811904657014,0.1969409306846631,2.0546240094271515,-0.08636232050296695,0.1507587386634625,0.3489284661351146,0.0
-1.1564327080317078,0.201826953122256,2.0896831864523335,-0.011478934462520012,0.2540846423183196,0.4750432077696751,0.0
-1.1654842784122734,0.22625712945622392,2.1159775692212204,0.002136235925865573,0.36226477738112406,0.227074380556986,0.0
-1.1141921518848537,0.1969409306846631,2.010800242710726,-0.006765984479581141,0.40387251382866574,-0.36685778114782736,0.0
-1.2469482533936858,0.23602919571341086,1.9757410656855443,0.11053385560292708,0.3525562807332355,-0.5577341165281284,0.0
-1.301257543640681,0.24091521815100378,1.9698978695146803,0.206887318025059,0.26934080783815234,-0.6651020214016886,0.0
-1.3706527845219523,0.22625712945622392,1.9552898790875208,0.1356695547814851,0.4017921168566905,-0.6676584129569103,0.0
-1.3706527845219523,0.201826953122256,1.9640546733438167,0.2225971172377393,0.9322908411428305,-0.44440127031055104,0.0
-1.2590169874938266,0.2848895269993455,2.034173027394181,0.2503510864792677,0.9877678005182231,-0.39327368864261786,0.0
-1.2469482533936858,0.29954762638512594,2.0370946254796127,0.2205024756395261,0.8920700134552763,-0.17257293755148057,0.0
-1.2167764049396932,0.3288638251566868,2.1451933455104863,0.08539818197220597,0.5488061370150674,0.1367489751909037,0.0
-1.1835873663588454,0.29954762638512594,2.215311699560851,-0.28168752179716033,0.2020749548428957,0.3395550789341768,0.0
-1.2288451390398343,0.2653453944849717,2.2474490739355484,-0.6948552896315425,0.2547780966983134,1.1039125371162055,0.0
-1.262034177620682,0.1920548868650691,2.232841288073443,-0.7791645820248264,0.27211465919012134,1.1328848361662176,0.0
-1.2016904807126967,0.22137108563662994,2.294194643302458,-0.6969499567775926,0.06338248345417674,1.3842621196290148,0.0
-1.2439310632668308,0.211599019379443,2.235762681593822,-0.5875049652057509,-0.05936035746221762,1.2981973807125522,0.0
-1.2077248609664069,0.14808057801672733,2.194860512962828,-0.4037003118626075,0.017613966806932186,1.112433786869944,0.0
-1.2680685314671127,0.11876437924516657,2.101369578794061,-0.31467809503422156,0.40525942258865333,1.1874209676229468,0.0
-1.2288451390398343,0.10899231298797944,2.095526382623197,-0.18533406576198766,0.5099722519194948,0.8627607367287948,0.0
-1.213759214812838,0.08456215803601276,2.101369578794061,-0.07641277929841364,0.37127978581702487,0.6539897436074421,0.0
-1.2771200754403986,0.18716886442747618,2.2007037091336907,0.016275047552926764,0.06754325731038086,0.4886771990611075,0.0
-1.3616012405486662,0.23602919571341086,2.194860512962828,0.09587138996327185,0.2520042453463443,0.4349932258379523,0.0
-1.292205999667395,0.13342248932194747,2.1714877282793728,0.14090614600309967,0.6237000896862372,0.4886771990611075,0.0
-1.358584050421811,0.211599019379443,2.1159775692212204,-0.02509409207698713,0.45726911006407717,0.3668231238761663,0.0
-1.4098761769492307,0.24091521815100378,2.080918392196038,-0.06489225689520044,0.20138150046290193,0.5653686131357575,0.0
-1.3706527845219523,0.38261019491671516,2.086761588366902,0.16394717803560752,-0.05797343178623312,0.7238641412500011,0.0
-1.6210790286530656,0.3874962280453086,2.095526382623197,0.15923424082658708,-0.17100779825698492,1.3936355276163275,0.0
-1.3857387087489488,0.2702314169225646,2.194860512962828,-0.30891783702609465,-0.1009680939097592,1.786465922831391,0.0
-1.0508313176645723,0.17739679817028922,2.238684279679253,-0.09683551891359396,-0.701506488711131,0.9190011015071715,0.0
-0.9995391911371526,0.050359936826859054,2.197782111048259,0.034079488363820284,-0.5239801375130886,0.6940396839664147,0.0
-0.9995391911371526,0.050359936826859054,2.197782111048259,-0.189523348958414,-0.27849447893979556,0.32932955428604016,0.0
-1.3344465822215288,0.211599019379443,2.15103654168135,-0.23246346978698781,-0.3131675700914176,0.2287786346650087,0.0
-1.3374637459411045,0.24580126197059776,2.0750751960251743,-0.517334535535202,-0.1994397492406721,0.6164961948036907,0.0
-1.3374637459411045,0.24580126197059776,2.0750751960251743,-0.6225902183627805,-0.4220411933662097,-0.1384878761774,0.0
-1.0719515957379993,0.12853644550235355,2.060467205598015,-0.5780790907877101,-0.38459421703062485,-0.34385038186908223,0.0
-1.0719515957379993,0.12853644550235355,2.060467205598015,-0.5215238187316282,-0.2500625110401114,-0.49041611044079125,0.0
-0.9723845328100152,0.06501802552163877,2.095526382623197,-0.36285482624528753,-0.2424344113641981,-0.7315679524009522,0.0
-0.9391954942291673,-0.04247472468941824,2.0546240094271515,-0.5377572719569026,-0.6009544871562338,-1.685949587729708,0.0
-0.9935048108834422,-0.14508143108088162,2.0137218407961583,-0.7189436807849124,-0.41926734201424076,-1.8844950562029241,0.0
-1.195656126866266,-0.10599316605213402,1.990349056112703,-0.7089941268064407,-0.1994397492406721,-1.334873532486266,0.0
-1.2861716458209642,-0.14508143108088162,1.9319172989691191,-0.2953026794116275,-1.0315946304354764,0.553438813593223,0.0
-1.5969415588023284,-0.19394174098481548,1.9377604951399827,-1.4059856651377673,-3.765223192461308,2.0702238888419955,0.0
-1.6693539683545402,-0.31120657883506053,1.5930125347541821,-1.7783079856765847,-5.525230911073832,2.999041941200535,0.0
-0.7491129387537644,-0.027816635994638433,1.753700122605355,-1.964207331713615,-3.3096185561743146,0.46226129156631685,0.0
-0.42929141908182533,-0.14508143108088162,1.9173093085419597,-1.8065855578350338,-2.5183780754590366,-0.47422572759413734,0.0
-0.6797176714652137,-0.14996743213647354,1.981584261856408,-1.9621126134718911,-2.665391892625449,-0.08480391334743248,0.0
-0.8969549380823132,-0.2134858734991894,1.9027013181148005,-1.9076519830140233,-4.046075565726187,-0.05753586840544307,0.0
-0.6012709394252156,-0.4431294198520818,1.6923466650938124,-2.110308461836758,-1.9712361077331064,-1.7745707182013923,0.0
-0.22110582847440938,-0.5506222128271411,1.651444394180293,-2.2569332204246586,-1.8866336584140477,-3.3603782407229,0.0
-0.2090370679669886,-0.7802657591800336,1.7127978516918356,-2.7496972412519574,-5.013455691871482,-3.6833339888589047,0.0
-0.4654977006040872,-0.7314054065120982,1.7390921321781956,-3.1199250479317455,-7.756792479889252,-2.479279386534499,0.0
-0.7340269881194884,-0.6239126990650428,1.6718955807783158,-3.413174565107546,-8.734574455566449,-1.0085089851249656,0.0
-0.7732504069540466,-0.5848244340362949,1.3972658721603535,-4.633302670144713,-9.948826912221067,0.40516881012711614,0.0
-0.5077382567509415,-0.6532288764546026,1.0349885278270146,-5.765455674769905,-8.393390976098214,1.4524322839499262,0.0
-0.07929810377045285,-0.7069752729421318,1.9669762714292487,-3.7729291893441057,-7.299107311302306,0.29865300112800514,0.0
0.1288874868369631,-0.6532288764546026,1.8617989449187544,-3.1445370164542,-7.12227478663619,-0.41628112949411283,0.0
0.3431075633272078,-0.921960773364247,1.6923466650938124,-3.0654644174738777,-5.239524323317003,-1.3476553239713738,0.0
0.27974678192148533,-1.117402012979981,1.0408317239978784,-3.9431186595249463,-4.451750945341726,-1.5470530338236643,0.0
0.19828285975463195,-1.2884132045537546,0.661024740010685,-3.990248082710824,-2.97328929119803,-1.08605255743319,0.0
0.10475007145123992,-1.3275015551105063,0.7282213425518281,-3.2429850949267074,-1.4594608885307558,-0.6497637552158585,0.0
0.3793138448494699,-1.6597518506188642,0.8772225380612735,-2.4391669628256945,-1.8256089963347168,-0.9471559203816461,0.0
0.3793138448494699,-1.7477004683155477,0.48865083652967956,-2.6606750882931633,-2.200772112574579,-0.6310170223867332,0.0
0.3853482251031798,-1.7330423368567658,0.45067013813096035,-2.1548195383161555,-1.4150792668992513,-0.28164511731943837,0.0
0.3913826053568904,-1.7232702492175778,0.3863951081046175,-2.0422326737644227,-2.2798267915257107,-1.022143017989148,0.0
0.5784479707054387,-1.6695239382580522,0.5178667406721034,-1.6123077475964982,-2.3353039538930687,-1.9143195134865103,0.0
0.6931009842676982,-1.8112188669142613,0.5675338058419186,-0.8619028357368174,-0.908851750400839,-3.050203951490004,0.0
0.47888090777745373,-1.6939539863000135,0.48865083652967956,-0.23089248858832795,-0.8672440139532975,-3.0152668773869764,0.0
0.5211213582951902,-1.7379283806763597,0.3104337113071788,-0.3261986238243941,-1.6432284306447242,-3.541028802018565,0.0
0.2375061201455129,-1.2737550730949723,0.2958257720212827,-1.1074994545490044,-3.200745034395504,-2.8133127759794627,0.0
-0.3659306376761031,-0.8535562454179353,0.7603588703503155,-0.34033744822537376,-7.613245765462838,0.39920393114222413,0.0
0.20733421887696143,-0.7460635379708799,0.30459054070694674,-0.7110887428568169,-7.5619299383513345,0.5568473218092687,0.0
0.20733421887696143,-0.7460635379708799,0.30459054070694674,-0.5000537487369027,-5.873349137333967,0.6088270617107758,0.0
0.33405599294664234,-1.3617036907916562,-0.09566755316637474,-0.324627636238775,-5.129263960442194,0.04983207284427326,0.0
0.17112814861293557,-0.8584422892375292,-0.2914142157602036,-0.5885523243266126,-2.7888283285360633,0.003817243107220742,0.0
0.33103880281978704,-0.6287987428846367,-0.08982436978082678,-1.1546287755435347,-2.8408378468515156,-0.20069311994066896,0.0
0.1771625288666457,-0.8144679803891872,0.11760865958409775,-1.257266188308143,-4.331782153483015,-0.4793384691318307,0.0
0.3853482251031798,-1.000137303421742,-0.2826494215039079,-1.1572471222500158,-3.7243089442257538,-1.5070030103191911,0.0
0.2887983523020508,-0.6776590955525724,-0.3089437531315315,-0.6707669495738466,-1.8131267498308412,-2.185295688012007,0.0
0.3370731830734972,-0.3307506685854326,-0.3527676477011144,-0.7451266368929848,-2.2486209722740584,-3.5691492754170033,0.0
0.5392244990563209,-1.107630096396802,-0.62155410900695,-0.8132024760609943,-1.8304632108266674,-6.551592010537617,0.0
0.41250272498664,-1.1906924992178831,-0.5426711141240794,-0.9886285885591218,-0.8630832200093469,-5.497511270846214,0.0
0.4487090065089023,-0.8731004206963111,-0.4754745115829364,-0.2733089554043077,-1.2313117247852832,-3.1558679140511687,0.0
0.6146540409694644,-0.4382434615604918,-0.6127893147506545,-0.11045067972154071,-1.3817930506756229,-2.3659465818896717,0.0
0.32198723243922156,-0.433357417740898,-0.5105335863255923,0.3069063585353493,-0.6675268519395027,-0.6812924458210926,0.0
0.1771625288666457,-0.5750523463971068,-0.530984721782352,-0.28221117580975447,-0.8263297657177435,-0.7486104519084298,0.0
0.1771625288666457,-0.9903652157825542,-0.5835733850375989,-1.3190580260380025,-0.36864456329880435,-0.655728696559876,0.0
0.14699062759809428,-0.6825451393721662,-0.5718870438371346,-1.7138978012402448,-0.07808384563001011,-0.9028453551458038,0.0
0.2827639720483404,0.12365042306476055,-0.50176884321056,-1.1802882053781976,0.4399325475722693,-0.3634492729317818,0.0
0.5422416891831755,0.0063856279785172295,-0.6273972540365504,-0.8838965597441372,0.6202327839542747,-0.3864566722105266,0.0
0.6086196607157542,-0.42847137392130413,-0.6858291134626611,-0.9085085793622643,0.7034482568493579,-0.32936423234407614,0.0
0.563362020071162,-0.05224676956460441,-0.6069461185797907,-0.7283695552029532,0.37960133987293215,-0.16234741290334384,0.0
0.3793138448494699,0.08944820185560665,-0.6127893147506545,-0.2795928801989472,0.581398865026708,0.30887852577614183,0.0
0.22242016951123728,-0.25257413852793703,-0.6595347818350377,-0.356047247438054,-0.7757070208343011,0.188728694306036,0.0
0.22242016951123728,-0.25257413852793703,-0.6595347818350377,-0.6540098167881411,0.17364300385920856,-1.2181321780526428,0.0
0.6357743718574503,-0.45290150749126973,-0.7179666412611482,-1.0551334401415122,0.5058114918075384,-0.6412425054621196,0.0
0.49396685841172955,-0.06201885720379219,-0.6478484406345736,-1.1331587821923197,0.953788163746595,-0.7477582936748557,0.0
0.49396685841172955,-0.06201885720379219,-0.6478484406345736,-0.8189627468430399,1.4246490670494036,-2.3386785161613073,0.0
-0.09740124453158376,-0.05224676956460441,-0.6770643192063656,-0.7236565924460961,0.3844555543648824,-3.287095127000546,0.0
0.6086196607157542,-0.27211831380631296,-0.3936699186146341,-0.040803891289667465,-0.8963694362329753,1.2641122985520967,0.0
0.6086196607157542,-0.27211831380631296,-0.3936699186146341,0.363985335699699,-0.11067657364165084,-0.42821088746389757,0.0
0.6086196607157542,-0.27211831380631296,-0.3936699186146341,0.8378977098822631,-0.905384444668876,-0.8133720664405454,0.0
0.30388409167809044,-0.05224676956460441,-0.7121234450902847,1.4338227719389267,-0.38667461400260017,-0.4418449203280798,0.0
0.029320423908979053,-0.2232579611383772,-0.6478484406345736,0.8724592323831881,0.12163332484178309,-0.6855530706979619,0.0
0.15604219797865973,-0.091335034593352,-0.5864949831230308,-0.15862740454564744,0.5973485187585286,-0.7145253697479741,0.0
0.32198723243922156,0.04058784918767089,-0.7384177767179082,0.4598151185614,-1.3159141741043416,0.22281374528692902,0.0
0.563362020071162,0.29466159325653246,-0.7238097862907487,0.8787431827256645,-1.6397610572487735,1.71403505048811,0.0
0.39439979548374526,-0.06201885720379219,-0.6624563799204696,0.6713737922417454,-0.1550581614411614,2.8891176031990033,0.0
0.39741698561060035,-0.19882778480440932,-0.5572790534099755,-0.6529625087629529,-0.07114921725008753,1.155892277017713,0.0
0.4517261966357571,-0.10110712223254018,-0.5514359083803752,-0.43930919348439457,0.42745023340440563,2.4681670671675024,0.0
0.5935339213397156,-0.4480154636716759,-0.6624563799204696,-0.5377572719569026,1.3192427833385683,1.9943847161464197,0.0
0.9284411803876924,-0.1841696961096296,-0.8026927811736193,-0.7137070384676242,1.6236728085151986,1.3033101638229958,0.0
0.9284411803876924,-0.1841696961096296,-0.8026927811736193,-0.470728791909755,2.3240697843234677,0.41369008066723023,0.0
0.5512932595637426,-0.4919897725200176,-0.62155410900695,-0.6210192307771616,2.109096558285822,0.4298804843002592,0.0
0.5512932595637426,-0.4919897725200176,-0.62155410900695,-0.6608173955953747,1.6035623946714215,0.27905408927893066,0.0
0.5814651608322934,-0.6336847867042307,-0.566043847666271,-0.33300620263162767,1.221464666967634,-0.05157097902736331,0.0
0.4577605768894675,-0.3551808876834024,-0.46963131541207265,0.2990514717029276,1.576517369363719,0.39068266060211027,0.0
0.4577605768894675,-0.3551808876834024,-0.46963131541207265,0.7232161270888068,1.9794190667872589,0.32166042119312516,0.0
0.4577605768894675,-0.3551808876834024,-0.46963131541207265,0.6598532506776545,2.24709550234431,0.2773498351709079,0.0
0.47284652752374356,-0.30632053501546663,-0.5163767824964558,0.21893148805390714,1.610497006135347,-0.05327523313538612,0.0
0.46379495714317837,-0.3796110212533684,-0.44918017995531284,-0.15286714414241076,0.7006744393293828,0.0004087348911751645,0.0
0.46379495714317837,-0.3796110212533684,-0.44918017995531284,-0.530949693149669,-0.27710753634781404,0.19213719212889396,0.0
0.5693964003248716,-0.3551808876834024,-0.326473316073491,-0.42569403586992727,-0.7770939295942885,0.4085773183431618,0.0
0.6357743718574503,-0.3014344911958728,-0.4228858483276892,-0.24136569019243456,-1.338798405468094,1.1362933028095132,0.0
0.6357743718574503,-0.3014344911958728,-0.4228858483276892,-0.2853531382070742,-1.0808303988949433,1.5282715397910023,0.0
0.6357743718574503,-0.3014344911958728,-0.4228858483276892,-0.1560091041446208,-0.3124741157114238,2.2875161732898373,0.0
0.6357743718574503,-0.3014344911958728,-0.4228858483276892,0.5519792977871055,0.6146850812503365,2.3113757723749067,0.0
0.7715477163076963,-0.0766769458985723,-0.4258074464131213,0.6216260734450604,0.7069155625813205,0.261159431537879,0.0
0.7715477163076963,-0.0766769458985723,-0.4258074464131213,0.6200550858594412,0.6861117281895437,-0.26034197214871607,0.0
0.5935339213397156,-0.4626735951304578,-0.5748086419225666,0.060786162354078965,0.6958201571734444,-0.36089288137655995,0.0
0.2887983523020508,-0.5017618601592053,-0.40827790904179334,-0.6566281123989484,0.765859895352664,-0.2492643308397556,0.0
0.2887983523020508,-0.5017618601592053,-0.40827790904179334,-0.8676631065188628,1.1167518038047985,-0.32254721591198515,0.0
0.4275886756209163,-0.3307506685854326,-0.46670971732664074,-0.9435938325192941,1.0883198697371081,-0.16234741290334384,0.0
0.5150869780414798,-0.31609262265465476,-0.46378811924120894,-0.8053475892285725,1.1722288308441793,0.0915862699095657,0.0
0.5150869780414798,-0.31609262265465476,-0.46378811924120894,-0.2073277897693075,1.9461328505636306,0.5372484307465691,0.0
0.5331901188026112,-0.4480154636716759,-0.22129601513362843,0.4263008529899894,2.0494587373024906,1.114990178425166,0.0
-0.6767004813383586,-0.3551808876834024,0.12929502635519358,1.7783911487840525,0.11331177501487523,6.1433882553511845,0.0
0.20130004988148703,-0.5457361690075472,-0.25927668796171616,0.9243016183259233,-1.2222967163493823,5.901384961894203,0.0
0.20130004988148703,-0.5457361690075472,-0.25927668796171616,-0.2277505325779674,-2.809632027599864,4.856677713335614,0.0
0.5512932595637426,-0.6287987428846367,-0.42872904449855304,-0.16543498494962083,-2.849852855287418,4.997278417417805,0.0
0.8017194063180112,-1.1222880567995754,-0.3177085473878269,-0.470728791909755,-0.11899812769755792,2.670973077372088,0.0
0.8047365964448683,-1.3177294674713185,-0.44918017995531284,-0.6037384695266991,-0.07114921725008753,0.9999531404586911,0.0
0.8047365964448683,-1.3177294674713185,-0.44918017995531284,-0.6650066787918012,0.17711030959117136,-0.4503661700818185,0.0
0.4517261966357571,-1.3372736427496943,-0.4316506425839849,0.291196584870506,0.7519906047608248,-0.6574329298815237,0.0
0.32198723243922156,-1.1516043197171388,-0.35861081830134667,0.07073569078471385,0.6555993294858905,-0.46059169472995504,0.0
0.32198723243922156,-1.1516043197171388,-0.35861081830134667,0.02517726795837355,0.1251006348027451,-0.269715359349654,0.0
0.33103880281978704,-0.9757070843237723,-0.25343351736148406,-0.29896829582154133,-1.0676546641790798,-0.03197206717828886,0.0
0.3702622744689037,-0.838898199487157,-0.2768062509036759,-0.4052712994482265,-1.3713912011437224,-0.04219759182642555,0.0
0.4064683447329303,-1.117402012979981,-0.46378811924120894,0.2812470308920341,0.18889916937904125,-0.3259557241280308,0.0
0.4064683447329303,-1.117402012979981,-0.46378811924120894,0.9908064188126399,1.913540054888002,-1.2752246179190931,0.0
0.27974678192148533,-1.0734277896596438,-0.4404153856990174,1.534889197117916,2.0016098776030113,-1.4797349445908266,0.0
0.13190467696381844,-0.6727730517329785,-0.3790619793287379,0.08801647758301326,1.1535053257603896,-1.972264111586535,0.0
0.2978499226826163,-0.6923171414833501,-0.19208008542057325,-0.4173154694770746,0.07031710654785027,-1.5964762158789492,0.0
0.2978499226826163,-0.6923171414833501,-0.19208008542057325,-0.7042811640495834,-0.11206349931763533,-1.0570802583831778,0.0
0.2978499226826163,-0.6923171414833501,-0.19208008542057325,-0.27278530139171364,0.7089959595532958,-2.539780376189745,0.0
0.1288874868369631,-0.8877584666270889,-0.4170426521568256,-0.15077250394134492,1.5938539656875208,-3.6594745560648363,0.0
0.6599118928722919,-0.8046959782780038,-0.3790619793287379,-0.3659967886426073,1.143103408564501,-1.7558239022267663,0.0
0.6599118928722919,-0.8046959782780038,-0.3790619793287379,-0.6325397723412522,0.5155199546234329,-2.39406672270611,0.0
0.41551991511349573,-0.5213060354375812,-0.19500168350600505,-0.9765844185302739,-0.07600345711603336,-2.3446433743598245,0.0
0.32802161269293173,-0.6972031853029441,-0.2768062509036759,-0.6152589599951159,-0.015672228271700017,-3.2402283365004827,0.0
0.3853482251031798,-0.5164199916179874,-0.16286415570751786,-0.3680914302408205,-0.5600401712566918,-3.937267663876921,0.0
0.3853482251031798,-0.5164199916179874,-0.16286415570751786,-0.1287787825287273,-0.7472750191026231,-2.254317927420992,0.0
0.6237056113500287,-0.2134858734991894,-0.17162894996381328,0.21369489683229256,-0.4664227811657205,-0.5287618174781162,0.0
0.5784479707054387,-0.29654844737627883,-0.27972784898910763,0.5346984854409693,-0.11067657364165084,0.12567132868534941,0.0
0.5784479707054387,-0.29654844737627883,-0.27972784898910763,0.8007178406748571,0.6424235947700269,-0.08480391334743248,0.0
0.39741698561060035,-0.4235853301017099,-0.323551717988059,0.6802759870993551,0.2346676828545364,0.1418617323183783,0.0
0.3913826053568904,-0.30632053501546663,-0.323551717988059,0.31371393734258307,0.5030376404555693,0.4937899821715508,0.0
0.6689634632528562,-0.17928365229003537,-0.3527676477011144,-0.2335107905860944,0.10429676234997509,0.7272726494660466,0.0
0.6689634632528562,-0.17928365229003537,-0.3527676477011144,-0.05808467808796687,0.768633712872639,0.8934372691004547,0.0
0.6870666040139876,-0.4235853301017099,-0.2768062509036759,-0.08007839570832746,0.8171760607841064,1.2104283253289414,0.0
0.6719806533797112,-0.6776590955525724,-0.35861081830134667,0.2775814272560389,1.6139643795312977,1.1865688093893727,0.0
0.5543104496905977,-0.3893831088925561,-0.2680414822180118,0.039316092359353134,1.7089686783822569,1.0783487047094886,0.0
0.31293566205865586,-0.3698389336141802,-0.1219618720086824,-0.013049909274220665,1.2006608325758572,0.5363963140857453,0.0
0.31293566205865586,-0.3698389336141802,-0.1219618720086824,-0.2010438681681476,1.3192427833385683,0.9641638249765878,0.0
0.5362073089294658,-0.5017618601592053,-0.07229481962418308,-0.08583866010341366,0.8594772854436356,0.591784520630548,0.0
0.5362073089294658,-0.5017618601592053,-0.07229481962418308,-0.21518268937564763,0.05991517137871506,0.19724995445296234,0.0
0.5090525977877697,-0.5115339477983936,0.0036665707805976816,-0.27278530139171364,-0.3339714721471823,0.19298931918290538,0.0
0.5090525977877697,-0.5115339477983936,0.0036665707805976816,0.009991135532205727,-0.21192208032453275,0.056649084079770616,0.0
0.6508603224917243,-0.6630009640937905,-0.2417471505903882,0.31371393734258307,0.6181523869822992,-0.2586377180406936,0.0
0.49094966828487446,-0.4431294198520818,-0.13949143495064192,0.5064208621868467,1.1860980537720305,-0.4060556048459763,0.0
0.49094966828487446,-0.4431294198520818,-0.13949143495064192,0.08277988636139869,0.431610993516362,-0.14615700927031497,0.0
0.5211213582951902,-0.5261919937291712,-0.019706162761593954,-0.07536545849930705,0.04327207383939896,-0.06264862033632386,0.0
0.5211213582951902,-0.5261919937291712,-0.019706162761593954,-0.0727471565015406,0.007212032695046791,-0.10525495225051835,0.0
0.47888090777745373,-0.4919897725200176,-0.08105958830984701,-0.021428475667073333,0.27142118789413067,-0.15979104213449724,0.0
0.5512932595637426,-0.5310780375487651,-0.08105958830984701,-0.06960519410422085,0.05575439705996415,-0.4452534285441251,0.0
0.5512932595637426,-0.5310780375487651,-0.08105958830984701,0.05450223755943952,0.19583379775896387,-0.9122187631331167,0.0
0.5030182175340591,-0.5408501251879534,0.02411771582634432,0.08592183598480004,-0.19735936918469374,-1.4030435305161764,0.0
0.5030182175340591,-0.5408501251879534,0.02411771582634432,-0.005195009667880511,-0.21677631173247994,-1.600736923901319,0.0
0.5030182175340591,-0.5408501251879534,0.02411771582634432,-0.20680412936975417,0.27766236189405946,-1.2181321780526428,0.0
0.4366402460014817,-0.45778755131086396,-0.03431412122546374,-0.2214666077833279,0.14798489576949195,-0.7997380335763631,0.0
0.620688421223174,-0.28189031591749675,-0.06645163623863516,0.098489685574079,0.17433646669720082,-0.6872573040196096,0.0
0.6387915619843054,-0.3209786664742487,-0.019706162761593954,0.12257805117961207,-0.3027656528955292,-0.6080095815352381,0.0
0.566379210198017,-0.25746018234753093,-0.019706162761593954,-0.05337173449198726,-0.6377080091118251,-0.7111169031046786,0.0
0.5482760694368876,-0.22814400495797113,-0.06937322153875121,-0.11463995972448744,-0.4456189129419495,-0.7579838598957427,0.0
0.5844823509591484,-0.2379160498331573,-0.13072665347966217,0.012609431143012965,0.15214566433944698,-0.7281594026121564,0.0
0.6478431323648697,-0.25746018234753093,-0.11904028670856635,-0.12249486092756741,0.29014467606192323,-0.3864566722105266,0.0
0.6568947027454368,-0.2134858734991894,-0.142413020250758,-0.21046975216662722,0.4683645154719533,0.005521497215243536,0.0
0.6237056113500287,-0.22814400495797113,-0.028470937839915837,0.013656751942119549,0.1077640765399364,0.29609663035915856,0.0
0.6508603224917243,-0.2232579611383772,-0.07521640492429911,0.046123671166586847,-0.04133033213241738,0.4034645560190936,0.0
0.6508603224917243,-0.25746018234753093,-0.08398118639527888,-0.09631185851404067,0.04119168743992181,0.4153943347752531,0.0
0.563362020071162,-0.2916624035566846,-0.07229481962418308,-0.2450313129893076,0.14521104441752292,0.4545921584734019,0.0
0.524138548422045,-0.28189031591749675,-0.08690277169539495,-0.22408490978109438,0.48986183807571787,0.4170985888832759,0.0
0.48793247815801916,-0.25257413852793703,-0.06937322153875121,-0.16124570494667412,0.5897204190826152,0.30717427166811906,0.0
0.4577605768894675,-0.27211831380631296,-0.005098204297724195,-0.08007839570832746,0.2582454024302762,0.12396707457732661,0.0
0.5181041681683349,-0.27211831380631296,0.0007449790878237374,-0.1827157669577008,0.030096289432794354,0.13419259402886954,0.0
0.5362073089294658,-0.28189031591749675,-0.040157304611011656,-0.25236255219609444,-0.08917923412188929,0.227074380556986,0.0
0.524138548422045,-0.30632053501546663,-0.046000487996559564,-0.22408490978109438,0.022468202443878735,0.08988201710069137,0.0
0.5422416891831755,-0.31609262265465476,-0.05768685476765538,-0.25917013100332803,0.09944252671302853,0.11800219039584064,0.0
0.5422416891831755,-0.31609262265465476,-0.07229481962418308,-0.2293215137766273,0.17433646669720082,0.2287786346650087,0.0
0.54525887931003,-0.29654844737627883,-0.040157304611011656,-0.1780028265552008,0.049513235680954955,0.261159431537879,0.0
0.5362073089294658,-0.2916624035566846,-0.040157304611011656,-0.1172582617222539,0.039804762821187105,0.2040669708850535,0.0
0.54525887931003,-0.28677635973709065,-0.037235712918237705,-0.12092388132564733,0.04119168743992181,0.1699819095109729,0.0
0.5603448299443073,-0.3258646247658384,-0.07813800300973098,-0.184810408555914,0.09666867536105953,0.1759467884958651,0.0
0.5784479707054387,-0.34052275622462036,-0.040157304611011656,-0.13611002253388405,0.14521104441752292,0.12907983690139496,0.0
0.5784479707054387,-0.34052275622462036,-0.040157304611011656,-0.11359263892538086,0.21733113727872538,0.1410096052643669,0.0
0.6146540409694644,-0.3209786664742487,-0.08105958830984701,-0.08636232050296695,0.40387251382866574,0.15123512471590983,0.0
0.6025852804620445,-0.30632053501546663,-0.10151073655192262,-0.009384292864306846,0.9898481974901985,0.17253829067300705,0.0
0.6086196607157542,-0.31120657883506053,-0.10151073655192262,-0.020904808880560823,1.3234035772825188,0.2858711057110218,0.0
0.5935339213397156,-0.28677635973709065,-0.051843671382107465,-0.09316989931020055,1.143103408564501,0.3361465707181313,0.0
0.5573276398174523,-0.29654844737627883,-0.022627754454367918,-0.5770317827625219,2.4551342522460056,0.227074380556986,0.0
0.5301729286757562,-0.33563671240502646,0.35425760587676186,0.15033202042114027,0.6181523869822992,0.10351604087083453,0.0
0.5573276398174523,-0.3307506685854326,0.056255227243645664,0.12414901321739433,1.0543402329654799,-0.05327523313538612,0.0
0.5000012386654397,-0.30632053501546663,0.0971575145383511,0.07544862799373421,0.6049765846024479,0.018303392632226866,0.0
0.48793247815801916,-0.30632053501546663,0.07670637109076893,-0.06908153370466755,0.021774739605886485,0.13760110224491512,0.0
0.5301729286757562,-0.30632053501546663,0.10007910623112505,-0.16491132455006755,-0.2549167593640557,0.12907983690139496,0.0
0.5362073089294658,-0.3258646247658384,0.056255227243645664,-0.1287787825287273,-0.05450611759627182,0.12907983690139496,0.0
0.54525887931003,-0.3454088000442142,0.06794159481382372,-0.00048207245886013023,0.3060943128777466,0.08988201710069137,0.0
0.54525887931003,-0.3307506685854326,0.0650200029212792,-0.10469041851993412,0.17502992953519306,0.14271385937238967,0.0
0.5181041681683349,-0.2770043576259068,0.11176547300222088,-0.1518198239420816,-0.06005382030020988,0.16231276602487038,0.0
0.5181041681683349,-0.30632053501546663,0.12637343466241963,-0.15705642414535748,-0.20013322053666283,0.13930535115634413,0.0
0.5211213582951902,-0.30632053501546663,0.10884388130944694,-0.3445267186478817,-0.42273464774620345,0.10607241943457181,0.0
0.5573276398174523,-0.28189031591749675,0.09423592284557714,-0.40317665785001344,-0.5600401712566918,0.0915862699095657,0.0
0.6086196607157542,-0.11087916710772595,0.041647267581152524,-0.44192748909520163,-0.5309147489770141,0.492937865510727,0.0
0.2827639720483404,-0.4480154636716759,0.012431349055248491,-0.4639212131025215,-0.44145811899799914,0.6105312950324235,0.0
0.41551991511349573,-0.3893831088925561,0.0796279627835429,-0.34086110223796784,-0.06421459732816343,0.5687771213518032,0.0
0.48189809790430876,-0.24768813747234508,0.056255227243645664,-0.2963500002107341,-0.24798211406813625,0.22196161823291757,0.0
0.6297399916037402,-0.5017618601592053,0.006588162473371633,-0.20837511056841407,-0.1349477645133814,0.15208725176992122,0.0
0.6297399916037402,-0.4626735951304578,-0.016784571068820017,-0.14972518379091387,0.15006528428346874,0.12567132868534941,0.0
0.6297399916037402,-0.4626735951304578,-0.016784571068820017,-0.3209620198288611,-0.1432693016532915,0.2185531204100596,0.0
0.47888090777745373,-0.34052275622462036,0.03580408419560461,-0.29896829582154133,-0.25838406509601863,0.28672324315822073,0.0
0.5000012386654397,-0.5603943004663293,-0.01386297937604605,-0.1005011385169874,0.339380512185378,-0.3515195149619974,0.0
0.5000012386654397,-0.5603943004663293,-0.01386297937604605,0.11838876798318569,0.31649624698963197,-0.15723467136565064,0.0
0.5030182175340591,-0.24280209365275113,0.0007449790878237374,-0.3476686810452013,-0.10374194526172825,0.056649084079770616,0.0
0.5724135904517267,-0.42847137392130413,0.012431349055248491,-0.035043633281540504,0.09874906387503628,-0.022598679977351065,0.0
0.5724135904517267,-0.42847137392130413,0.012431349055248491,-0.02038115486796675,0.09181443972411293,-0.00811253045234499,0.0
0.5211213582951902,-0.3747249774337744,0.044568859273926474,0.0052781855492668815,0.2006880291669112,0.04471931311850178,0.0
0.5211213582951902,-0.3747249774337744,0.044568859273926474,-0.006765984479581141,-0.01359183975772324,0.07454374068406741,0.0
0.5060354076609144,-0.3307506685854326,0.03580408419560461,-0.0727471565015406,-0.04549110916037091,0.1469744894458529,0.0
0.5362073089294658,-0.3307506685854326,0.018274532440796416,-0.1397756429356474,-0.10928964796566633,0.12822770984738358,0.0
0.5362073089294658,-0.3454088000442142,-0.01386297937604605,-0.2340344509856477,-0.1294000618094433,0.14271385937238967,0.0
0.566379210198017,-0.3844970650729622,0.0036665707805976816,-0.18062112535948766,0.017613966806932186,0.03449379626525575,0.0
0.6116368508426088,-0.4235853301017099,0.03872567588837857,0.018893355937652467,0.21455728592675635,-0.04134546477241416,0.0
0.5935339213397156,-0.433357417740898,0.03580408419560461,-0.06489225689520044,0.9267431384388922,-0.0004433921628362178,0.0
0.48491528803116435,-0.39426915271215035,-0.08105958830984701,-0.1518198239420816,0.4926356894276869,0.11033305210633187,0.0
0.4668121472700332,-0.28677635973709065,0.08254955447631686,-0.06070297369877411,0.29361199870988286,0.2407084030279807,0.0
0.47888090777745373,-0.3844970650729622,0.09131433115280319,-0.07484179809975378,-0.8852740308250991,0.10095966230709724,0.0
0.5482760694368876,-0.3551808876834024,0.1205302512768717,-0.2555045145934142,-0.5843113790444195,0.11885431744985203,0.0
0.7655133360539861,-0.33563671240502646,-0.19208008542057325,-0.14082296293638408,0.3275916523975081,-0.09929006287243859,0.0
0.4668121472700332,-0.4089271986429281,0.4068462435613772,-0.4377382058987754,-1.6141030083650463,0.025120403867724225,0.0
0.49094966828487446,-0.4089271986429281,-0.046000487996559564,-0.21204072697832788,-0.4047046308744018,-0.04304971888043696,0.0
0.3581935139614832,-0.31120657883506053,0.2403155106806039,0.019940676736759075,-2.534327560030887,-0.07628264280731856,0.0
0.47586371765059887,-0.3844970650729622,0.13221661804796753,0.057644199956759144,-3.0981125682046433,-0.15212190904158227,0.0
0.6176712310963189,-0.4089271986429281,-0.2972573863604356,0.011562110343906359,-1.1501766488621752,-0.09929006287243859,0.0
0.6840494138871329,-0.433357417740898,-0.2680414822180118,-0.029283375273413466,-0.9067713534288637,-0.04390184593444833,0.0
0.5000012386654397,-0.2916624035566846,-0.11904028670856635,-0.0732708169010939,-1.2396333126731842,-0.22881328154348235,0.0
0.5331901188026112,-0.3307506685854326,-0.043078896303785606,-0.1471068835395816,-1.920613430513652,-0.11207196868260949,0.0
0.5271557385489003,-0.3551808876834024,-0.16870735187838148,0.05502589157203342,-1.4490589036708796,-0.11121983123541054,0.0
0.5030182175340591,-0.3551808876834024,-0.15994258319271762,0.02884289714220572,-1.7208962684998572,-0.004704022236299402,0.0
0.5211213582951902,-0.36495288979458634,-0.16870735187838148,-0.03661460809324113,-1.698705457684105,0.008077873180683927,0.0
0.5844823509591484,-0.36495288979458634,-0.31478694930239515,0.03983975914586567,-1.136307425934324,-0.00811253045234499,0.0
0.5935339213397156,-0.3844970650729622,-0.3469244515302507,-0.006765984479581141,-1.0059365138877614,-0.032824194232300236,0.0
0.5482760694368876,-0.28189031591749675,-0.35861081830134667,-0.13768100293417404,-0.836731682913632,-0.0012955140202538541,0.0
0.4426746262551919,-0.27211831380631296,-0.4404153856990174,-0.058608332100560954,0.07101056938584253,-0.021746552923339692,0.0
0.4215542953672057,-0.3551808876834024,-0.30310058253129923,-0.055466376090200414,0.37682748852096304,0.13163621286683536,0.0
0.3370731830734972,-0.5945965216754826,-0.2271391857338607,-0.12930244133154079,-0.24312789957618583,-0.005556149290310785,0.0
0.47888090777745373,-0.3454088000442142,-0.36445401447221026,-0.24450765258975432,-0.15297778138518317,0.20577121459988876,0.0
0.5693964003248716,-0.2379160498331573,-0.42872904449855304,-0.10102479891654069,0.18959263221703354,0.12652345573936077,0.0
0.5844823509591484,-0.23303000601356308,-0.4316506425839849,-0.12720780133006743,0.36434514052110545,0.2952444929119596,0.0
0.5211213582951902,-0.24280209365275113,-0.3527676477011144,-0.19371262896136074,0.24784346831839082,0.3361465707181313,0.0
0.5030182175340591,-0.4235853301017099,-0.3060221550460995,-0.08007839570832746,0.5924942704345842,0.2015105897230193,0.0
0.4487090065089023,-0.3844970650729622,-0.27096305473281207,-0.07955473530877416,0.2520042453463443,0.025120403867724225,0.0
0.47888090777745373,-0.36495288979458634,-0.2621982860471482,-0.12249486092756741,-0.19111821210076202,-0.04304971888043696,0.0
0.5150869780414798,-0.25257413852793703,-0.36445401447221026,0.06968838275952571,0.21178343457478727,0.4486272587021346,0.0
0.46077776701632256,-0.20371382862400325,-0.37029718507244236,-0.05441905529109382,0.004438181343077748,0.4648176831215386,0.0
0.5573276398174523,-0.34052275622462036,-0.35568922021591465,-0.12092388132564733,-0.28889639613568396,0.43414110917712845,0.0
0.5995683015934252,-0.3991551965317442,-0.3878267224437702,-0.09264623891064724,0.11677908497583726,0.406873064235139,0.0
0.6357743718574503,-0.4235853301017099,-0.3849051243583384,-0.2450313129893076,-0.02468724093660016,0.3727880028610586,0.0
0.566379210198017,-0.3991551965317442,-0.4141210540713938,-0.2665013765970741,0.6022027332504788,0.2833147349421752,0.0
0.47284652752374356,-0.39426915271215035,-0.323551717988059,-0.3382428066271605,0.49402263201966845,0.15975639005942996,0.0
0.5060354076609144,-0.5213060354375812,-0.30310058253129923,-0.14658322353921324,0.5751577079427763,0.05750121113378201,0.0
0.5060354076609144,-0.5066479039787993,-0.2738846528182438,-0.12354218172667399,0.5716904022108135,-0.0686135097144036,0.0
0.4366402460014817,-0.5066479039787993,-0.566043847666271,-0.10259578011520057,1.1444903173244887,-0.2731238675656997,0.0
0.48491528803116435,-0.31120657883506053,-0.3615324163867784,-0.3424320770496685,-0.09750078817779638,0.002112988999197958,0.0
0.5784479707054387,-0.3307506685854326,-0.2972573863604356,-0.4654922006881407,-0.0253807037745924,0.19980633561499653,0.0
0.47284652752374356,-0.20371382862400325,-0.3177085473878269,-0.4628739050773334,0.05436747230907322,0.2875753598190446,0.0
0.47284652752374356,-0.20371382862400325,-0.3177085473878269,-0.4330252686897549,0.002357792829100972,0.37875290263232575,0.0
0.5030182175340591,-0.41869928628211583,-0.2621982860471482,-0.33352985664422174,0.023855128119863258,0.4384017340539979,0.0
0.49698404853858485,-0.4235853301017099,-0.30310058253129923,-0.3235803154396684,0.42120907632047366,0.4315847176219069,0.0
0.5362073089294658,-0.3844970650729622,-0.33523808475915484,-0.2858767922196683,0.5883335103226277,0.5576994384700925,0.0
0.5362073089294658,-0.45290150749126973,-0.2680414822180118,-0.271737980592607,0.423289439460455,0.4418102422700436,0.0
0.563362020071162,-0.4480154636716759,-0.2884926176747715,-0.2858767922196683,0.24090885685446523,0.5653686131357575,0.0
0.5724135904517267,-0.433357417740898,-0.3177085473878269,-0.2502679105978813,0.35741052905717985,0.7136386166018643,0.0
0.5060354076609144,-0.4773317265892399,-0.2680414822180118,-0.09002793691288079,0.37752094290095684,0.4562963917950497,0.0
0.5482760694368876,-0.4480154636716759,-0.3089437531315315,-0.33614816502894734,0.34146090915735333,0.4435145171644415,0.0
0.6568947027454368,-0.29654844737627883,-0.26511988413258,-0.36128383865966857,0.16670837547928596,-0.21943989434254443,0.0
0.8862007298699571,-0.3991551965317442,-0.3410812809300187,-0.14239394333667404,0.0307897522707866,-0.9676069696779194,0.0
0.7534445755465663,-0.3258646247658384,-0.3177085473878269,-0.3042048998170742,0.6812574460336054,-0.2492643308397556,0.0
0.5995683015934252,-0.091335034593352,-0.13072665347966217,-0.26493038901145505,0.4593495070360525,1.3450643375036162,0.0
0.6659462731260015,-0.3893831088925561,-0.19500168350600505,0.00580185233577937,0.28251659330200674,2.9334281684348467,0.0
0.8198225470791426,-0.5555082566467351,-0.43457218952815363,-0.23717641338296744,0.6826443547935929,1.2496261905998407,0.0
0.5543104496905977,-0.6874310976637563,-0.39074832052920205,-0.24346033179064772,1.6354616344710744,-0.6403903472285458,0.0
0.5543104496905977,-0.5603943004663293,-0.21837441704819666,-0.16334034494814748,1.10565646606091,-1.1133205400160542,0.0
0.4487090065089023,-0.5603943004663293,-0.142413020250758,-0.2560281749929675,0.7887441267164161,-2.4562718625375033,0.0
0.6146540409694644,-0.5017618601592053,-0.1570209851072856,-0.27645091780162745,0.7894376149284038,-2.4230389386106217,0.0
0.6146540409694644,-0.5017618601592053,-0.1570209851072856,-1.2672157422866148,2.523786946337263,-0.9428952955047766,0.0
1.3327438123533402,-0.19394174098481548,-0.3819835774141697,-2.283116278724079,3.098667224590918,-1.3681064564131475,0.0
1.3327438123533402,-0.19394174098481548,-0.3819835774141697,-0.9006536925298425,3.343459564112193,-3.514613143960274,0.0
1.3780016642561679,0.14319455557913446,0.08254955447631686,-1.1687676638141067,4.882946015663197,-6.145979657546445,0.0
0.7081867236437388,0.14319455557913446,0.2724530256937752,-0.6163062680203041,5.868356158680293,-5.946582113985155,0.0
-0.0008513717304545259,-0.11576521092731988,0.44774854004552833,0.25611135726131307,4.793489351852188,-3.5129086612021254,0.0
-0.5801506085372293,-0.6141406114258545,0.1994132269817685,-0.06384493609609385,5.472389208048656,-0.07543051575330718,0.0
-0.47756635548238985,-0.4431294198520818,0.021196124133570367,0.5912537830448878,2.9357036521967044,1.398748310726771,0.0
-0.12757304017101734,-0.03270263705023037,-0.037235712918237705,0.2739157980722065,0.970431271858409,0.9488254756452574,0.0
0.0594923251775305,0.25068728440819077,0.06794159481382372,-0.15024884384118034,2.260964725272162,0.26030731487705516,0.0
0.22242016951123728,0.34840795767106064,0.4272974045887685,-0.10573773931904071,4.909297620422899,-0.07031776382242638,0.0
0.39741698561060035,0.21648506319903696,0.47112127358772005,0.036697796748546015,5.771271327529384,-0.22710902743545955,0.0
0.49698404853858485,0.1920548868650691,0.19649164168165245,0.0052781855492668815,2.083438374074119,-0.39327368864261786,0.0
0.46077776701632256,0.14808057801672733,0.11468706469499484,-0.41103154468243513,-0.08155115136197293,-0.49893740176728013,0.0
0.3642278942151938,0.09433420291119858,0.4331405751890008,-0.4812019999008209,0.8525426739797101,-0.10355069814249557,0.0
0.32198723243922156,0.08456215803601276,0.7954179962342344,-0.4586846218809069,2.8261367098698926,0.3395550789341768,0.0
0.3551763238346279,0.1383085117595405,0.9444191917436798,-0.4293596395059227,4.670052915941574,0.5466217971611317,0.0
0.48189809790430876,0.1676247319131023,0.9561054818028808,-0.30472855382966835,4.965467932682305,0.35830185333605247,0.0
0.5362073089294658,0.24580126197059776,0.821712327861858,-0.2691196722078814,4.014037561764811,0.1384532292989265,0.0
0.5422416891831755,0.27511746074215865,0.7515940760940198,-0.16805328535064748,2.49119428598961,-0.15979104213449724,0.0
0.4668121472700332,0.1920548868650691,0.7194565994367959,-0.3618075054461811,1.2228515080636335,-0.17257293755148057,0.0
0.3672450843420489,0.1383085117595405,0.8509282064336502,-0.6131643439447397,0.7415886875649365,-0.036232702448345824,0.0
0.2857811621751955,0.15785266565591535,1.0904987891676936,-0.36547313463001324,1.4516940923571062,0.3012093926832269,0.0
0.32802161269293173,0.09922024673079281,1.1723033309947324,-0.03451996649502796,1.9814994637592342,0.4170985888832759,0.0
0.2918155424289059,0.10410629055038671,1.1255578639103492,-0.5021483903351156,2.654157858383826,0.2509339276761174,0.0
0.2375061201455129,0.09922024673079281,1.1606169386530052,-0.5498014675335876,2.189538078332954,0.41624645143607697,0.0
0.21336859913067183,0.15296662183632137,1.3855795821011525,-0.3303879070208203,2.4072852572185504,0.7315332743429159,0.0
0.27974678192148533,0.25068728440819077,1.543345469584367,0.034079488363820284,3.698512266508279,0.5892281290753263,0.0
0.27974678192148533,0.25068728440819077,1.4732273200990555,0.12519634679041922,4.526506201515161,-0.03197206717828886,0.0
0.18017971899350105,0.11876437924516657,1.3475988069905382,-0.11778192212180719,4.5847570460745155,-0.05157097902736331,0.0
0.11681883195866069,0.1627386880935083,1.3037749379915868,-0.10259578011520057,4.651329478521772,0.161460638970859,0.0
0.11380164183180538,0.2702314169225646,1.236578386591707,0.08906381115603833,3.6069753410532686,0.012338508450740896,0.0
0.05647513505067543,0.24580126197059776,1.1547737424821416,0.027271909556586763,2.161106211929252,-0.33362485722094565,0.0
-0.05516068838472941,0.15296662183632137,1.1956761156781874,-0.2769745718142215,1.716596845722158,-0.27056747601047787,0.0
-0.14869337105900357,0.08456215803601276,1.3329909188459055,-0.3298642402343078,1.4614026566689826,0.10181178936110863,0.0
-0.10645281491214922,0.09922024673079281,1.406030666416649,0.02517726795837355,0.8816680962593878,0.7852172475660708,0.0
-0.02498878711617796,0.23602919571341086,1.3329909188459055,0.2833416980380843,0.3345262638614338,0.7400545240966548,0.0
0.0353548041626892,0.1676247319131023,1.1752249290801644,-0.01985748808145424,0.19236648356900254,0.03960655599102721,0.0
-0.06119506863843979,0.1822828206078822,1.6923466650938124,0.01784603513854586,1.8871885854562749,-0.2586377180406936,0.0
-0.0883496741510183,0.211599019379443,1.785837599262579,0.4488182565577401,2.544590916057014,-0.27056747601047787,0.0
-0.10343562478529414,0.31420572577090633,1.721562645948131,0.8064780603612287,1.7512699030417862,-0.4571831865139095,0.0
-0.07929810377045285,0.211599019379443,1.5579534600115263,0.753064789024222,0.8220303429400445,0.07880437319343393,0.0
-0.10041843465843883,0.1676247319131023,1.543345469584367,-0.08688598090252025,1.3081475132586677,0.08391713162005696,0.0
-0.12455585004416227,0.2702314169225646,1.5228943852688703,-0.4304069730789478,0.9607227752105205,-0.09417730054837029,0.0
-0.1366246105515828,0.3190917588994998,1.6105421232667734,-0.3115361454108203,0.08487981768768924,0.06346609661441642,0.0
-0.1366246105515828,0.3239777920280933,1.6631307865220204,0.03198485953952551,-0.7236972995268832,0.24411691124402626,0.0
-0.09438405440472869,0.2604593506653777,1.6456011980094292,0.015227726753820203,-0.7354861931467471,0.452887883579004,0.0
-0.07628091364359753,0.22625712945622392,1.6105421232667734,-0.09474088050886041,-0.9934541997198977,0.6633631515947548,0.0
-0.03705754762359849,0.27511746074215865,1.5404238714989351,-0.1900470061644877,-1.690383869796204,0.6471727271753508,0.0
0.014234578903821076,0.3239777920280933,1.6163853194376372,0.002136235925865573,-1.3055121892444654,0.39664756037337745,0.0
0.011217388776966005,0.3239777920280933,1.6222285156085006,0.11367583077416533,-0.17655550096092307,0.15549575478937303,0.0
-0.012920132237875298,0.29466159325653246,1.595934132839614,0.05973884155497236,0.1902860950550258,-0.13763575951657614,0.0
-0.04309192787730888,0.25068728440819077,1.6339148056677018,-0.2958263334242216,1.3809610012938747,-0.2492643308397556,0.0
-0.04309192787730888,0.25068728440819077,1.6339148056677018,-0.19790190896430745,1.4308902579653293,-0.44780977852659676,0.0
-0.12455585004416227,0.201826953122256,1.6222285156085006,-0.23193980938743453,0.6812574460336054,-0.3847524388888792,0.0
-0.16981370194698955,0.15785266565591535,1.5637966561823902,-0.21361170817698777,-0.0031899056458378544,-0.27738449244256885,0.0
-0.16981370194698955,0.15785266565591535,1.5637966561823902,-0.0999774781174341,-0.1987462948606783,-0.1708686834434578,0.0
-0.21808863834755404,0.2653453944849717,1.7244842440335626,0.5708310466231872,-0.19319859215674012,-0.27141961345767684,0.0
-0.1366246105515828,0.35329399079965407,1.721562645948131,0.8007178406748571,-0.31732836403536824,-0.3864566722105266,0.0
-0.1366246105515828,0.35329399079965407,1.721562645948131,0.6886545534922077,-0.6779287691353911,-0.286757900429882,0.0
-0.1607621315664241,0.34352192454246716,1.5696398523532535,0.6200550858594412,-1.1099558211746212,0.15208725176992122,0.0
-0.14567618093214826,0.39726829430249555,1.5608750580969581,1.0583585784202183,-2.0662404065840656,0.24241265713600346,0.0
-0.14567618093214826,0.39726829430249555,1.5608750580969581,1.4071161873660971,-2.2402996550421084,0.02597253092173561,0.0
-0.0883496741510183,0.3777241617881217,1.514129591012575,1.1803713684856656,-1.828382813854692,-0.4597395780691312,0.0
-0.08533248402416323,0.3044336595137194,1.3680499935885615,0.5367931525870193,-0.5981806019722707,-0.4154289712605388,0.0
-0.031023167369888346,0.5243051663369263,1.4352466472709675,0.0010889151267589896,-0.11067657364165084,-0.0507188519733519,0.0
0.03837199428954451,0.6415699667686697,1.4410897411593049,-0.4660158547007346,0.7852768209844532,0.6531376269466183,0.0
-0.03705754762359849,0.7979230375746612,1.4849137124407827,-0.6676249744026083,0.39347056280078346,0.6054185534947303,0.0
-0.06722944889215018,0.553621365108487,1.6777387769491796,-0.3843248834660949,-0.4608750784617823,0.4460709087196632,0.0
-0.03404035749674342,0.5047610311498022,1.63099320758227,-0.5848866695949435,-0.7174561762749454,0.4486272587021346,0.0
-0.04309192787730888,0.5194191332083328,1.5784046466095494,-0.8886095225009947,-0.09195308547385832,0.7204556330339553,0.0
0.0353548041626892,0.5194191332083328,1.5404238714989351,-1.1923323754070456,-0.2153893860564954,0.9070713019646369,0.0
0.014234578903821076,0.3874962280453086,1.6339148056677018,-1.1043574793777662,-1.2985775777805397,0.8184501714929526,0.0
0.011217388776966005,0.29466159325653246,1.5871693385833183,-0.7446030084282276,-2.2021590889985543,0.46566979978236245,0.0
0.053457944923820354,0.10410629055038671,1.4498545354156005,-0.713183410002867,-2.0655469860360656,0.21088397692395708,0.0
0.041389184416399584,0.05524593788245099,1.3329909188459055,-0.6089750607483133,-1.4615412855027312,-0.12314960999157004,0.0
0.08362974056325394,0.12365042306476055,1.2424215827625709,-0.5456121843371612,-0.23549979990027256,-0.12485386409959282,0.0
0.11681883195866069,0.2653453944849717,1.2102840038228204,-0.5916942484021771,1.143103408564501,0.14527024053442386,0.0
0.08664693069010901,0.3044336595137194,1.3242261245896099,-0.5340916683209074,1.4565484421770323,0.25434243589216293,0.0
0.06250951530438581,0.2848895269993455,1.4673841239281915,-0.3083941830135006,0.6930463396534692,0.028528912083769776,0.0
0.06854389555809597,0.1383085117595405,1.5550318619260945,-0.0675105588929669,-0.6377080091118251,-0.538135183892679,0.0
-0.0008513717304545259,0.17739679817028922,1.6251501136939326,0.11943607600837383,-2.5585986324906385,-1.0996865902973723,0.0
0.10173288132438485,0.20671299694185002,1.3563636012468339,0.3781241217789233,-1.967075313789156,-1.0732705996570813,0.0
0.15302500785180442,0.2702314169225646,1.1956761156781874,0.3289000825426692,-0.17516857528493843,-0.7954774086994936,0.0
0.06552670543124088,0.43147052887539994,1.2015192095665248,-0.21046975216662722,0.8754269053434622,-0.10440281480331941,0.0
0.0353548041626892,0.43147052887539994,1.3797363859302887,-0.2733089554043077,0.3289785780734926,0.253490298444964,0.0
0.15905938810551482,0.411926393688276,1.403109068331217,-0.19266530816225413,0.14035680455157712,0.24837753612089566,0.0
0.1862140992472112,0.3337498582852802,1.3329909188459055,-0.2565518353925208,0.5820923532386958,0.2407084030279807,0.0
0.10776726157809524,0.38261019491671516,1.2774806575052264,-0.4267413438951154,1.3955236447697257,0.47163469955362985,0.0
0.07156108568495127,0.411926393688276,1.2687158632489308,-0.46025558391868915,1.659732842258802,0.6880748257678976,0.0
0.029320423908979053,0.3777241617881217,1.3242261245896099,-0.4618265715043082,1.9558412795475313,0.806520371950418,0.0
0.041389184416399584,0.3777241617881217,1.3592851993322657,-0.40422396587520165,2.8309909243618443,0.7264204912324727,0.0
0.07156108568495127,0.31420572577090633,1.429403451100104,-0.2712143138060945,3.1610788630942253,0.492937865510727,0.0
-0.009902942111020226,0.29954762638512594,1.4381681430738729,-0.20785145016886078,3.3656503749279456,0.5670728464574052,0.0
-0.06421225876529511,-0.018044548355450652,1.166460134823869,-0.25340987299520107,7.062498336819113,-0.3481110067459518,0.0
-0.3086041308949731,-0.08644903353776007,1.6105421232667734,-1.994579622113788,7.422405253707146,-1.2488087104243029,0.0
-0.5137726370046517,0.2604593506653777,2.113055971135789,-2.134396801894455,4.288648608785785,-2.164844721861234,0.0
-0.42929141908182533,0.06501802552163877,2.1393501493396223,-1.8285792818423536,1.0834656552451578,-3.1030359327705863,0.0
-0.35386187716868234,0.11387835680757373,2.0049570465398627,-0.6765271692602182,-1.5697213867335418,-3.7924062517723627,0.0
-0.35386187716868234,0.11387835680757373,2.0049570465398627,0.08749282357041918,-2.9670479649541286,-4.158820490056135,0.0
-0.36894782780295815,0.201826953122256,1.8588773468333226,0.15190300800675943,-2.730577483976707,-4.171602614123243,0.0
-0.17886516669843716,0.29954762638512594,1.6865034689229486,-0.40265297828958246,-1.0517050442792535,-3.617720216093213,0.0
-0.19998549758642314,0.48033086417045984,1.5345806753280715,-0.940451857348056,1.241575080811411,-3.140529564719837,0.0
-0.27239784937271105,0.553621365108487,1.6046989270959096,-1.2049001739006509,2.1659604264212025,-2.7502555610599972,0.0
-0.193951117332713,0.5682794698397676,1.7069546555209718,-0.940451857348056,2.0439109669345648,-2.1767744382582683,0.0
-0.23317448335271204,0.5829375692255481,1.753700122605355,-0.13872832293491072,1.1132844980728356,-1.6782804130640427,0.0
-0.27843222962642145,0.592709635482735,1.7799944030917154,0.18175161884650104,1.034229819121703,-1.409860630093768,0.0
-0.30256975064126274,0.5731655029683612,1.7624649168616506,0.4210642617683748,1.0820787464851702,-1.022995176222722,0.0
-0.2603291944944084,0.5438492988513002,1.785837599262579,0.34879919049961283,0.7547644899447878,-0.16575592111938944,0.0
-0.36291344754924776,0.5438492988513002,1.6923466650938124,-0.03609095408064706,1.0432448275576038,0.47589532443049914,0.0
-0.4021368135692468,0.4461286295975554,1.6923466650938124,-0.14867786369038097,1.296358551974816,0.6735886762428914,0.0
-0.39911962344239177,0.4559006965229299,1.718641047862699,0.024129947159266942,1.2429619219074106,0.6258695612182537,0.0
-0.3930852431886814,0.4461286295975554,1.7478569264344912,0.03983975914586567,1.2235450639396093,0.44010600894839574,0.0
-0.3749821024275504,0.4461286295975554,1.785837599262579,-0.34033744822537376,1.3553029524101474,0.5108324816790285,0.0
-0.3779992925544055,0.4852168972990533,1.809210383946034,-0.3900851542481403,1.2949717108788164,0.5474739553947059,0.0
-0.420239954330378,0.4852168972990533,1.8296615705440569,-0.2900660754160946,0.984993982998248,0.469078307998408,0.0
-0.4383429894623908,0.553621365108487,1.8413479628857845,-0.06593957769430703,0.6722424375977045,0.43243687585548096,0.0
-0.47756635548238985,0.6269118673828893,1.8676421410896182,0.046647337953099194,0.6438105035300145,0.4775995577521468,0.0
-0.49265230611666566,0.6464559998972632,1.9085445142856643,0.1372405168192673,0.36157128916913633,0.538100547407393,0.0
-0.4896351159898106,0.5682794698397676,1.9319172989691191,0.3273291460527239,-0.069762291574103,0.4912335906163291,0.0
-0.48058354560924516,0.5682794698397676,1.8939365238585049,0.5320801898301618,-0.5052566662612928,0.19810208150697373,0.0
-0.47756635548238985,0.4852168972990533,1.8442695609712163,0.374982197703359,-0.45255352440587526,0.09414264977245143,0.0
-0.48661792586295527,0.5829375692255481,1.7975239916043064,0.2346412872665874,-0.36170995183487875,0.3242167919619718,0.0
-0.48661792586295527,0.7050883974403849,1.785837599262579,0.0524075959612263,0.03633745074572543,1.0067701568907825,0.0
-0.48661792586295527,0.7002023750027919,1.8004455896897382,0.11891242199577975,0.21733113727872538,1.2419570159341755,0.0
-0.49566949624352097,0.5682794698397676,1.8355047667149207,0.14090614600309967,0.05783478418630055,1.1465188690304,0.0
-0.420239954330378,0.4705587969109916,1.850112552577027,0.10267896877050538,-0.2140024603805111,0.9002542855325457,0.0
-0.3870508629349712,0.49010293176402187,1.8530341506624588,0.07125934479730792,0.3463151236493037,0.6838141593182782,0.0
-0.4081711938229572,0.4998749980212087,1.9027013181148005,0.15661594521577993,0.20831611192682756,0.6667716598108004,0.0
-0.45041174996981154,0.4265844957468065,1.8939365238585049,0.06811739517390657,-0.026074166612584646,0.4895293572946812,0.0
-0.42929141908182533,0.3190917588994998,1.8530341506624588,-0.3000156166206479,0.2110899632787966,-0.22199628589776615,0.0
-0.4443773697161012,0.4754448303736788,1.8588773468333226,-0.09264623891064724,0.11955293632780631,-0.3719705226855208,0.0
-0.48360073573610024,0.666000132411637,1.8325831686294887,0.051360275162119697,0.15145220150145478,-0.10355069814249557,0.0
-0.5077382567509415,0.6953163311831979,1.8647205430041862,-0.07431813770020047,0.2256526744186355,0.3531891117983591,0.0
-0.5137726370046517,0.5975956686113285,1.8734853372604818,-0.2953026794116275,0.15630644136740057,0.4443666338252653,0.0
-0.5017038764972311,0.5633934367111743,1.9202309066273915,-0.4387855394718005,-0.0392499520764391,0.3199561670851024,0.0
-0.49566949624352097,0.5487353319798935,1.8588773468333226,-0.3455740394469881,0.12371370912676061,0.28842749726624356,0.0
-0.49566949624352097,0.5487353319798935,1.8588773468333226,-0.14291760293785744,0.29361199870988286,0.20747546870791153,0.0
-0.5017038764972311,0.5291911994655197,1.8413479628857845,-0.031901670884220724,0.25269771664233515,0.13334046697485816,0.0
-0.516789827131507,0.4998749980212087,1.823818374373193,0.10215528921007443,0.20415535181487096,-0.031119940124277455,0.0
-0.5077382567509415,0.5340772325941132,1.8822501315167774,0.06497543277658674,0.29083814735791375,-0.022598679977351065,0.0
-0.5077382567509415,0.5340772325941132,1.8822501315167774,-0.011478934462520012,0.3435412722973346,0.2407084030279807,0.0
-0.5077382567509415,0.5780515360969546,1.8822501315167774,-0.06541591729475374,0.5051180035955506,0.3804571567403485,0.0
-0.5077382567509415,0.5780515360969546,1.8822501315167774,0.07963791119016059,0.4600429614160463,0.24241265713600346,0.0
-0.5198070172583621,0.553621365108487,1.9143877104565281,0.31580860448863296,0.15283912717743928,-0.01407741463383093,0.0
-0.5258412918829546,0.5487353319798935,1.9056229162002323,0.33413672485995743,0.09181443972411293,0.06005759099666774,0.0
-0.5439444326440854,0.6464559998972632,1.87056373917505,0.20793462605024718,0.1542260528534238,0.3029136467912497,0.0
-0.5288584820098097,0.6366839336400762,1.8471911590566479,0.011038456331312336,0.3241243297495484,0.37704864852430287,0.0
-0.5137726370046517,0.602481701739922,1.850112552577027,-0.035043633281540504,0.2533911710223289,0.33529445405730746,0.0
-0.5409272425172301,0.5731655029683612,1.8530341506624588,-0.0387092496914543,0.3144158669336536,0.10692454648858321,0.0
-0.5107554468777966,0.5780515360969546,1.8559557487478906,0.04874197955131241,0.2395219311784807,0.18361593198196763,0.0
-0.516789827131507,0.6269118673828893,1.8734853372604818,0.09901333958667306,0.17780377242916362,0.26030731487705516,0.0
-0.5348928622635201,0.6464559998972632,1.8822501315167774,0.02570093474488611,0.1223267834507761,0.25604669000018576,0.0
-0.5439444326440854,0.6366839336400762,1.8734853372604818,-0.019333834068860165,0.17364300385920856,0.33103380839406293,0.0
-0.5017038764972311,0.6611141099740442,1.8822501315167774,-0.03661460809324113,0.21178343457478727,0.41454221811442926,0.0
-0.5228241017560993,0.612253767997109,1.8793285334313456,0.03983975914586567,0.3345262638614338,0.16742552834893873,0.0
-0.5017038764972311,0.5682794698397676,1.8734853372604818,0.14142980001569375,0.3671189918730745,0.14782661649986426,0.0
-0.5017038764972311,0.6464559998972632,1.8734853372604818,0.008420147946586631,0.5862531133506524,0.29609663035915856,0.0
-0.5439444326440854,0.670886176231231,1.8764069353459139,-0.19894922976341403,0.5453388312831046,0.40431669346629256,0.0
-0.5469616227709405,0.6415699667686697,1.8968581219439367,-0.17905014735430738,0.5626753937749127,0.3378508248261541,0.0
-0.5499788128977958,0.6220258342542959,1.9027013181148005,-0.0455168348856471,0.42120907632047366,0.2782019726181068,0.0
-0.5680819536589267,0.6269118673828893,1.934838897054551,0.059215174768459826,0.46489720973999044,0.123114952719909,0.0
-0.5831677986640844,0.592709635482735,1.911466112371096,0.05293124997382037,0.41704828237652325,0.20491909793906488,0.0
-0.556013193151506,0.6269118673828893,1.9260741027982553,0.10215528921007443,0.564755790746888,0.2492296735680946,0.0
-0.574116228283519,0.6464559998972632,1.9027013181148005,0.16656549919425173,0.7367344730729862,0.39749967703420125,0.0
-0.6042881295520707,0.6464559998972632,1.928995700883687,0.2822943389172223,0.9309039323828429,0.48015594930736855,0.0
-0.5831677986640844,0.6220258342542959,1.9786626637709759,0.3084773461209685,0.9953959001941365,0.314843404761034,0.0
-0.6163568900594911,0.5829375692255481,1.9874274580272715,0.29224389289569414,0.740201778804949,0.17253829067300705,0.0
-0.6344599251915041,0.6611141099740442,1.9757410656855443,0.2634425900811407,0.4108071252925913,0.10095966230709724,0.0
-0.6465286856989247,0.7392906400315397,1.911466112371096,0.2089819596232722,0.38029479425292595,0.27053283952519186,0.0
-0.6646318264600559,0.7441766624691325,1.8588773468333226,0.10372627679569356,0.4711383668239224,0.27990622672612964,0.0
-0.6646318264600559,0.7099744412599788,1.8734853372604818,0.042981708769267025,0.4829272266117923,0.18361593198196763,0.0
-0.6344599251915041,0.7197465075171656,1.9202309066273915,0.06968838275952571,0.40248557123668427,0.03619804777498163,0.0
-0.5892021789177949,0.8028090813942552,1.990349056112703,0.18384626044471422,0.3594909260291552,0.06176184380554208,0.0
-0.6254083548109389,0.817467170089035,1.9231525047128235,-0.02038115486796675,0.714543662257234,0.17424253438784232,0.0
-0.6978208122263445,0.7050883974403849,1.9406820932254147,-0.4628739050773334,0.8573968884716603,0.08732563853695408,0.0
-0.6827348615920688,0.7295185737743527,1.9728194676001123,-0.4089369030842219,0.5307761201432658,-0.24585582262370997,0.0
-0.64954587582578,0.6953163311831979,1.9319172989691191,-0.1727662257531475,0.38861634830883296,-0.10866346046656393,0.0
-0.6374771153183594,0.670886176231231,1.9085445142856643,-0.14972518379091387,0.23536115415052714,-0.036232702448345824,0.0
-0.6706661010846481,0.7099744412599788,1.9552898790875208,-0.24607863378841419,0.1486783586074842,-0.1342272513005306,0.0
-0.6646318264600559,0.7099744412599788,1.9961922522835667,-0.318867378230648,0.18196454945711715,-0.2790887673369668,0.0
-0.6585974462063454,0.670886176231231,1.9640546733438167,-0.2183246517729674,0.21594421160274088,-0.3958300801978396,0.0
-0.743078558500054,0.8223532139086293,1.928995700883687,-0.15024884384118034,0.23050692274257983,-0.3046525581709334,0.0
-0.7853191146469082,0.9151878540429056,1.952368281002089,-0.3659967886426073,0.05575439705996415,0.18446805903597904,0.0
-0.8064394455348943,0.9054157664037176,1.8851717296022092,-0.49848278669912033,0.40387251382866574,0.3514848576903363,0.0
-0.764198836573481,0.7246325299547587,1.9406820932254147,-0.44140383508260755,0.6278608836301879,0.20577121459988876,0.0
-0.7732504069540466,0.7588347725459135,1.981584261856408,-0.20470948777154102,0.3421543635373471,0.15890426300541857,0.0
-0.7853191146469082,0.685544264926011,1.990349056112703,-0.06908153370466755,0.3324458838054555,-0.005556149290310785,0.0
-0.8426456214280382,0.612253767997109,1.9406820932254147,-0.17643184535654094,0.4406260019522628,-0.26289834291756276,0.0
-0.7792847872077568,0.680658242488418,1.981584261856408,-0.5744134871517146,0.8795876992874125,-0.45377467829786405,0.0
-0.8004050652811842,0.7392906400315397,2.0049570465398627,-0.3675677762282265,0.6743228345696798,-0.2322217897595277,0.0
-0.8034222554080392,0.7050883974403849,2.0020354484544307,-0.18585772616154095,0.5841727163786771,-0.1103677145745867,0.0
-0.821525343354611,0.7099744412599788,2.034173027394181,-0.1785264869547541,0.36087783478914254,0.05409270551603333,0.0
-0.8154909631009009,0.6611141099740442,2.0575456075125835,-0.06070297369877411,-0.10651579661369726,0.008077873180683927,0.0
-0.8004050652811842,0.685544264926011,2.022486635052454,0.018369689151139977,-0.3561622491309406,-0.18365057886044112,0.0
-0.7581644563197709,0.6464559998972632,1.9961922522835667,0.2597769864451454,-0.2500625110401114,-0.28249727555301246,0.0
-0.7702332168271916,0.7197465075171656,1.9961922522835667,0.326281786931862,-0.10304849088173446,-0.17427719165950337,0.0
-0.8275597236083214,0.7832649488798813,1.9698978695146803,0.2252154128485466,-0.1869574350728084,0.024268276813712814,0.0
-0.8185081532277562,0.7881509713174742,1.9640546733438167,-0.0387092496914543,-0.10998310234566007,0.22110949117890621,0.0
-0.7943706850274737,0.7881509713174742,1.9786626637709759,-0.2235612493815411,-0.015672228271700017,0.36171036155209807,0.0
-0.8004050652811842,0.7979230375746612,2.0049570465398627,-0.27069065979350043,-0.03647610072447006,0.3940911688181557,0.0
-0.743078558500054,0.7490627062887266,2.010800242710726,-0.10992701932198742,0.1140052378528675,0.5244665145432107,0.0
-0.7370441782463438,0.7050883974403849,2.01664343888159,0.058691520755865756,0.14243719306555389,0.4196549596521223,0.0
-0.743078558500054,0.685544264926011,2.0137218407961583,0.11734143441016061,0.09042751616262804,0.33699870816533023,0.0
-0.7853191146469082,0.7050883974403849,1.993270654198135,0.04717099196569329,-0.1335608388373969,0.1384532292989265,0.0
-0.7853191146469082,0.7050883974403849,1.993270654198135,-0.10887969852288085,-0.4178803994222593,0.1682776554029501,0.0
-0.7792847872077568,0.7979230375746612,2.034173027394181,-0.19057066656404098,-0.3679511089188105,0.14867874355387564,0.0
-0.7792847872077568,0.7979230375746612,2.034173027394181,-0.07798375411011428,-0.1841835837208393,0.1469744894458529,0.0
-0.7249754177389232,0.7050883974403849,1.993270654198135,4.1594327652406084e-05,0.12024639916579857,0.14527024053442386,0.0
-0.7279926078657782,0.7344045962119455,1.9786626637709759,0.02884289714220572,0.310948544285694,0.09840328114506307,0.0
-0.761181646446626,0.7881509713174742,1.9961922522835667,0.05188394194863223,0.11816601065182179,0.13078409100941774,0.0
-0.7732504069540466,0.8028090813942552,1.9845058599418397,-0.03923291647796681,-0.14396277294928225,0.09073414415470275,0.0
-0.761181646446626,0.7783789050602873,1.9991138503689987,-0.07536545849930705,-0.21192208032453275,-0.04134546477241416,0.0
-0.7491129387537644,0.7637207949835065,1.981584261856408,-0.13506270253314737,-0.04618457199836319,-0.0975858087644158,0.0
-0.761181646446626,0.7881509713174742,1.9786626637709759,-0.17590818655372745,-0.08779230844590476,0.03705017482899304,0.0
-0.761181646446626,0.7881509713174742,1.9786626637709759,-0.11097434012109401,-0.07739038279201788,0.011486381396729485,0.0
-0.7581644563197709,0.7734928612406934,1.9611330752583847,-0.07065251490332744,-0.012204914081738731,0.004669370161232124,0.0
-0.7310097979926333,0.7295185737743527,1.9611330752583847,-0.10154845931609398,0.0938948282380897,0.11800219039584064,0.0
-0.7310097979926333,0.7295185737743527,1.9611330752583847,-0.17119524615122741,0.14243719306555389,0.037902301883004426,0.0
-0.7400613683731987,0.7539487287263196,1.9845058599418397,-0.1827157669577008,-0.035782637886477814,0.06005759099666774,0.0
-0.761181646446626,0.8321252801658159,1.9786626637709759,-0.18323942735725413,-0.11553080504959813,0.06857885536582656,0.0
-0.7672160267003362,0.8370113239854101,1.9991138503689987,-0.1481542036401145,-0.2029070718886319,0.05494483127089628,0.0
-0.7491129387537644,0.817467170089035,1.981584261856408,-0.08688598090252025,-0.06213420881418665,-0.00811253045234499,0.0
-0.7491129387537644,0.7734928612406934,1.990349056112703,-0.04813513688341356,0.021081278882393844,-0.06520500149835803,0.0
-0.7400613683731987,0.7295185737743527,2.0049570465398627,-0.051277092893774065,-0.010124529796761197,-0.07372627203847196,0.0
-0.7491129387537644,0.8028090813942552,1.9845058599418397,-0.0722234961019873,-0.03300878653450876,0.07539586725089814,0.0
-0.764198836573481,0.8321252801658159,1.9845058599418397,-0.0664632380938603,-0.05311919192028731,0.06261396956040503,0.0
-0.7581644563197709,0.8223532139086293,1.9786626637709759,-0.09421722010930712,0.06476940807291144,0.1410096052643669,0.0
-0.743078558500054,0.7588347725459135,1.9611330752583847,-0.14553590333888408,0.12024639916579857,0.11203730621435468,0.0
-0.7460957486269092,0.7686068388031004,1.9698978695146803,-0.1334917229312273,-0.13980199592132872,0.11629793888611474,0.0
-0.7460957486269092,0.7686068388031004,1.9698978695146803,-0.04394585368698722,-0.26185137082798127,0.14271385937238967,0.0
-0.7310097979926333,0.817467170089035,1.993270654198135,0.016275047552926764,-0.16476664117305304,0.1367489751909037,0.0
-0.7340269881194884,0.8614414575553757,1.990349056112703,-0.06593957769430703,-0.050345349026316745,0.21599673924802543,0.0
-0.7219582276120678,0.8907576777089379,2.010800242710726,-0.07641277929841364,0.05922170906934771,0.22963076171902014,0.0
-0.7129067628606205,0.8467833688605959,2.0137218407961583,-0.006765984479581141,0.00790549130403979,0.35744973667522867,0.0
-0.7370441782463438,0.7881509713174742,1.9494466829166575,-0.06175029449788069,0.061995558306817126,0.20917972281593428,0.0
-0.743078558500054,0.7881509713174742,1.9465250848312254,-0.17905014735430738,-0.060747283138202136,0.1529393788239326,0.0
-0.743078558500054,0.8223532139086293,1.9611330752583847,-0.18585772616154095,-0.20984170026855445,0.19980633561499653,0.0
-0.7370441782463438,0.8076951038318482,1.9611330752583847,-0.19790190896430745,-0.1335608388373969,0.21940524746407097,0.0
-0.7038551924800549,0.8223532139086293,1.9845058599418397,-0.09055159731243409,0.01067934265600884,0.12396707457732661,0.0
-0.7129067628606205,0.8418973250410021,1.993270654198135,-0.035043633281540504,0.03911129998319485,0.15123512471590983,0.0
-0.70687238260691,0.9054157664037176,1.9698978695146803,-0.02980702928600756,0.04812631106222025,0.17679891554987648,0.0
-0.6978208122263445,0.8907576777089379,1.9786626637709759,-0.08793329531466763,0.1798841609431404,0.22025737451808233,0.0
-0.6887692418457793,0.8956437215285317,1.993270654198135,-0.08950427651332749,0.2610192537822453,0.22281374528692902,0.0
-0.6887692418457793,0.8956437215285317,1.993270654198135,0.03826877156024653,0.05575439705996415,0.11885431744985203,0.0
-0.6948036220994893,0.8760995890141577,1.9640546733438167,0.1335749131832719,-0.014978765433707757,-0.05157097902736331,0.0
-0.7279926078657782,0.827239236346222,1.928995700883687,0.16394717803560752,-0.1862639637768176,-0.1666080585665884,0.0
-0.7521301288806196,0.8321252801658159,1.8413479628857845,0.0848745279596119,-0.06352113449017117,-0.06435287444434666,0.0
-0.7521301288806196,0.8321252801658159,1.8413479628857845,0.004754531536672811,-0.0024964428078455957,-0.2058058822647373,0.0
-0.6978208122263445,0.7637207949835065,1.9143877104565281,0.12257805117961207,-0.2438213539561796,-0.17257293755148057,0.0
-0.6163568900594911,0.9249598989180915,1.9786626637709759,0.40273619249272413,-1.416466243323227,0.8550915620631298,0.0
-0.7159239529874756,0.9835922964612132,2.0078786446252943,0.38755004729263787,-1.2389398921251844,0.868725594927312,0.0
-0.70687238260691,1.0324526491291488,1.87056373917505,0.42315892891442486,-2.062079747968091,1.4558407505932216,0.0
-0.685752051718924,1.1155152230062384,1.7829160011771472,0.3330893657390955,-4.233310481236107,3.22996825851256,0.0
-0.685752051718924,1.1155152230062384,1.7829160011771472,-0.22617955137930754,-4.884471350264967,4.101693621568149,0.0
-0.5620475734052164,0.602481701739922,1.481992114355351,-0.8210573628934161,-6.609806146885841,5.131062188213406,0.0
-0.1667965118201345,0.602481701739922,1.7478569264344912,-0.9100795669478834,-6.303295318753308,4.750161675686379,0.0
-0.1667965118201345,0.602481701739922,1.7478569264344912,-0.4277886774681405,-4.973928014075976,3.0109716575975702,0.0
-0.06421225876529511,0.5487353319798935,1.9611330752583847,-0.03975657049056088,-4.876843724236968,2.3241577301510152,0.0
-0.12757304017101734,0.612253767997109,1.8355047667149207,0.44777094853255195,-4.9406422038362745,2.574682772234738,0.0
-0.1094700050390043,0.49010293176402187,1.6397580018385653,0.912257448297075,-4.963526164544076,2.6138807206511374,0.0
0.008200198650110933,0.39726829430249555,1.5287375814397342,0.8289954128333057,-5.179192946457698,2.361651195809266,0.0
0.005183008523255619,0.4852168972990533,1.4323250491855357,0.16342352402301344,-4.722201198418753,2.31648855548535,0.0
-0.08231529389730792,0.49498896489261535,1.18398972333646,-0.858760911661253,-4.550222617588636,3.0561342979214867,0.0
0.10475007145123992,0.4852168972990533,1.2219703961645476,-0.6623883831809938,-4.052316621314138,2.763002840778068,0.0
0.4668121472700332,0.3093196926423129,1.2073624057373884,-0.49848278669912033,-3.57452117421139,1.2675208483408924,0.0
0.49396685841172955,0.1627386880935083,1.163538536738437,-0.19685458816520088,-3.9448299406313274,0.822710796369822,0.0
0.41250272498664,0.06013198170204488,1.1372442562520768,0.1859409020429273,-5.352558909695715,1.0596019718803633,0.0
0.3370731830734972,0.3386358914138737,1.1401658543375086,0.16656549919425173,-6.0834680135516885,2.0514772391583707,0.0
0.24354050039922326,0.2848895269993455,1.0934203872531254,0.35141748611042,-6.234642895318002,3.200995710026046,0.0
0.21035140900381652,0.201826953122256,0.903516869688897,0.4226352493539939,-5.180579787553697,2.106013204324099,0.0
0.6508603224917243,0.17739679817028922,0.6990054639800359,0.09272941479203362,-4.994038833903682,-0.07031776382242638,0.0
0.9133552297534175,0.1676247319131023,0.663946338096117,-0.12144754172520063,-5.494718241714229,-0.23989092285244282,0.0
0.5301729286757562,0.050359936826859054,0.6902406697237404,0.012085777130418895,-6.590388747606135,0.7656183149306214,0.0
0.5271557385489003,-0.18905573992922353,0.4769644697585837,-0.5607983295372476,-1.6134095878170465,-0.34214610697468467,0.0
0.48491528803116435,-0.13530934344169382,-0.1862368892497094,-0.5403755931155467,-0.9060779328808639,-1.495073293922157,0.0
0.7534445755465663,0.05524593788245099,0.24908029215158364,1.0436960616848894,-2.4733027626235793,-3.902330589773894,0.0
0.6478431323648697,0.670886176231231,0.20233482506720035,1.7234068898614274,-3.1424941898361474,-4.498819070281618,0.0
0.6478431323648697,0.6611141099740442,0.28998257585041903,2.0512179295381525,-3.1979710815475535,-3.763434035867852,0.0
0.5724135904517267,0.6953163311831979,0.234472327295056,2.0019939924932464,-2.7458335480005576,-2.918976738540627,0.0
0.33405599294664234,0.5585074035825808,0.225707558609392,0.9661943480988391,-2.493413311795333,-1.7626410018043581,0.0
0.382331034976325,0.3044336595137194,0.08254955447631686,-0.005195009667880511,-2.922666613978577,-0.8781336809726611,0.0
0.8499944483476939,0.2702314169225646,0.015352940748022443,-0.8975117173586046,-3.9295738766074764,-2.7042406793570053,0.0
0.8258569273328528,-0.1695116074148495,-0.051843671382107465,-1.7636454689412562,-3.1341726019482485,-2.9300543798495866,0.0
0.4275886756209163,0.08456215803601276,-0.008019795990498147,-2.2380813693972295,-3.1785542235797517,-2.56278773389574,0.0
0.3008671128094713,0.39726829430249555,0.015352940748022443,-1.2844965035370772,-2.839451005755517,-1.1993853620780173,0.0
0.5000012386654397,0.6464559998972632,0.03872567588837857,-0.6409182876384312,-3.4940795188362834,-0.29187064196757495,0.0
0.8530116384745509,0.5731655029683612,-0.1161186886231345,-0.01357357606073318,-2.8879934213309717,-0.7409412772427645,0.0
0.7202554841511586,0.4070403605596825,-0.25927668796171616,-0.4068422614860087,-2.6605376781334993,-2.404292288926997,0.0
0.5512932595637426,0.5682794698397676,-0.30310058253129923,-0.49691179911350114,-2.175807484238851,-2.826946975134645,0.0
0.3461247534540629,0.8663275013749699,-0.30310058253129923,-0.5299023851244808,-2.2943897056575144,-1.340838390684783,0.0
0.08966412081696408,1.0422246940043347,-0.2621982860471482,-0.6665776663774201,-2.196611453958604,0.5730377462286727,0.0
0.27974678192148533,0.9151878540429056,-0.2768062509036759,-0.47125244592234916,-1.286788751824664,0.5167973814502959,0.0
0.5060354076609144,0.7344045962119455,-0.39659151670006587,-0.16124570494667412,-0.2958310414316035,-0.36089288137655995,0.0
0.47284652752374356,0.8907576777089379,-0.49300404895426436,-0.5707478579678823,-0.8492139970814957,0.1410096052643669,0.0
0.5120697879146245,0.973820251586027,-0.3118653512169633,-2.1155449508670254,-2.039195381276363,1.8384454964418977,0.0
0.5814651608322934,1.149717444215392,-0.4754745115829364,-1.0530387218997883,-1.1841562856338035,-0.31317380792467236,0.0
0.382331034976325,1.0764269579774903,-0.4959256470396961,-0.7194673092496696,-1.5815102126894176,0.02341614975970143,0.0
0.3642278942151938,1.2620961954820413,-0.49008245086883256,0.12100706359399298,-1.0655742672071045,0.8448660789877431,0.0
0.5362073089294658,0.6611141099740442,-0.6478484406345736,0.4770958798118625,-0.6682203401514905,-0.33192058232654775,0.0
0.6870666040139876,0.7588347725459135,-0.7325745805470446,0.08435084839918094,-0.17655550096092307,-1.744746260917806,0.0
0.5995683015934252,1.1790336643689538,-0.7296529824616126,-0.2638830809862669,-0.46295547543375754,-1.161891813274266,0.0
0.40043417573745566,1.130173311701018,-0.6478484406345736,-0.590123260816558,0.1140052378528675,-0.35663225649969066,0.0
0.40043417573745566,1.130173311701018,-0.6478484406345736,-0.5974545191842225,0.6576797264578658,0.18020742376592205,0.0
0.20130004988148703,0.8760995890141577,-0.7267313843761808,-0.39479809145716077,-0.161992789821084,0.9249659597056888,0.0
0.20130004988148703,0.8760995890141577,-0.7267313843761808,-0.6005964943554607,1.5418443120440908,1.2785984896498528,0.0
0.5995683015934252,1.1252872678814243,-0.5514359083803752,-0.7833538652212527,1.3906694302777753,0.5031633485861137,0.0
0.5995683015934252,1.1252872678814243,-0.5514359083803752,-0.4974354531260953,-0.5926328992683328,-0.3165823161407178,0.0
0.5211213582951902,0.9884783402808069,-0.6157109128360861,-0.47229977949537416,0.002357792829100972,-0.5287618174781162,0.0
0.3642278942151938,0.964048163946839,-0.5864949831230308,-0.6367290555376788,0.9163412212430038,-0.7630965598606857,0.0
0.2465576905260786,0.7832649488798813,-0.5602006514954073,-1.0080040169556344,1.7006470904943558,-0.6616935547583931,0.0
0.39439979548374526,1.154603488034986,-0.5426711141240794,-1.6128313760612554,4.536214901155013,0.5977494204018154,0.0
0.39439979548374526,1.154603488034986,-0.5426711141240794,-1.581411726540221,2.4905008654416103,0.7213077496947792,0.0
0.11681883195866069,0.9347319865572794,-0.5426711141240794,-0.5911706199374199,0.7457494815088871,2.3497214794122314,0.0
0.30690128180494575,1.1790336643689538,-0.20084485410623712,-0.34347939784877507,1.0605813562174178,2.5832041882794776,0.0
0.2344889300186578,0.9396180303768732,-0.29433578827500384,-0.01776284648324107,0.17919069810514815,3.3944283953888204,0.0
0.1862140992472112,0.5878236023541416,-0.34400285344481896,-0.14553590333888408,0.5966550643785349,4.369261163159348,0.0
0.1862140992472112,0.5878236023541416,-0.34400285344481896,-0.5367099639317144,-0.19458551783272462,3.797484190533769,0.0
0.1862140992472112,0.5878236023541416,-0.34400285344481896,-0.5822683739841362,-1.0517050442792535,2.9521748181184715,0.0
0.1862140992472112,0.5878236023541416,-0.34400285344481896,-0.5869813367409935,-0.6751549516154159,3.516282782369388,0.0
0.2375061201455129,0.35818002392824755,-0.34984604961568255,-0.6644829992313702,-0.22787171714035606,4.542243048662349,0.0
0.2375061201455129,0.35818002392824755,-0.34984604961568255,-0.4408801810700135,0.08418635484969696,4.5797363480295985,0.0
0.5724135904517267,0.612253767997109,-0.35861081830134667,-0.35814188903626726,-0.7944304582541026,3.56741028089182,0.0
0.5724135904517267,0.612253767997109,-0.35861081830134667,0.22364442526292747,0.3005466101738086,2.7868622735721367,0.0
0.9706818421636644,0.39726829430249555,-0.1862368892497094,0.4331084317972229,0.37336014895700625,2.8976386866617423,0.0
0.5935339213397156,0.24580126197059776,-0.30310058253129923,0.5985850414125524,0.30124008146979936,2.8456591130512354,0.0
0.5000012386654397,0.11876437924516657,-0.32063011990262713,0.6996514154958678,0.6632274291618037,2.8209474388780924,0.0
0.6508603224917243,-0.12065125474691372,-0.40827790904179334,0.6116765194665886,1.0092651907859755,2.352277870967453,0.0
0.5181041681683349,-0.15485347595606777,-0.27096305473281207,1.0730209929641998,1.18124383928008,3.000746091376682,0.0
0.9193896100071272,-0.08644903353776007,-0.40827790904179334,0.919588655569066,0.5827858076186896,2.229571575189813,0.0
0.8198225470791426,-0.34052275622462036,-0.49008245086883256,0.19903240564480046,0.6126046842783612,0.7988512804302534,0.0
0.5573276398174523,-0.20859987244359748,-0.3469244515302507,0.046647337953099194,0.3782143972809507,0.9258181179392628,0.0
0.424571485494061,-0.2134858734991894,-0.3177085473878269,-0.24660229418796747,-0.05450611759627182,0.937747834336297,0.0
0.5060354076609144,-0.33563671240502646,-0.29433578827500384,-0.2665013765970741,-0.02676762945057692,0.6284259527734753,0.0
0.5995683015934252,-0.3893831088925561,-0.34400285344481896,-0.3083941830135006,0.10707061370194415,0.1418617323183783,0.0
0.563362020071162,-0.3796110212533684,-0.39074832052920205,-0.47753637071698857,0.20138150046290193,-0.32765995744967846,0.0
0.5150869780414798,-0.33563671240502646,-0.3410812809300187,-0.43145428110413575,0.18612532648507074,0.040458680446741724,0.0
0.47284652752374356,-0.19394174098481548,-0.21837441704819666,0.014180405954713643,-0.6813960748673539,-0.45377467829786405,0.0
0.5844823509591484,-0.20859987244359748,-0.35861081830134667,-0.09159891811154065,-0.069762291574103,-0.13678362206937722,0.0
0.5935339213397156,-0.24768813747234508,-0.36445401447221026,-0.13768100293417404,0.18959263221703354,-0.06264862033632386,0.0
0.5512932595637426,-0.22814400495797113,-0.39951311478549767,-0.17433720695180738,0.36226477738112406,0.0012608619451865662,0.0
0.3853482251031798,-0.4773317265892399,-0.19500168350600505,-0.32043836581626706,0.3421543635373471,-0.5398394587870771,0.0
0.46982933739688826,-0.05224676956460441,-0.09858913846649076,0.21997882162693203,-1.517018312542112,-1.8418888074342301,0.0
-0.031023167369888346,0.035701805368076996,-0.40827790904179334,-0.019333834068860165,1.8684650127084976,1.1115817117818707,0.0
0.0594923251775305,-0.11087916710772595,-0.2621982860471482,0.24563814927024716,0.7582317956767508,2.792827298061655,0.0
0.7051695335168842,-0.5750523463971068,-0.3878267224437702,-0.12249486092756741,-0.6696072489114779,1.7617542486582483,0.0
0.7051695335168842,-0.5750523463971068,-0.3878267224437702,0.023082639134078778,0.6368758920660887,0.13078409100941774,0.0
0.6840494138871329,-0.413813242462522,-0.326473316073491,0.09744235200105411,1.2401881043874359,0.21258823103197988,0.0
0.30690128180494575,-0.3209786664742487,-0.2417471505903882,0.04141073395756635,1.7443352915778605,0.3659710072153424,0.0
0.30690128180494575,-0.3209786664742487,-0.2417471505903882,0.0524075959612263,0.36157128916913633,2.056590022268814,0.0
0.11681883195866069,-0.14508143108088162,-0.08690277169539495,0.08435084839918094,-0.24035404822421674,3.224855475402117,0.0
0.9495615112756783,-0.6141406114258545,-0.24759032119062047,-0.18690504696064755,0.14451758157953068,1.5785469632253617,0.0
0.9495615112756783,-0.6141406114258545,-0.24759032119062047,-0.2507915709974346,0.2977727588218395,0.8022597470735484,0.0
0.7051695335168842,-0.6336847867042307,-0.25343351736148406,-0.17014792535212084,0.3865359513368577,0.607122786816378,0.0
0.5000012386654397,-0.5164199916179874,-0.2271391857338607,-0.11306898171930718,0.5709969478308197,0.707673716830597,0.0
0.3913826053568904,-0.6678870079133843,-0.15117780172173786,-0.055466376090200414,0.22010497171469745,0.3063221550072952,0.0
0.3913826053568904,-0.6678870079133843,-0.15117780172173786,0.1278146424012265,0.25893887372626695,-0.5696638744979128,0.0
0.1288874868369631,-0.8535562454179353,-0.3819835774141697,0.03198485953952551,0.8691857820915242,-4.009698369929203,0.0
0.5060354076609144,-0.36006693150299635,-0.1365698368652101,0.024653613945779456,0.5938812130265657,-3.9517539381201803,0.0
0.5060354076609144,-0.36006693150299635,-0.1365698368652101,-0.10154845931609398,0.28529044465397585,-1.769457935090949,0.0
0.5965511114665706,-0.12553729856650805,-0.1161186886231345,-0.2115170665787746,-0.20429399756461625,-0.3634492729317818,0.0
0.5271557385489003,-0.15973951977566173,-0.1161186886231345,-0.4812019999008209,-0.6578183552916141,0.017451265578215455,0.0
0.6991353645214073,-0.26234622616712516,-0.20668805027710097,-0.12563682172814736,0.004438181343077748,0.42732409274503735,0.0
0.6418087521111605,-0.433357417740898,-0.27972784898910763,0.32052151614981655,0.4357717874603127,0.8508309371862602,0.0
0.566379210198017,-0.3747249774337744,-0.21837441704819666,0.23149933764318606,0.241602311234459,0.43243687585548096,0.0
0.4668121472700332,-0.3991551965317442,-0.19208008542057325,0.13409856719586594,0.310948544285694,0.3037657634520735,0.0
0.49396685841172955,-0.31609262265465476,-0.10443232185203866,0.21997882162693203,0.3366066608334091,0.40431669346629256,0.0
0.5512932595637426,-0.3307506685854326,-0.11904028670856635,0.2597769864451454,0.590413873462609,0.2671243313091463,0.0
0.5905167312128585,-0.2232579611383772,-0.2300607838192925,0.06759374116131249,0.772101018604602,-0.05583161429742027,0.0
0.4336230558746267,-0.4919897725200176,-0.21253122087733298,0.09377674836505864,0.92743662665088,-0.32765995744967846,0.0
0.8077537865717234,-0.34052275622462036,-0.13949143495064192,0.0953477104028409,1.4620960772169824,0.02597253092173561,0.0
0.7142211038974484,-0.3991551965317442,-0.142413020250758,-0.0031003680696673444,1.33727280021037,-0.1163325935594789,0.0
0.6659462731260015,-0.3209786664742487,-0.09566755316637474,-0.17747916615564752,0.693739760201469,-0.32765995744967846,0.0
0.5301729286757562,-0.29654844737627883,-0.040157304611011656,-0.04656415568475366,0.5883335103226277,-0.20836225303358394,0.0
0.44569181638204697,-0.3209786664742487,-0.019706162761593954,0.010514789544799799,0.6237000896862372,-0.1964324742774244,0.0
0.6176712310963189,-0.3454088000442142,-0.043078896303785606,-0.1523434841420424,0.3983248111247276,0.004669370161232124,0.0
0.6508603224917243,-0.28189031591749675,-0.025549346147141886,-0.24293667139109443,0.13758295319960806,0.04812781873625047,0.0
0.5060354076609144,-0.31609262265465476,0.03580408419560461,-0.15967472454638412,-0.23203249416830968,0.027676785029758393,0.0
0.4577605768894675,-0.267232269986719,0.02411771582634432,-0.1397756429356474,-0.37211190286276113,0.028528912083769776,0.0
0.5512932595637426,-0.29654844737627883,-0.005098204297724195,-0.021952129679667403,-0.37419226600274247,-0.09673368171040443,0.0
0.5995683015934252,-0.3747249774337744,-0.048922086081991424,-0.016715525684134487,-0.2500625110401114,-0.07287414498446056,0.0
0.5995683015934252,-0.3209786664742487,-0.12488347009411425,-0.09474088050886041,0.10984446082491392,0.04983207284427326,0.0
0.5754307805785837,-0.2916624035566846,-0.09566755316637474,-0.1402993025368308,0.29985315579381483,-0.11718471022030275,0.0
0.563362020071162,-0.267232269986719,-0.07521640492429911,-0.10678506011814728,0.423289439460455,-0.29868765839966627,0.0
0.5693964003248716,-0.3747249774337744,-0.051843671382107465,-0.058608332100560954,0.3872294057168515,-0.27397598422652325,0.0
0.5724135904517267,-0.3209786664742487,-0.025549346147141886,-0.09055159731243409,0.2090095832228183,-0.16149529624252001,0.0
0.5301729286757562,-0.25257413852793703,-0.019706162761593954,-0.0732708169010939,0.07933211709825076,-0.16149529624252001,0.0
0.5301729286757562,-0.27211831380631296,-0.046000487996559564,-0.12563682172814736,0.017613966806932186,-0.19131973273973119,0.0
0.5362073089294658,-0.31609262265465476,-0.05476526946753934,-0.23141614898788124,0.003744718505085497,-0.33021634900490004,0.0
0.5573276398174523,-0.3014344911958728,-0.040157304611011656,-0.25917013100332803,0.1264875562497304,-0.3694141727030491,0.0
0.563362020071162,-0.24768813747234508,-0.040157304611011656,-0.28640045900618083,0.12926140760169944,-0.29698342507801856,0.0
0.5543104496905977,-0.17928365229003537,-0.03139252953268978,-0.28797143381788143,-0.01636568688069304,-0.3864566722105266,0.0
0.5543104496905977,-0.17928365229003537,-0.03139252953268978,-0.29216071701430774,0.03911129998319485,-0.41116834638366956,0.0
0.5724135904517267,-0.1695116074148495,-0.048922086081991424,-0.1622930249474108,-0.17170126955297563,-0.2552292098246479,0.0
0.5512932595637426,-0.24280209365275113,-0.025549346147141886,-0.14082296293638408,-0.21469593167650183,-0.08139540513138695,0.0
0.5844823509591484,-0.2134858734991894,-0.06060845285308724,-0.14239394333667404,-0.05866689462422538,-0.03197206717828886,0.0
0.587499541086003,-0.18905573992922353,-0.06937322153875121,-0.09735917931314726,0.15561297852940828,-0.07372627203847196,0.0
0.5995683015934252,-0.2134858734991894,-0.06645163623863516,-0.07484179809975378,0.42190253070046746,-0.01578166354525995,0.0
0.54525887931003,-0.24768813747234508,-0.06060845285308724,-0.0732708169010939,0.4399325475722693,0.06857885536582656,0.0
0.5211213582951902,-0.23303000601356308,-0.046000487996559564,-0.09421722010930712,0.3317524294254617,0.07113523474153162,0.0
0.5693964003248716,-0.19394174098481548,-0.046000487996559564,-0.024570438064393085,0.4593495070360525,0.006373624269254908,0.0
0.563362020071162,-0.19882778480440932,-0.010941387683272083,0.009467468745693215,0.41011367091259754,-0.07202201793044917,0.0
0.5573276398174523,-0.20371382862400325,-0.022627754454367918,-0.10469041851993412,0.26656695648618334,0.046423567226524576,0.0
0.5392244990563209,-0.18905573992922353,-0.03431412122546374,-0.19947289016296732,0.15214566433944698,0.10607241943457181,0.0
0.5362073089294658,-0.2134858734991894,-0.005098204297724195,-0.15758008454491076,0.0307897522707866,0.07880437319343393,0.0
0.5512932595637426,-0.17928365229003537,0.0036665707805976816,-0.11463995972448744,0.11608562213784501,0.12396707457732661,0.0
0.5935339213397156,-0.19394174098481548,-0.01386297937604605,-0.13820466253535743,0.3185766439616073,0.188728694306036,0.0
0.644825942238015,-0.2379160498331573,-0.06060845285308724,-0.22513223058020096,0.527308814411303,0.36511886976814345,0.0
0.6538775126185817,-0.22814400495797113,-0.0635300381532033,-0.3230566614270743,0.7180109679891966,0.6412078689768338,0.0
0.6810322237602778,-0.17928365229003537,-0.07813800300973098,-0.3607601846470745,0.8525426739797101,0.876394769592977,0.0
0.5573276398174523,-0.3209786664742487,0.015352940748022443,-0.29058974220260714,0.5786250136747391,0.8780990029146247,0.0
0.5784479707054387,-0.2770043576259068,0.02411771582634432,-0.48591493710984124,-0.25075596542010514,1.1013561455609837,0.0
0.6146540409694644,-0.28189031591749675,0.029960899211892232,-0.4812019999008209,-0.33813223225913897,1.1226593530908313,0.0
0.6146540409694644,-0.25746018234753093,0.021196124133570367,-0.4466404263042221,-0.18210320366486094,1.0195520315213904,0.0
0.5362073089294658,-0.2379160498331573,0.0036665707805976816,-0.3701860718390338,0.29083814735791375,0.7025609752929037,0.0
0.5211213582951902,-0.26234622616712516,0.021196124133570367,-0.37385167547502907,0.241602311234459,0.5389526640682168,0.0
0.4517261966357571,-0.3209786664742487,0.021196124133570367,-0.4366908978735872,-0.21469593167650183,0.5278750227592565,0.0
0.5603448299443073,-0.5603943004663293,0.021196124133570367,-0.08636232050296695,0.05991517137871506,0.26797644796997017,0.0
0.5000012386654397,-0.433357417740898,0.053333635151330584,-0.06855787330511426,-0.2528363623920804,0.02000764674024962,0.0
0.5512932595637426,-0.36006693150299635,0.021196124133570367,-0.18742870736020084,-0.5357690311329524,0.006373624269254908,0.0
0.5603448299443073,-0.2232579611383772,0.015352940748022443,-0.31048882461171373,-0.7514358130465737,0.10181178936110863,0.0
0.48793247815801916,-0.31609262265465476,-0.0635300381532033,-0.3968927330553738,-0.5551859567647416,0.2364477781511113,0.0
0.5150869780414798,-0.39426915271215035,-0.2505119192760522,-0.6555808043737604,0.919115038762979,0.45203576691818015,0.0
0.5301729286757562,-0.45290150749126973,0.07378477859891275,-0.3209620198288611,-0.13980199592132872,0.19043293802087122,0.0
0.5271557385489003,-0.4480154636716759,0.015352940748022443,-0.18585772616154095,0.022468202443878735,0.03619804777498163,0.0
0.5362073089294658,-0.433357417740898,0.009509757362474539,-0.19947289016296732,-0.030928398020531985,-0.0686135097144036,0.0
0.563362020071162,-0.4431294198520818,-0.019706162761593954,-0.13453904213359408,0.04327207383939896,-0.16575592111938944,0.0
0.6146540409694644,-0.413813242462522,-0.05476526946753934,-0.7058521516352024,0.06407594523491919,0.0668746022321651,0.0
0.5090525977877697,-0.3454088000442142,0.015352940748022443,-0.1340153817340408,0.23328075717855187,-0.05157097902736331,0.0
0.49396685841172955,-0.36495288979458634,0.029960899211892232,-0.09578819811448738,0.08834712976315089,-0.049014597865329135,0.0
0.5935339213397156,-0.45778755131086396,0.015352940748022443,0.029890217941312323,0.34146090915735333,-0.21347501535765237,0.0
0.5573276398174523,-0.4480154636716759,-0.019706162761593954,0.009991135532205727,0.12787448192571493,-0.22455265666661287,0.0
0.5211213582951902,-0.34052275622462036,-0.046000487996559564,-0.022475796466179917,0.2804362132460285,-0.22284840255859004,0.0
0.5030182175340591,-0.31609262265465476,-0.040157304611011656,-0.16491132455006755,0.19236648356900254,-0.07713476986132997,0.0
0.5754307805785837,-0.36495288979458634,-0.05476526946753934,-0.18166844615859423,0.11608562213784501,-0.0975858087644158,0.0
0.5935339213397156,-0.31120657883506053,-0.048922086081991424,-0.20785145016886078,0.20970303760281206,0.07198736122716556,0.0
0.7323242446585798,-0.31120657883506053,0.0036665707805976816,0.16551816562122668,1.2166104524756836,0.11800219039584064,0.0
0.5724135904517267,-0.3551808876834024,0.0036665707805976816,0.26920286086318623,1.2374142868674605,0.2475254194600718,0.0
0.5181041681683349,-0.3893831088925561,0.12345184296964565,0.15923424082658708,0.3435412722973346,0.4562963917950497,0.0
0.46379495714317837,-0.36495288979458634,0.0650200029212792,0.10163163519748035,-0.08432500271394196,0.39749967703420125,0.0
0.46379495714317837,-0.36495288979458634,0.0650200029212792,-0.06070297369877411,-0.10166156520574991,0.28672324315822073,0.0
0.3883654152300351,-0.3747249774337744,0.056255227243645664,-0.08217303730654062,-0.069762291574103,-0.3216950576784111,0.0
0.4396574361283366,-0.3551808876834024,0.027039307519118264,-0.0387092496914543,-0.2438213539561796,-0.21943989434254443,0.0
0.4396574361283366,-0.3551808876834024,0.027039307519118264,-0.08636232050296695,0.008598954142032048,-0.34640673185155385,0.0
0.6357743718574503,-0.28189031591749675,-0.008019795990498147,-0.2235612493815411,0.3587974716491614,-0.16831231267461116,0.0
0.6357743718574503,-0.28189031591749675,-0.008019795990498147,-0.2560281749929675,0.43646524184030644,-0.03026781307026606,0.0
0.6719806533797112,-0.3014344911958728,0.06794159481382372,0.17127843640327203,0.47945992087982947,0.4741910495361014,0.0
0.5603448299443073,-0.40404115482333425,0.12929502635519358,0.31423761690301405,0.1140052378528675,0.06005759099666774,0.0
0.49698404853858485,-0.48221777040883373,0.056255227243645664,0.27129750246139944,-0.20706784891658536,-0.33447697388176956,0.0
0.5120697879146245,-0.4235853301017099,0.07378477859891275,0.1141994847867594,-0.4178803994222593,-0.31317380792467236,0.0
0.5422416891831755,-0.26234622616712516,-0.008019795990498147,-0.04394585368698722,-0.08293807703795744,-0.09417730054837029,0.0
0.49396685841172955,-0.24768813747234508,0.006588162473371633,-0.07850741450966758,-0.12315888780951449,0.08647351148294269,0.0
0.47284652752374356,-0.36006693150299635,-0.008019795990498147,-0.14501224333851576,-0.3700315058907858,0.24582116535204904,0.0
0.5512932595637426,-0.3991551965317442,0.029960899211892232,-0.1287787825287273,-0.418573853802253,0.22963076171902014,0.0
0.5754307805785837,-0.4089271986429281,0.021196124133570367,0.013656751942119549,-0.36656420015882296,0.014894884416181278,0.0
0.563362020071162,-0.34052275622462036,0.05041204345855663,0.15556863719059177,0.08279942917371243,-0.03793695655636859,0.0
0.5844823509591484,-0.3454088000442142,-0.019706162761593954,0.10320262278309944,-0.05242573754029352,0.3012093926832269,0.0
0.5573276398174523,-0.33563671240502646,-0.06937322153875121,-0.15705642414535748,-0.16060586414509948,0.24156053008199205,0.0
0.5512932595637426,-0.28677635973709065,0.03872567588837857,-0.16595864534917412,-0.4851462524175159,0.08732563853695408,0.0
0.5120697879146245,-0.2770043576259068,0.06794159481382372,-0.2769745718142215,-0.9698764801441578,0.08902989134582841,0.0
0.46982933739688826,-0.267232269986719,-0.016784571068820017,-0.29896829582154133,-0.9026106271489012,0.06431822301885359,0.0
0.6146540409694644,-0.28189031591749675,0.0007449790878237374,-0.014620896859839761,-0.2646252221799504,0.24326478419001482,0.0
0.5482760694368876,-0.26234622616712516,0.006588162473371633,0.027271909556586763,-0.45255352440587526,0.37875290263232575,0.0
0.6659462731260015,-0.3893831088925561,-0.08690277169539495,0.07021203677211978,-0.20013322053666283,0.6284259527734753,0.0
0.7262898644048682,-0.45778755131086396,-0.06937322153875121,0.1356695547814851,0.012066268331993335,0.2236658723409404,0.0
0.566379210198017,-0.36495288979458634,-0.17162894996381328,-0.11463995972448744,-0.11067657364165084,0.11118517916034328,0.0
0.4577605768894675,-0.26234622616712516,0.03580408419560461,-0.09474088050886041,-0.31178066133143,0.15975639005942996,0.0
0.40043417573745566,-0.36495288979458634,0.009509757362474539,0.10529726438131266,-0.1994397492406721,0.23389139698907713,0.0
0.46379495714317837,-0.31609262265465476,-0.0635300381532033,0.026224588757480155,-0.3339714721471823,0.08136075240674544,0.0
0.5362073089294658,-0.30632053501546663,-0.08105958830984701,0.030413871953906418,-0.08640539122791875,0.19213719212889396,0.0
0.6086196607157542,-0.3844970650729622,-0.0635300381532033,0.06026249556756643,0.2055422774908555,0.008930000234695309,0.0
0.48491528803116435,-0.35029484386380855,-0.10151073655192262,-0.08793329531466763,0.49471608639966225,-0.10269856069529663,0.0
0.48491528803116435,-0.35029484386380855,-0.10151073655192262,-0.043422193287433936,0.5106657062994886,-0.17257293755148057,0.0
0.5905167312128585,-0.35029484386380855,-0.043078896303785606,-0.07903107490922087,0.9378385438467683,-0.4980852435337064,0.0
0.5573276398174523,-0.28189031591749675,-0.06060845285308724,-0.04761147648386026,1.0383906130656535,-0.31828654946236545,0.0
0.6056024705888992,-0.3698389336141802,-0.046000487996559564,0.13462222120846,2.1097899788338217,-0.40349921329075444,0.0
0.49094966828487446,-0.3747249774337744,-0.046000487996559564,0.10896289356514482,1.9461328505636306,-0.049014597865329135,0.0
0.4547433867626124,-0.3893831088925561,-0.05768685476765538,-0.27383260941690174,1.6021755535754219,-0.03367632128631165,0.0
0.54525887931003,-0.34052275622462036,0.0708631869061388,-0.3759463170732423,0.9947024796461366,-0.3634492729317818,0.0
0.5995683015934252,-0.3014344911958728,0.10300069792389902,-0.24764961498707405,1.1756961365761418,-0.4665565945012225,0.0
0.5844823509591484,-0.33563671240502646,0.15851094328293314,0.16342352402301344,1.7152098692981828,-0.6148265979673291,0.0
0.5392244990563209,-0.29654844737627883,0.1935700435962206,0.2990514717029276,2.7727400798024884,-0.44269703698890334,0.0
0.3853482251031798,-0.19394174098481548,0.18480527491055662,-0.08793329531466763,1.3157755452705933,-0.2995397750604901,0.0
0.48491528803116435,-0.25746018234753093,0.15851094328293314,-0.24974425658528723,1.2131430790797328,-0.2347781813147495,0.0
0.5000012386654397,-0.3014344911958728,0.24323710876603574,-0.2397947153807339,0.20692920316684,-0.22796116488265852,0.0
0.48491528803116435,-0.18905573992922353,0.281217807164755,-0.21204072697832788,-0.023300315260615625,-0.11462833945145612,0.0
0.47284652752374356,-0.3209786664742487,0.2958257720212827,-0.010431613663413428,0.19375340924498705,-0.011521033471796754,0.0
0.5090525977877697,-0.2916624035566846,0.3250416761637065,0.1152467928119476,0.24437616258642803,-0.05157097902736331,0.0
0.5331901188026112,-0.25746018234753093,0.2724530256937752,0.016275047552926764,0.14313065590354615,0.008930000234695309,0.0
0.7232726742780137,-0.25746018234753093,0.21694277713841226,-0.25131523139698786,0.8421407567838214,0.5440654471786605,0.0
0.563362020071162,-0.22814400495797113,0.24908029215158364,0.1351458752210541,0.27974274195003773,0.02341614975970143,0.0
0.563362020071162,-0.22814400495797113,0.24908029215158364,-0.3225329946405618,0.3546366777052108,0.314843404761034,0.0
0.5392244990563209,-0.2379160498331573,0.28998257585041903,0.07021203677211978,0.4239829276724428,0.0029651160532093595,0.0
