acc_x,acc_y,acc_z,gyro_x,gyro_y,gyro_z,activity
-1.1253767331536264,0.24036528333321705,3.055739713353709,0.06374007515325195,-0.9255586558205453,-0.2873230193826005,0.0
-1.194636585507708,0.3440894077897913,3.2693358386235905,0.34361485564640926,0.25480925942750554,-0.41331205243068503,0.0
-1.1326672573611458,0.44013031358012744,3.4829314481825344,0.2264023449295317,0.2621464388018178,0.5162068638306173,0.0
-1.1326672573611458,0.44013031358012744,3.4829314481825344,0.2264023449295317,0.2621464388018178,0.5162068638306173,0.0
-1.1326672573611458,0.44013031358012744,3.4829314481825344,0.496708773989077,-0.6439946098695898,0.24556381566573296,0.0
-1.0925694380284656,0.3364061555004351,3.3282583919526187,0.47637599092235755,0.16859745771046206,0.04398139631427391,0.0
-1.1363125194649057,0.48622989456250026,3.2693358386235905,0.39743695249719946,0.32818100842572784,-0.10907191360943792,0.0
-1.1727650766938262,0.3825057364828079,2.9378940909847135,0.15164946343343488,0.46483589596871794,-0.07920785579131465,0.0
-1.1253767331536264,0.32872286958796126,3.011547927284673,0.055965775410188864,0.373121198534715,-0.16880002924568444,0.0
-1.1691198145900668,0.32872286958796126,3.011547927284673,0.011114045053741273,0.19978045886506415,-0.1202709324455703,0.0
-1.220153356425349,0.26725671678064034,3.0852012478736928,0.036231013980412445,0.05578840313398692,0.07851171734604764,0.0
-1.227443880632869,0.3479310507460285,3.063105096983705,0.09603331990668465,-0.36334770015419826,0.16810390218307267,0.0
-1.1581840282787872,0.34024779845667213,3.0189133109146686,0.1600217845855051,0.008096769361354447,0.1018430132278724,0.0
-1.1581840282787872,0.34024779845667213,3.0189133109146686,0.18812887263781228,0.07137989811817536,0.007584571491013482,0.0
-1.1472482419675079,0.3440894077897913,3.063105096983705,0.17138422303972442,0.09614286732025414,-0.020412986981972796,0.0
-1.1837007991964283,0.32872286958796126,3.09256663150369,0.1486593534252332,0.18969184841160996,-0.028812253954735897,0.0
-1.1800555370926689,0.32103961729860486,3.0999320151336844,0.06732821346552047,-0.18175262250222085,0.17463665842804357,0.0
-1.1837007991964283,0.33256451254419817,3.0852012478736928,-0.02117919992762729,-0.2734672975637733,0.3099581825104858,0.0
-1.161829290382547,0.3248812602548421,3.0852012478736928,-0.1150688248635313,-0.1487353376902659,0.3603537957297196,0.0
-1.150893504071268,0.3248812602548421,3.1735858514336437,-0.1294213733259523,-0.1065465786604206,0.39208435858430746,0.0
-1.1800555370926689,0.34024779845667213,3.2030473859536266,-0.13360753025501376,-0.1478181902684769,0.5031413513406755,0.0
-1.1800555370926689,0.3479310507460285,3.2104127695836246,-0.1318134671676717,-0.2863073614688199,0.5666024770498513,0.0
-1.099859962235985,0.37482251781656967,3.276701222253587,-0.08397161950907492,-0.25420721289242876,0.5451376577478534,0.0
-1.099859962235985,0.37482251781656967,3.276701222253587,-0.08038347874649591,0.04019690814979848,0.4518124969858648,0.0
-1.0816337155258633,0.313356331386131,3.1367589332836654,-0.0684230241257942,-0.10287799456637708,0.2390310366554516,0.0
-1.0816337155258633,0.313356331386131,3.1367589332836654,0.011712068514171114,0.026439705212631837,0.1849024361285989,0.0
-1.0816337155258633,0.313356331386131,3.1367589332836654,0.03204485158089048,0.020019678853221187,0.17277015339157897,0.0
-1.1253767331536264,0.29798979318430063,3.217778153213619,0.18573677879609293,-0.1826697699240099,0.1419728430552234,0.0
-1.1107957485472644,0.30183143614053765,3.2104127695836246,0.23477467337554936,-0.25420721289242876,0.12050805220986324,0.0
-1.1290219952573863,0.313356331386131,3.1514897005436553,0.22401025108781236,-0.39453069012257513,0.18770219368329583,0.0
-1.1071504864435049,0.3056730790967748,3.2030473859536266,0.21384385955445268,-0.2395328765162546,0.15317187327401102,0.0
-1.1217314710498667,0.33256451254419817,3.0852012478736928,0.17018818341281225,-0.14048101089416457,0.15783812448251736,0.0
-1.1253767331536264,0.3364061555004351,3.0999320151336844,0.15105143997300505,-0.15423821103477492,0.15317187327401102,0.0
-1.1326672573611458,0.33256451254419817,3.122028166023673,0.09483727480931187,-0.19092408553388604,0.20823372631909606,0.0
-1.1217314710498667,0.3248812602548421,3.114662782393677,0.055965775410188864,-0.20834988654787776,0.21103348387379295,0.0
-1.118086208946107,0.33256451254419817,3.011547927284673,0.035034968883039655,-0.13772956862879746,0.24089754169191624,0.0
-1.1326672573611458,0.313356331386131,3.1514897005436553,0.10799377999784696,-0.3092360358273206,0.23343153292871305,0.0
-1.1253767331536264,0.32103961729860486,3.1588550841736525,0.19291306032125094,-0.27255016132820953,0.1811694260556697,0.0
-1.103505224339745,0.3364061555004351,3.0852012478736928,0.14925736959171554,-0.016666194946750826,0.08224472457331305,0.0
-1.0962147001322253,0.34024779845667213,3.048374329723713,0.1480613299648034,0.25205782834836366,-0.020412986981972796,0.0
-1.118086208946107,0.3056730790967748,3.011547927284673,0.1677960895710929,0.28782654423946047,-0.026012496400038988,0.0
-1.1399577815686652,0.29030654089494456,3.03364407817466,0.22341223492133006,-0.08820364700397768,0.01878359601847351,0.0
-1.1071504864435049,0.313356331386131,3.107297398763681,0.19650120108382996,-0.15974109556550914,0.07757846482781537,0.0
-1.0779884534221036,0.34024779845667213,3.0999320151336844,0.07928867486731397,0.11907153049252964,0.00011855703648267022,0.0
-1.0889241759247057,0.32872286958796126,3.0852012478736928,0.009319974672451773,0.21812338492839445,-0.02134623380887747,0.0
-1.0889241759247057,0.32872286958796126,3.0852012478736928,-0.01579698878375879,0.2126205003976602,-0.019479734463740496,0.0
-1.099859962235985,0.30183143614053765,3.1367589332836654,0.030250784846574726,0.22362626945912867,-0.026012496400038988,0.0
-1.1253767331536264,0.30183143614053765,3.1514897005436553,0.029652761386144876,-0.0019918459860732846,0.025316357954772023,0.0
-1.1253767331536264,0.30183143614053765,3.1514897005436553,-0.0008464168609079157,0.09063998278951993,0.042114892522787224,0.0
-1.1071504864435049,0.29798979318430063,3.1883166186936363,-0.0504823276068467,0.029191144681442623,0.020650098209274312,0.0
-1.103505224339745,0.27494000269311425,3.1809512350636395,-0.110882653346575,-0.015749047874531324,-0.003614450190782733,0.0
-1.103505224339745,0.27494000269311425,3.1809512350636395,-0.1694889232929087,-0.10838087350399868,0.04678115200150395,0.0
-1.118086208946107,0.26725671678064034,3.1367589332836654,-0.14437195254275076,-0.1065465786604206,0.05331391500492639,0.0
-1.1326672573611458,0.25957346449128427,3.0852012478736928,-0.02177722338805714,0.013599649697254216,0.019716847113873913,0.0
-1.1399577815686652,0.255731821535047,3.0852012478736928,0.053573683391956395,-0.14690104284668787,0.07291220508231763,0.0
-1.1399577815686652,0.255731821535047,3.0852012478736928,0.02367253042882029,-0.2936445408431322,0.11490854279179703,0.0
-1.1253767331536264,0.2787816120262334,3.1514897005436553,0.0027417239016711004,-0.2120184762350339,0.05238066319811004,0.0
-1.1071504864435049,0.30183143614053765,3.1293935496536682,-0.08995185411337328,-0.1762497379714866,0.011317578718278884,0.0
-1.1071504864435049,0.30183143614053765,3.0999320151336844,-0.12164707563431199,-0.1065465786604206,-0.023212738845342078,0.0
-1.1071504864435049,0.2826232549824706,3.09256663150369,-0.1383917179384523,0.0878885405241528,-0.05401004918169767,0.0
-1.0962147001322253,0.30183143614053765,3.1367589332836654,-0.20357623865556687,0.2126205003976602,-0.08107436082777926,0.0
-1.1253767331536264,0.32103961729860486,3.1367589332836654,-0.25560422865532983,0.12090582533610773,-0.0726750881636885,0.0
-1.1326672573611458,0.30183143614053765,3.122028166023673,-0.24483982095548804,0.15850884725700784,-0.041877777827332936,0.0
-1.220153356425349,0.2480485356225731,2.959990241874702,-0.32736701473112,-0.27255016132820953,-0.10720540857297331,0.0
-1.0597621429033048,0.20963220692955645,3.048374329723713,-0.1371956710175926,0.06312557691518661,-0.15760102179220722,0.0
-1.1071504864435049,0.21347384988579335,3.1809512350636395,-0.013404902235986938,0.022771118322031998,-0.16973329314657196,0.0
-1.1107957485472644,0.2249987451313867,3.2325089204736117,0.05118159137372393,0.097977150977607,-0.30972107982017566,0.0
-1.1326672573611458,0.255731821535047,3.166220467803647,0.06553414428089423,0.39421555567718697,-0.445042615285273,0.0
-1.0962147001322253,0.2941481838511815,3.2398743041036075,0.030250784846574726,0.6776139188441711,-0.6046286706937896,0.0
-1.161829290382547,0.27494000269311425,3.1735858514336437,0.025466600810109805,0.5042732015469708,-0.631692982339871,0.0
-1.1837007991964283,0.23268199742074283,3.107297398763681,0.13610086805015417,0.3758726519863074,-0.5719648667036245,0.0
-1.1071504864435049,0.255731821535047,3.247239687733603,0.1468652830439437,0.43365290600034107,-0.30505480584635913,0.0
-1.1581840282787872,0.22115710217514978,3.1735858514336437,0.08646495183375481,0.11907153049252964,-0.4357100673376396,0.0
-1.150893504071268,0.27494000269311425,3.1883166186936363,0.06553414428089423,0.1988633002570499,-0.46090789671256693,0.0
-1.1982818476114676,0.2288403880876237,3.122028166023673,0.06493612116236817,-0.04051201183306706,-0.33771863260183427,0.0
-1.1800555370926689,0.2480485356225731,3.0999320151336844,0.1002194823062066,-0.02675481029417856,-0.2817235042732066,0.0
-1.2493153894467504,0.12511623000793134,3.1514897005436553,0.04998554445286427,-0.10471228940995514,0.09717675632803849,0.0
-1.1837007991964283,0.23268199742074283,3.122028166023673,0.02128043658710096,-0.32482753081150895,-0.14360223401872266,0.0
-1.1909913234039482,0.3171979743423679,3.0999320151336844,0.06852425964558859,0.17501748966298533,-0.17346630321950116,0.0
-1.194636585507708,0.30183143614053765,2.9968171600246802,-0.18802764327228608,-0.09278937851981024,-0.004547702709015052,0.0
-1.1691198145900668,0.2288403880876237,3.0778358642436974,-0.20297822248908454,-0.2707158664846314,-0.03347851085456981,0.0
-1.227443880632869,0.24036528333321705,3.2914314738026405,-0.13420556100939107,-0.10287799456637708,0.2222325140925806,0.0
-1.161829290382547,0.20963220692955645,3.1293935496536682,-0.280721199405488,-0.3560105207798858,0.22129926157434834,0.0
-1.0706979292145842,0.2941481838511815,3.2030473859536266,-0.39853175546463787,0.5051903377825346,-0.1967975820273431,0.0
-1.1399577815686652,0.22115710217514978,3.2030473859536266,-0.38178709857260257,0.3318495981128837,-0.2089298761470183,0.0
-1.1399577815686652,0.22115710217514978,3.2030473859536266,-0.26517260402220744,0.07321419296175341,-0.14080247646402577,0.0
-1.1654745524863066,0.20963220692955645,3.3650853101025997,-0.15214625023439107,-0.13772956862879746,-0.20986311728259535,0.0
-1.1399577815686652,0.21731545921891257,3.2325089204736117,-0.0905498702798556,0.28048936486514814,-0.008280709936280455,0.0
-1.2566059136542698,0.29030654089494456,3.2693358386235905,-0.24483982095548804,0.15575740499164073,-0.1482684966098842,0.0
-1.1654745524863066,0.2480485356225731,3.114662782393677,-0.3423175939479185,0.4153099575645602,-0.11933767992733801,0.0
-1.2456701273429904,0.24036528333321705,3.114662782393677,-0.2615844778475233,0.29057799769105275,-0.22199538863696003,0.0
-1.2711868982606316,0.2941481838511815,3.2619704549935946,-0.2334773970891636,0.49693602217265864,-0.237860670064254,0.0
-1.103505224339745,0.20194892101708253,3.3650853101025997,-0.13241148333415403,1.1710389409248179,-0.1874650796103305,0.0
-1.0889241759247057,0.1673742352803028,3.3208930083226242,-0.116264871784391,1.524140373913066,-0.020412986981972796,0.0
-1.2493153894467504,0.19042402577148917,3.247239687733603,0.06194600591164174,1.8515619028157257,-0.0726750881636885,0.0
-1.296703669178273,0.18274077348213305,3.3135276246926284,0.2497252525923478,1.2939366283271976,-0.26585822284591265,0.0
-1.2602511757580295,0.12895787296416858,3.3945468446225826,0.2712540825799267,0.5978221714521014,-0.17253303931861363,0.0
-1.2711868982606316,0.14816605412223585,3.2619704549935946,0.21384385955445268,0.30983805998994696,-0.12680370007319644,0.0
-1.340446750614713,0.14048276820976163,3.195682002323632,0.0768965828490815,-0.6173973458239329,0.1027762657461047,0.0
-1.3805445699473935,0.12895787296416858,3.0852012478736928,0.15643365111687355,-1.1731883030964325,0.1811694260556697,0.0
-1.4789663915141986,0.2864648979387076,3.2398743041036075,0.1677960895710929,-1.490521109683386,0.3603537957297196,0.0
-1.2019271097152273,0.1558493064115919,3.225143536843616,0.03383892196217998,-1.2823288127306525,0.4555454615281729,0.0
-1.2638964378617892,0.17889913052589615,3.217778153213619,-0.01639501224418862,-1.130999588811488,0.3892845896469556,0.0
-1.4716759311153564,0.35945594599162156,3.276701222253587,0.04101519801687736,-0.560534272790364,0.19796796000119593,0.0
-1.0561168807995451,0.14816605412223585,3.2398743041036075,0.11517005787603123,-0.2294442436903499,0.15877137700074964,0.0
-1.1217314710498667,0.14816605412223585,3.2840660901726433,0.1695901599523824,-0.2762187510153657,0.07384545760054996,0.0
-1.1472482419675079,0.15969094936782888,3.2030473859536266,0.1935110764877333,-0.7953238785336552,0.08971073902784388,0.0
-1.1472482419675079,0.1366411252535247,3.276701222253587,0.10918982691870663,-1.629010247325053,0.25769608702009766,0.0
-1.114441010651024,0.12127458705169439,3.3208930083226242,0.1869328257169526,-1.7225593067199854,0.2688950944735749,0.0
-1.1107957485472644,0.21731545921891257,3.3135276246926284,0.18155062186703158,-0.8246725065411022,0.2306317753740161,0.0
-1.0743431913183439,0.27494000269311425,3.3135276246926284,0.20786363953804932,-0.03959486441127802,0.10650927581903394,0.0
-1.0634074050070643,0.14816605412223585,3.0999320151336844,0.12354238267507517,-0.1790011802368537,0.8101811908033436,0.0
-1.0378906340894232,0.26341507382440343,3.2030473859536266,0.024868577349679958,0.11173436230444259,0.2698283583744624,0.0
-1.0597621429033048,0.2288403880876237,3.1293935496536682,0.07988669741600037,0.42723286286159246,0.09904325567317551,0.0
-1.311284717593312,0.021392088739798056,2.9305287073547177,-0.30524015398916365,-0.9429844680207624,0.8857745878668842,0.0
-1.1326672573611458,0.11359133476233829,3.1514897005436553,-0.2328793517468913,-1.358451970435566,0.8008486883863312,0.0
-1.114441010651024,0.12127458705169439,3.1514897005436553,-0.2998579501392427,-1.1089880506885514,0.8857745878668842,0.0
-1.099859962235985,0.08285825835867772,3.2546050713636,-0.12762731023861035,-1.2254656502072814,0.8913741257415885,0.0
-1.041535896193183,0.07517498925776286,3.2914314738026405,0.03563299234346948,-0.9686645510859544,0.7924494271048957,0.0
-1.030600109881904,0.08285825835867772,3.2398743041036075,0.09423925134888202,-0.7907380631211334,0.5964665121026641,0.0
-1.0451811582969428,0.09054151064803409,3.1735858514336437,0.21145176571273333,-0.5486113227484308,0.44901272804851255,0.0
-1.0561168807995451,0.11359133476233829,3.1293935496536682,0.2909888348922688,-0.2046812968607216,0.21663299898318678,0.0
-1.0233095856743841,0.11743297771857523,3.048374329723713,0.2874006941296899,0.06220842949339758,-0.08760711707275012,0.0
-1.0160190614668647,0.08285825835867772,3.0704704806137015,0.2473331587506284,0.0677113140241318,-0.22479515757431218,0.0
-1.1290219952573863,0.10206643951674493,2.9452594746147094,0.08706297529418464,-0.22027279184491003,0.19703470748296362,0.0
-0.9759213059428614,0.048283538998780365,2.982086392764689,0.025466600810109805,-0.28080447693808563,-0.04374428286379754,0.0
-0.9759213059428614,0.048283538998780365,2.982086392764689,-0.006826644171258781,0.03561117383740961,-0.39091399199310994,0.0
-1.0269548477781438,0.07517498925776286,3.122028166023673,0.0057318375568465195,0.14016591000745232,-0.3974467710033911,0.0
-1.0378906340894232,0.06749172015684761,3.0999320151336844,0.0003496300599517518,-0.11296661061294387,-0.31252082599221737,0.0
-0.9868570922541408,0.09054151064803409,3.063105096983705,0.02128043658710096,-0.024003369427089593,-0.34705115778415746,0.0
-0.9868570922541408,0.10974969180610133,3.055739713353709,-0.020581176467197457,0.12824300471042005,-0.46090789671256693,0.0
-1.0378906340894232,0.09822479656050799,3.0410089460937173,-0.03971791261305718,-0.0074947266715425925,-0.3461179166485804,0.0
-1.1071504864435049,0.14048276820976163,2.982086392764689,-0.04928628068598702,-0.22852710745478616,-0.09134012714567935,0.0
-1.1071504864435049,0.14048276820976163,2.982086392764689,-0.110882653346575,-0.07169500459800021,0.42848119541271223,0.0
-1.2784774224681512,0.2288403880876237,3.048374329723713,-0.4045119754810412,-0.3587619518590277,0.7681848843961662,0.0
-1.1071504864435049,0.24036528333321705,3.0189133109146686,-0.8948908920998155,0.48501311687562615,0.727121773593945,0.0
-1.1253767331536264,0.2480485356225731,2.9305287073547177,-1.2967624241023443,0.5152789706084392,1.2077464676212695,0.0
-1.340446750614713,0.11743297771857523,2.9526248582447048,-1.2160292788261593,-0.10471228940995514,1.8442243891066645,0.0
-1.296703669178273,0.02523373169603504,3.011547927284673,-0.9469189112753686,0.8472861359440169,1.380398126580969,0.0
-1.1837007991964283,-0.043915690212200875,2.982086392764689,-0.802795352133096,2.516493324977544,0.6225975826131688,0.0
-1.150893504071268,-0.12459002417758895,2.820047952904779,-0.8476470606077012,3.6280751500327426,-0.13053671014612567,0.0
-1.0050834027729396,-0.3781379213193463,1.2733207427267386,-2.1094756430772663,8.099165710297466,-0.5374345349116845,0.0
-1.2930584708831903,-0.31667176851202544,2.9968171600246802,-1.1346981465592816,7.862541787338143,-2.5065959596979077,0.0
-1.5883240632009608,0.2288403880876237,2.7169330977957746,-0.8978810021080174,9.617960856392292,-2.219154411735463,0.0
-1.5883240632009608,0.2288403880876237,2.7169330977957746,-0.5378711269234718,7.280153610764889,-0.9303336060517248,0.0
-1.3222205039045911,-0.4280791788810739,3.4534699136625506,-0.5001956707982349,4.3296923795763185,1.863822589545646,0.0
-1.2456701273429904,-0.5318033033376484,3.8511995982604526,-1.3559666372756856,3.1016331339819967,4.632780955768089,0.0
-1.3003489312820329,-0.5510114844957156,3.8659303655204442,-2.834877743175229,3.0887927792350935,6.164247461722848,0.0
-1.5956145555041417,-0.39734610247741353,3.7996419128504817,-4.243222066156157,2.0414112960775794,7.355076445660501,0.0
-1.9893020331973943,-0.5394865892501226,3.7996419128504817,-4.901047434992124,-0.3917792366709827,8.233266689689478,0.0
-1.9893020331973943,-0.5394865892501226,3.7996419128504817,-5.2233820291061726,-0.5889658093071485,7.65558364270475,0.0
-2.033045082729496,-0.7392515858739153,3.5271232342515706,-5.976890918204594,-0.7164492226322484,5.6518921137796925,0.0
-1.7450699827149065,-1.1541481509464486,3.2030473859536266,-6.7076749012187875,-1.4841011112895381,5.190865438068868,0.0
-1.8033940487577087,-1.250189023113667,2.768490783205746,-6.426006223347657,-6.1899816800016625,5.22539586092205,0.0
-1.8033940487577087,-1.4576372720268158,1.9656655146690079,-6.01695838064418,-12.113832861482207,5.44844308757036,0.0
-1.9783662628382843,-1.7688096790196566,1.5679355722156367,-4.88729280058092,-17.74878232544357,3.7125947240462813,0.0
-1.9601400001759934,-1.937841700109143,2.429683651936873,-4.34129800119402,-12.65311559023906,0.40048361986574316,0.0
-1.5956145555041417,-2.0569323627675473,2.83477872016477,-3.764803531218609,-7.04934795287865,-2.4916639194061907,0.0
-1.4279328496789163,-2.35273819793544,2.5327987649013464,-2.423437952508983,-3.6540705017780253,-2.895762020765018,0.0
-1.4169970633676368,-2.1299234444435795,1.4721858428811594,-1.1687855056856247,-3.4394582064314436,-2.738042493158277,0.0
-1.1363125194649057,-1.7880178938008418,0.5588800777499511,1.0833693437399472,-1.6446016975643403,-5.633923110799074,0.0
-1.0816337155258633,-1.7457599557747066,0.7209182597543925,4.254685631860636,1.4856202940601786,-7.837330519268672,0.0
-1.0196643235706244,-1.9224751282841948,1.4427243083611754,4.946000139425937,-0.8888728484387857,-8.971231657344262,0.0
-0.8556279117534975,-1.8494840466081628,1.8772811689645263,1.8763479416935829,-9.551324598192515,-9.368797025223428,0.0
-0.7535608280829322,-1.9301584141966686,1.9656655146690079,-1.9671463366649706,-16.417085298138606,-9.753296926143278,0.0
-0.34893750026972303,-1.7534432416871804,1.4721858428811594,-5.463787270556331,-16.888498961075918,-10.373909156425787,0.0
0.23065777043718427,-1.4768454868080005,0.941879252943331,-7.6722862687855224,-9.876911407175037,-11.32022705055617,0.0
0.43114693090926315,-1.5767279346852203,0.7724759451643632,-7.8510955825058915,-1.7124705844042787,-10.91239580253255,0.0
0.5514403250986257,-1.6151443642475907,0.49259188293545797,-6.718439600676528,-2.078412282649628,-10.027673189268883,0.0
0.5769571598249474,-1.7880178938008418,0.6251685304199148,-4.973408062179657,-10.022737545211411,-9.129884380555957,0.0
0.5149877040610286,-1.7035018832560993,0.2863615280787761,-4.158302778538805,-16.284099156889926,-9.306269277241691,0.0
0.8612868382140811,-1.4691622008955267,-0.030349323372374965,-4.260564622511514,-14.829504710651989,-9.079488903928588,0.0
1.0508402123748823,-1.5229450677903738,0.3821113863409883,-4.672004413177761,-10.985742315717454,-7.233516538365303,0.0
1.4992064301984998,-1.0926819981391278,-0.7374246047191666,-6.124004587355069,-8.382879163164938,-6.221872037928251,0.0
1.2002954481596149,-0.8583422485323199,-1.1719813041628484,-7.367294697839472,-8.024274912763305,-2.5289941111967247,0.0
0.7920271134773549,-0.8007177386812357,-1.4665960369559454,-7.314668574970067,-8.062794903126392,-0.594362881610579,0.0
0.5259234903723098,-0.4857037055437169,-1.923248855057682,-6.3751740614503305,-6.819144386272384,-0.7884793143416564,0.0
0.6790242434955117,-0.39350445952117646,-2.018998648856027,-4.395120098044809,-5.148102745788125,-1.8719847026061502,0.0
0.9633539218846483,-0.30514686486065284,-2.2104982042207832,-2.7463703002074027,-4.926153002597825,-1.8449203909600687,0.0
0.9341920802892778,-0.2820970575579075,-2.3799016731594187,-1.1167574865100716,-4.001668938373286,-0.1706665342821491,0.0
0.5149877040610286,-0.19758108851670064,-2.2988826466210655,0.3860744994550851,-1.8482083580841557,2.0682048113599336,0.0
0.3436608956537369,-0.08617367867301341,-2.4240939104755266,1.0289493182500449,-1.554721362091267,2.574027243700944,0.0
0.3509511646265486,-0.02470752586569258,-2.7849969347789183,0.6922623361404202,-1.3291032529383167,1.8694221274203502,0.0
0.23430303254094395,-0.20910599295611515,-2.2620557929349534,1.5396609595839583,2.753117247936864,2.4443052233452405,0.0
0.033814127303573305,-0.29362196120928014,-2.6082280499783534,1.3130102358418436,2.787968693357694,4.684109992245384,0.0
0.10307410727500887,-0.16300637388505418,-3.293207309362892,0.27663628642984783,-0.24045001275181838,5.6556248961995195,0.0
0.055685699926132134,-0.19758108851670064,-2.9691310742817447,0.5296000424308753,-1.8372025442777862,5.484839901633457,0.0
0.12494542466285918,-0.4857037055437169,-2.726073994666686,-0.1832434555888475,0.4446586303169085,4.218416974264809,0.0
0.14317173518165807,-0.9006002538046911,-2.541939790699992,-3.0423915994804283,0.8913091227000892,4.070030131197565,0.0
0.28898196409734,-0.9582247636557751,-2.630324200868341,-2.7738793356234916,-1.7124705844042787,1.8983528302763442,0.0
0.4712445588159123,-0.9159668256296393,-2.976496457911741,-2.357655415625385,-2.6378717401194813,0.0999765081914078,0.0
0.4712445588159123,-0.8007177386812357,-2.8365544267972878,-1.937245119879795,-0.7962409700243177,-0.2406604390016061,0.0
0.4712445588159123,-0.8007177386812357,-2.8365544267972878,-1.3727113233435109,-0.5348541449802711,-1.9699762511685077,0.0
0.4238564067017435,-0.4127126406792438,-3.2269189856206633,-1.387063828042247,-1.0851422400944866,-2.4244698291547064,0.0
0.43114693090926315,-0.3474048449156859,-3.580456626294059,-1.5240111348351515,-1.1392538596764634,-2.4198036690074423,0.0
0.43114693090926315,-0.3474048449156859,-3.580456626294059,-1.2543027802936686,-0.8476012256445041,-3.51264165075019,0.0
0.6863147677030305,-0.2667305151531876,-3.911898245005202,-1.4313175495261596,-0.9521559198662022,-4.632543762016536,0.0
0.6425716224579116,-0.5779029515662567,-3.352130249475125,-1.247724456583413,0.44099008537465323,-1.054456088532724,0.0
0.2744009156823016,-0.9966411259719097,-3.4405147241073406,-0.801001274457859,-1.0163562617638855,2.781209234452584,0.0
0.329079847238698,-0.8506590298660814,-3.3373994822151323,0.3597614963719622,0.9069006624291787,3.099448058603418,0.0
0.32543458513493806,-0.6931519712684245,-3.4331493404773448,-0.12762731023861035,0.1447516471163975,0.7467200650941679,0.0
0.4821803451271916,-0.5394865892501226,-3.749860063000761,-0.8368826529078592,-0.31382176175004056,-0.882737716239222,0.0
0.4821803451271916,-0.5394865892501226,-3.749860063000761,-0.8368826529078592,-0.31382176175004056,-0.882737716239222,0.0
0.4821803451271916,-0.5394865892501226,-3.749860063000761,0.08945506731241709,2.434867170879644,0.30155892122905026,0.0
0.0593309620298918,-0.5394865892501226,-3.889802094115214,-0.12284312255517162,2.3587441026645326,0.2828938708644042,0.0
0.5988284772127956,-0.23215580209762474,-3.6099181608140425,-0.0678249933714169,3.451983203008453,-0.304121564710782,0.0
0.5988284772127956,-0.23215580209762474,-3.6099181608140425,-0.1886256594387684,2.775128696569999,-2.0521023817117086,0.0
0.5332140145798285,-0.2398390711985398,-3.374226400365112,0.14447318920222435,2.2541892294632304,-0.6036954295582124,0.0
0.48947086933471123,-0.39350445952117646,-3.0869769545062105,0.009319974672451773,0.6363423407947905,0.592733502029735,0.0
0.5696666356174251,-0.43192080502575203,-3.01332337606172,0.34899708867212015,0.83444604966652,0.3640868058026489,0.0
0.48947086933471123,-0.2820970575579075,-3.0869769545062105,0.6396362716225948,2.4944816973648054,-0.1883983207459076,0.0
0.31814406092741904,-0.3781379213193463,-2.7481700810928062,0.133110750748005,0.49968747562425075,-2.9965533382647283,0.0
0.24159355674846356,-0.3474048449156859,-3.050150165283965,0.09543529826974169,0.877551944931929,-3.0572145129140686,0.0
0.71912187140216,-0.23215580209762474,-3.521533686181826,0.08945506731241709,1.257250731455636,-2.5541918495104103,0.0
0.799317637684876,-0.23599743664808226,-3.639379566406291,0.09483727480931187,1.523223282422403,-1.7319969842284777,0.0
0.9378373423930374,-0.4127126406792438,-3.455245362439598,-0.1031083556549346,-0.055186362192022755,-1.2905687821403582,0.0
0.5076971798535098,-0.6201609232155104,-2.8881121122072595,0.060749959902525505,-0.9585760077498519,-0.595296168276777,0.0
-0.41819735262380436,-0.9121251826734024,-2.1221137940524337,0.17078619957929458,-1.5822357176275867,2.089669585131311,0.0
0.04839517571861253,-0.16300637388505418,-2.9985926088017285,0.0804847208764302,-0.8576898584704088,2.4732361083237175,0.0
0.46395428984310066,-0.00549934470762537,-3.4331493404773448,0.3023512733464882,1.1105072334591917,3.8432497578844584,0.0
0.42750166880550317,-0.30514686486065284,-3.381591783995108,0.2610876910465671,3.546448995934841,3.9057778701111623,0.0
0.7738008029585578,-0.5586947704081898,-3.234284369250659,-0.3925515354482346,2.068925651613899,-0.8370083997591152,0.0
0.5951832151090366,-0.6739437901103574,-2.947035052319492,-0.4224526647060414,1.7781901090726027,0.3622203007661842,0.0
0.5076971798535098,-0.7123601524264916,-2.6966125246105697,-0.3237788593806462,2.0184825769741774,-0.26492498171033557,0.0
0.44937324142806173,-0.6662605378210009,-2.7408046974628104,0.653988834672911,4.7469944229316585,-0.30038855463785274,0.0
0.6899600298067895,-0.9159668256296393,-2.578766579922237,0.2808224433589091,4.323272381182472,-0.7502159269461665,0.0
0.6607979329767116,-0.7661430529444563,-2.3725362895294224,0.5098652755306382,4.348952732717072,-0.9825956560114921,0.0
0.6425716224579116,-0.2590472460522724,-2.2473250579068957,0.33045835410484786,2.600870753547433,0.4331474466212186,0.0
0.6425716224579116,-0.2590472460522724,-2.2473250579068957,-0.4439815092815152,0.8858063052867062,0.7887164170319666,0.0
0.5550855872023877,-0.13611493203185132,-2.497747553383884,-0.4840490300726817,0.8812204898741843,0.7215222812498615,0.0
0.48947086933471123,-0.27057214970364507,-2.129479145450496,-0.29447574628932177,1.6433696058629925,1.1041555633066908,0.0
0.48947086933471123,-0.27057214970364507,-2.129479145450496,-0.35726817316471676,1.2068076568159147,1.0220293417022486,0.0
0.48947086933471123,-0.562536379741309,-2.004267913827969,-0.268162714030409,0.9894438185279395,1.2460098550167593,0.0
0.5295687524760695,-0.508753512846462,-2.0779215889682594,0.17198224650015426,1.8992535240038548,0.9604347893254687,0.0
0.5295687524760695,-0.508753512846462,-2.0779215889682594,0.3890646094632866,2.2762008570759695,1.0640256936400467,0.0
0.3691774751453469,-0.2667305151531876,-1.7391146531054842,0.6187055015651831,1.4957089268860835,1.4905218554364497,0.0
0.48947086933471123,-0.3781379213193463,-1.7391146531054842,0.4865423824557173,0.939000743888218,1.6071783177715908,0.0
0.6899600298067895,-0.5779029515662567,-1.8422298043453789,0.26407780105476875,-0.30556744614016446,0.9725670606798333,0.0
0.6279905740428741,-0.650893999619171,-1.923248855057682,0.24673512799625108,-0.333998982656949,0.15130536823754642,0.0
0.730057657713439,-0.7085185094702546,-2.011633265226031,0.014104162355890442,0.6620224238599827,0.02344985434113932,0.0
0.49676139354223053,-0.5394865892501226,-2.0631908539402013,-0.01818908262547811,1.6076008899718957,0.18770219368329583,0.0
0.5405045387873473,-0.5510114844957156,-2.1221137940524337,-0.01699303570461844,2.3422353819549784,-0.37598195170139315,0.0
0.39469430987166537,-0.5663780226975459,-1.5770765577243653,0.21743200031703167,2.7888859638279606,-1.533214300288894,0.0
0.39469430987166537,-0.6701021807772383,-1.4665960369559454,0.4614254117055592,1.4342600384399926,-1.991441024939885,0.0
0.6680884571842304,-0.7392515858739153,-1.6065380277804815,-0.0887558071925136,0.783085794046334,-2.2611507636732613,0.0
0.49676139354223053,-0.6355274614173406,-1.694922444999566,-0.6203982915233142,1.80295301115733,-2.24808529671394,0.0
0.41292062039046395,-0.2974635957597377,-2.2767864957310784,-1.2004806834428785,3.8069187294882254,-2.2518182612562483,0.0
0.4347921930130231,-0.47802043644280157,-1.584441925238394,-0.8051874167990254,4.039874286484895,-2.826701357181139,0.0
0.5660213735136661,-0.5279616940045292,-1.0025778352242132,-0.18802764327228608,2.7549514309181897,-3.1244089674105204,0.0
0.6498621466654332,-0.4088709977230067,-0.9436548951119808,0.10859180345827682,1.7827759244851245,-2.4515341408007885,0.0
0.71912187140216,-0.4626538982409713,-0.9436548951119808,0.8304056169147096,0.8858063052867062,-1.3521634255783799,0.0
0.8248344724111919,-0.19758108851670064,-0.9141934250558643,0.6695374300561916,0.09522571989846512,-1.0469900683868656,0.0
0.7227671335059197,-0.15148147023368155,-1.208808157848961,0.16480597226894375,-0.3532590673282937,0.23436478544694533,0.0
0.5587308493061474,-0.1745312796378717,-1.1719813041628484,-0.09533405796329428,-0.33491614126496333,0.24183080559280373,0.0
0.6279905740428741,-0.22063089739552963,-1.11305839628255,0.08586692837332496,-0.13497813754965557,-0.11187167116413481,0.0
0.5660213735136661,-0.24368070785044224,-1.0173086024842048,0.27245012950078645,-0.02767195631768944,-0.2817235042732066,0.0
0.31814406092741904,-0.33972157581477075,-1.076231542596438,0.06433809815781007,0.17410034224119625,-0.8547402089881843,0.0
0.5259234903723098,-0.22063089739552963,-1.11305839628255,0.1504534165125752,0.42539854564556384,-0.3937137609304621,0.0
0.44937324142806173,-0.22063089739552963,-1.0541354561703171,0.12174831229378565,0.5767277695647282,-0.4534418765667087,0.0
0.14317173518165807,-0.14379820113276642,-0.9436548951119808,0.36873182639656743,0.6922882775927958,1.3934635935402904,0.0
0.5004066556459911,-0.1284316587280465,-1.0173086024842048,0.2951750064092252,0.19978045886506415,1.707969453148817,0.0
0.3144987988236588,-0.2398390711985398,-1.0320393052803292,0.22879443877125102,0.21720624869283064,3.4942134754227494,0.0
0.67173371928799,-0.4165542668239218,-1.0246739861142005,0.2299904856921107,0.09339142505488704,2.968792842642759,0.0
0.67173371928799,-0.4165542668239218,-1.0246739861142005,0.41418158021344476,0.6757796463730436,3.8805797675525073,0.0
0.6061190014203149,-0.46649552438564945,-0.9289241923158559,0.2132458433879703,0.5914021283133527,4.395735066555499,0.0
0.5332140145798285,-0.47802043644280157,-0.9952124515942175,0.23238257953383004,0.783085794046334,4.2025519204906185,0.0
-0.01357415242794946,-0.5202784080920553,-0.9141934250558643,0.2736461764216461,1.2334049208615716,5.342052232195948,0.0
0.9998065429222455,-0.9390166161208257,-1.2456350115350732,0.17198224650015426,1.7268299429422185,2.784009003389936,0.0
0.9159657697704789,-0.8967586108484542,-1.0541354561703171,0.11995424191249615,2.6953369044330286,1.0388279553263613,0.0
0.9305468181855187,-0.8737088203572678,-0.965750981538101,0.2945769756548478,3.299736708619023,-0.04654404041849445,0.0
0.6352810982503935,-0.7930344527687619,-0.6048479572347092,0.28560663104234785,3.34651123831649,-0.6410254847568838,0.0
0.20149592884181436,-0.6777854330665943,-0.3396947911935297,0.15762969803773322,2.7622886997823035,0.2950261649840794,0.0
0.17233383201173622,-0.7392515858739153,-0.11136828544686095,0.36514370022188336,1.2939366283271976,0.6897917183952736,0.0
0.919611031874238,-0.7507765147426261,-0.3175986403035417,0.11277796768128563,0.5648048642676959,-0.020412986981972796,0.0
0.7081860850908792,-0.7354099765407961,-0.2955024894135543,-0.17247903330111045,0.4098070506613754,-0.43291034393090827,0.0
0.5149877040610286,-0.6777854330665943,-0.22921416567132574,-0.4320210692487087,0.05211981344683075,-0.5103702232656029,0.0
0.2561746051635025,-0.654735642575408,-0.3323294075635337,-0.20357623865556687,-0.184504064767588,-0.4366433084732167,0.0
0.2561746051635025,-0.654735642575408,-0.3323294075635337,-0.02237524684848696,0.22454340569469247,-0.7670145405702792,0.0
0.5842476840324662,-0.7354099765407961,-0.3323294075635337,-0.08755976027165392,0.31992669281585157,-0.4459758564208501,0.0
0.45666376563558136,-0.6585772519085271,-0.23657954930132144,0.018290322931925534,0.10439718293013027,-0.3769151928369703,0.0
0.45666376563558136,-0.6585772519085271,-0.23657954930132144,0.06912228265014671,-0.7595551178976575,-0.09880614729153778,0.0
0.7592197545435169,-0.804559381637473,-0.42807913689801136,0.15224748689386472,-0.11846949514367809,-0.24159368013718321,0.0
0.4785350830234317,-0.7085185094702546,-0.3986177313057621,0.26826395798383024,-0.12397236848818713,-0.24625995411099993,0.0
0.6207000498353548,-0.7008352571808987,-0.6122133408647049,0.08825902039155742,0.28782654423946047,-0.19586434089176602,0.0
0.5004066556459911,-0.6585772519085271,-0.4428099041580029,0.12772854325111024,0.2969980184573509,-0.3358521275653699,0.0
0.5550855872023877,-0.7430932288301522,-0.3323294075635337,0.10619971326353121,0.2676493233325521,-0.3330523586280177,0.0
0.4712445588159123,-0.7123601524264916,-0.3323294075635337,0.09603331990668465,0.19519471056989368,-0.5141032333385323,0.0
0.3764679993528668,-0.6355274614173406,-0.324964023933538,-0.018787106085907956,-0.04142915925485611,-0.5355680526405305,0.0
0.42750166880550317,-0.5855862038556131,-0.4207137532680155,-0.01998315300676761,-0.08453505731682154,-0.13053671014612567,0.0
0.675378981391752,-0.7123601524264916,-0.4722713097502522,0.0021437004412412533,-0.19184123295567504,-0.10720540857297331,0.0
0.580602421928707,-0.6931519712684245,-0.15556058722683605,-0.01579698878375879,-0.05977209370785533,-0.2854565143461359,0.0
0.5587308493061474,-0.562536379741309,-0.36179081315578254,0.12892458652499617,0.08238566158653118,-0.1949310997561889,0.0
0.6863147677030305,-0.7162017953827289,-0.3175986403035417,0.04699542897420196,-0.1652439800962434,-0.33491886366448237,0.0
0.5514403250986257,-0.7392515858739153,-0.25131031656131375,-0.08576569718431191,0.041114055571587545,-0.4114455246289103,0.0
0.4821803451271916,-0.6777854330665943,-0.2144835273390686,-0.07260918105485556,0.3648668829248387,-0.3489176400553116,0.0
0.49311613143847055,-0.6316858184611037,-0.2955024894135543,-0.13061742024681203,-0.30740174098374257,-0.529035273630249,0.0
0.5332140145798285,-0.6240025661717473,-0.1850219928190849,0.0709163518917569,-0.25237291804885065,-0.20239709713673693,0.0
0.49676139354223053,-0.5740613086100198,-0.2807717221535623,0.1396890015187857,-0.31290462551447673,-0.12120418496380263,0.0
0.5004066556459911,-0.5740613086100198,-0.3028678730435503,0.06792623652706255,-0.3908621004354189,-0.23319441885574765,0.0
0.4420827172205421,-0.6047943850136801,-0.3175986403035417,0.0446033369559695,-0.7604722541332213,-0.14360223401872266,0.0
0.6061190014203149,-0.6777854330665943,-0.5090982279002316,-0.02237524684848696,-0.6531660617150298,-0.42077802704592276,0.0
0.5405045387873473,-0.6470523566629337,-0.38388696404577055,-0.1383917179384523,-1.0988994178626463,-0.3330523586280177,0.0
0.5623761114099064,-0.5586947704081898,-0.38388696404577055,-0.009218738012978102,-1.140171040656928,-0.3927804742642642,0.0
0.5696666356174251,-0.5779029515662567,-0.5090982279002316,0.05237763647109673,-0.5119254706217701,-0.5355680526405305,0.0
0.6644431950804713,-0.5433282322063595,-0.5753865516424604,0.07211239790087315,0.1447516471163975,-0.1025391459818118,0.0
0.5332140145798285,-0.5433282322063595,-0.6343094272908256,0.08108274433686004,0.25480925942750554,0.16717064966484038,0.0
0.44572797932430236,-0.5779029515662567,-0.5606557843824683,0.0804847208764302,0.22454340569469247,0.21663299898318678,0.0
0.46395428984310066,-0.5855862038556131,-0.4428099041580029,-0.03433570876313615,0.07504848780533149,-0.07827460327308233,0.0
0.45666376563558136,-0.5510114844957156,-0.4501752877879992,0.009917998132881592,-0.03776057236425625,-0.10347239850004408,0.0
0.4821803451271916,-0.5586947704081898,-0.5164636115302279,0.015300205629776367,-0.1413981583159536,-0.04561078790026217,0.0
0.624345311939115,-0.5855862038556131,-0.6490401945508172,-0.14257787486751372,0.08421995083699664,-0.07734135075485002,0.0
0.4748898209196723,-0.5586947704081898,-0.38388696404577055,-0.16231264176775076,-1.2465600968395558,-0.2583922254653647,0.0
0.5222782282685502,-0.5049118698902251,-0.3912523476757664,-0.13898974869282965,-1.5088640133742655,-0.024145991363574402,0.0
0.5660213735136661,-0.6047943850136801,-0.22184878204133004,0.06972030565470483,-0.7678094335075334,-0.20426360217320153,0.0
0.5004066556459911,-0.5510114844957156,-0.626944108124697,0.2999591795047688,-0.673343327366839,0.18583568864683123,0.0
0.6680884571842304,-0.45497062914005637,-0.7079631346630502,0.12832656306456633,-0.10287799456637708,0.012250831236511182,0.0
0.6899600298067895,-0.593269489768087,-0.41334836963801924,0.24673512799625108,0.6629396048404476,-0.011080467490977363,0.0
0.5988284772127956,-0.5318033033376484,-0.5974825736047134,0.23776478338375104,0.9747695492691169,-0.05401004918169767,0.0
0.45666376563558136,-0.5318033033376484,-0.6195787244947012,0.14507121266265421,0.7913401544011109,-0.2145293684911016,0.0
0.44572797932430236,-0.5740613086100198,-0.5017328442702359,0.05237763647109673,0.477675937501314,-0.22012888360049546,0.0
0.48947086933471123,-0.5971110991012062,-0.4722713097502522,0.16121783150636476,0.7840029750267988,-0.4114455246289103,0.0
0.41292062039046395,-0.4933869746446317,-0.5311942498624846,0.18753084917738244,0.717051269167325,-0.31438733102868205,0.0
0.42750166880550317,-0.4818620625874796,-0.5606557843824683,0.03802508253821508,0.32267812389499345,-0.003614450190782733,0.0
0.4821803451271916,-0.4972286176008689,-0.5090982279002316,0.03144682812046066,0.6730281929214511,-0.010147214972745072,0.0
0.401984834079185,-0.5049118698902251,-0.38388696404577055,0.11158192076042599,0.7665771628265816,-0.0670755844369499,0.0
0.4785350830234317,-0.5202784080920553,-0.3544254295257868,0.15105143997300505,0.41806141101615263,-0.08760711707275012,0.0
0.5186329661647876,-0.4972286176008689,-0.36179081315578254,0.1002194823062066,0.32818100842572784,-0.0633425743640207,0.0
0.4785350830234317,-0.45881225528473435,-0.4207137532680155,0.09184715933064956,0.5427933708896602,0.02998261770026974,0.0
0.44937324142806173,-0.5241200510482922,-0.5090982279002316,0.07869065140688414,0.83903177558924,0.06544619062778681,0.0
0.46395428984310066,-0.562536379741309,-0.3986177313057621,-0.03194361492141681,0.5262846949250068,-0.01761322942727589,0.0
0.48947086933471123,-0.5471698415394787,-0.310233256673546,-0.10251033948845228,0.09430857247667611,0.004784816781980371,0.0
0.5004066556459911,-0.4933869746446317,-0.3323294075635337,-0.06603093028407488,-0.03867771698948898,0.1345068286006926,0.0
0.5040519177497507,-0.47033716734188646,-0.34706004589579115,0.15105143997300505,0.30800376514636885,0.5955332709670871,0.0
0.4748898209196723,-0.5202784080920553,-0.3765215804157748,0.2885967410505496,0.9619294629916199,1.001497854597069,0.0
0.42021114459798414,-0.6124776373030365,-0.36179081315578254,0.3238801179219622,1.2196477430934116,1.0621592113688925,0.0
0.4165658824942236,-0.6393691043735776,-0.3912523476757664,0.13789493113749618,1.0811585159619426,0.8605768495531985,0.0
0.4712445588159123,-0.4972286176008689,-0.03771457807463582,-0.19400786328868955,0.21904054353640873,0.490075793320113,0.0
0.4821803451271916,-0.5586947704081898,-0.08927226348460751,-0.23527144558861068,-0.3660991312333402,-0.1874650796103305,0.0
0.5514403250986257,-0.508753512846462,-0.3028678730435503,-0.13898974869282965,-0.660503241089342,-0.4319770572647103,0.0
0.36188695093782786,-0.5740613086100198,0.19061179874429865,0.16420794880851391,-1.6042473452403256,0.09624350380980622,0.0
0.39104904776790544,-0.5394865892501226,0.013842978407600732,0.4452788001557962,-2.623197381370857,0.5330053863934884,0.0
0.48947086933471123,-0.5241200510482922,-0.22921416567132574,0.5104632916971206,-2.916684377363745,0.6384628640404625,0.0
0.29991775040861984,-0.6124776373030365,-0.6416748109208215,0.3980349686636818,-2.6516290073774433,0.5395381654037699,0.0
0.71912187140216,-0.7392515858739153,-3.889802094115214,-1.669928830004241,4.691965353899809,-0.543967313921966,0.0
0.2744009156823016,-0.654735642575408,0.29372691170877235,0.3310563702713302,1.1416902234275685,-0.17439954435507826,0.0
0.4748898209196723,-0.5433282322063595,-0.4649059261202564,0.3011552264256285,1.0022839048054366,0.20636722128263144,0.0
0.5113424419572694,-0.5510114844957156,-0.0966376471146038,0.3962408909884448,0.2924122701621804,0.18863543481887293,0.0
0.547795062994866,-0.5663780226975459,-0.41334836963801924,0.2885967410505496,0.07963421932116406,0.23623129048340993,0.0
0.547795062994866,-0.5663780226975459,-0.41334836963801924,0.17736445764402275,0.2034490485522203,0.21010023135556066,0.0
0.46395428984310066,-0.6163192802592734,-0.4575406714179949,0.07151437489631503,0.46483589596871794,0.11957479969163094,0.0
0.46395428984310066,-0.6278441755048666,-0.47963669338024795,0.04938752099243443,0.32084382905141534,0.00571806930021269,0.0
0.43843745511678245,-0.6201609232155104,-0.22921416567132574,0.12892458652499617,0.19978045886506415,0.010384329045710385,0.0
0.45301850353182166,-0.6124776373030365,-0.2807717221535623,0.16899213649195258,0.24288635413047324,0.0981100088462708,0.0
0.41292062039046395,-0.6009527420574432,-0.23657954930132144,0.22161815724609302,-0.010246167101669633,-0.06614233191871759,0.0
0.4420827172205421,-0.5779029515662567,-0.3175986403035417,0.18932491955867195,0.20528334339579837,-0.0698753306089916,0.0
0.48947086933471123,-0.6316858184611037,-0.15556058722683605,0.26587186414211084,-0.02308622200530056,-0.13426972021905487,0.0
0.4821803451271916,-0.5241200510482922,-0.4059829860080235,0.025466600810109805,0.25756069050664737,0.06451293810955451,0.0
0.49676139354223053,-0.5510114844957156,-0.38388696404577055,-0.1222450918007943,0.40246991603196425,0.025316357954772023,0.0
0.4347921930130231,-0.5394865892501226,-0.1850219928190849,-0.03134559146098699,0.6005736249036938,0.08784423683704307,0.0
0.28169143988982065,-0.5510114844957156,-0.3986177313057621,-0.24723191479720721,0.16676316286688397,0.3846183384384492,0.0
0.4785350830234317,-0.6355274614173406,-0.3544254295257868,-0.2149386625218913,0.5409590536736315,0.09344374625510928,0.0
0.5004066556459911,-0.6240025661717473,-0.1629258419290969,-0.25500621248884775,1.1967190239900098,0.026249610473004333,0.0
0.4092753582867043,-0.5894278468118501,-0.14082981996684435,0.14148307190007522,-0.10929802092578769,0.03651538105940015,0.0
0.4712445588159123,-0.5394865892501226,-0.14819520359684005,0.07869065140688414,0.8491204084151446,0.11957479969163094,0.0
0.42750166880550317,-0.5548531274519526,-0.15556058722683605,0.1970992172503123,0.3868784210477758,0.22316575522815768,0.0
0.401984834079185,-0.5971110991012062,-0.1776566091890892,0.11098389729999612,0.4098070506613754,0.1811694260556697,0.0
0.41292062039046395,-0.593269489768087,-0.11873366907685606,0.09962145884577678,0.3309324395048697,0.0869109843188108,0.0
0.42021114459798414,-0.5894278468118501,-0.12609905270685234,0.09065111240978987,0.031025439525020713,0.09344374625510928,0.0
0.4165658824942236,-0.6124776373030365,-0.12609905270685234,0.006927884477706174,-0.15332107479921112,0.03184912131390244,0.0
0.4420827172205421,-0.6124776373030365,-0.14082981996684435,-0.024767340690206308,-0.06527497823858955,-0.04654404041849445,0.0
0.43114693090926315,-0.5894278468118501,-0.11873366907685606,0.042809268398166886,0.1007285932429741,-0.04094452530910064,0.0
0.43114693090926315,-0.5894278468118501,-0.11873366907685606,0.10679773672396106,-0.06435783081680052,0.034648877445767445,0.0
0.4420827172205421,-0.5971110991012062,0.1390542422620618,0.04221124493773704,-0.12122092622282,0.034648877445767445,0.0
0.44572797932430236,-0.6163192802592734,-0.08190687985461181,0.05118159137372393,0.13558017289850713,-0.03907802027263602,0.0
0.39469430987166537,-0.5548531274519526,-0.08927226348460751,0.32806626026312863,-0.30281599268857207,-0.057743059254626874,0.0
0.39469430987166537,-0.5548531274519526,-0.08927226348460751,0.22460828184218967,-0.04051201183306706,0.020650098209274312,0.0
0.4603090277393413,-0.5318033033376484,-0.1923873764490806,0.4883364601309541,-0.4064535954196073,0.11117553271886782,0.0
0.39469430987166537,-0.5548531274519526,0.05803515125984098,0.41298554788048003,-1.5226211911424252,0.6132650346655353,0.0
0.3582416888340673,-0.593269489768087,-0.3028678730435503,0.5278059647556383,-1.0264448050999881,0.8111144774695417,0.0
0.39469430987166537,-0.804559381637473,-0.4722713097502522,0.21922607799226865,-0.4183765007166395,0.4536789792570187,0.0
0.5842476840324662,-0.6124776373030365,-0.7668860747752825,-0.21015447483845254,0.8280260512726727,0.10557602330080164,0.0
0.6024737393165559,-0.6163192802592734,-0.6343094272908256,-0.3231808432141638,1.1260987731882812,-0.3153205949295696,0.0
0.45666376563558136,-0.6316858184611037,-0.06717611259461952,0.03264287504132031,-0.43213367848479933,0.03371562563895109,0.0
0.29262722620109993,-0.562536379741309,0.06540053488983728,0.04938752099243443,-0.8072467838306876,0.20076771755589284,0.0
0.42021114459798414,-0.6201609232155104,-0.07454149622461581,-0.05945267951329419,-0.2743844561717876,-0.10907191360943792,0.0
0.8029628997886351,-0.7430932288301522,-0.6122133408647049,-0.6742203883741041,1.5057974702221861,-0.6848883189658364,0.0
0.6462168845616707,-0.6777854330665943,-0.3028678730435503,-0.7746882713747363,1.0857442418846623,-0.6372924746839546,0.0
0.2452388188522232,-0.5548531274519526,-0.08927226348460751,-0.8530292936334121,0.2924122701621804,-0.30505480584635913,0.0
0.28898196409734,-0.5779029515662567,0.2863615280787761,-0.11566684103001365,-0.05426921477023373,-0.011080467490977363,0.0
0.21243171515309364,-0.508753512846462,0.4189381755632329,0.7478784523148674,-0.4440566285267325,0.590867019758581,0.0
0.205141190945574,-0.5394865892501226,0.5073226501954496,1.5845126680585635,-1.4208179503723197,1.0537599045568364,0.0
0.5842476840324662,-0.7315683335845589,-0.5090982279002316,0.2527153626005494,0.07321419296175341,0.03651538105940015,0.0
0.5587308493061474,-0.7430932288301522,-0.7889821612014032,-0.17726322098454905,0.7372284900742334,-0.17813255442800752,0.0
0.42021114459798414,-0.6124776373030365,-0.3544254295257868,-0.2197228502053299,0.35202681901979216,-0.1081386610912056,0.0
0.41292062039046395,-0.650893999619171,-0.22184878204133004,-0.14915614022618934,0.42906713533272006,-0.21546263239198915,0.0
0.5113424419572694,-0.650893999619171,-0.03771457807463582,-0.03493373222356598,0.5886507196066613,-0.22572839870988928,0.0
0.33637037144621734,-0.7776679481900497,0.30845767896876375,0.21503990647531235,0.1071486251954974,-0.07827460327308233,0.0
0.3545964267303083,-0.6316858184611037,0.20534256600429066,0.16420794880851391,-0.12122092622282,-0.22386189367342466,0.0
0.20878645304933396,-0.804559381637473,0.7651105615343675,0.6545868800151833,-0.3844420572966703,0.387418084610491,0.0
0.205141190945574,-0.7623014099882194,0.2421693552265352,1.3758027210688186,-0.02858910373947848,0.6085987834570289,0.0
0.205141190945574,-0.7623014099882194,0.2421693552265352,1.3758027210688186,-0.02858910373947848,0.6085987834570289,0.0
0.49676139354223053,-0.47033716734188646,-1.2824618329892519,-0.6269765568819897,0.26856645956811587,0.020650098209274312,0.0
0.2744009156823016,-0.6047943850136801,-0.015618556112382968,-0.31540654552252323,0.20895191071050404,0.021583350727506615,0.0
0.2744009156823016,-0.6047943850136801,-0.015618556112382968,-0.10131429256759261,0.25022353350478554,-0.20239709713673693,0.0
0.43843745511678245,-0.6739437901103574,0.14641949696432266,0.08407285981552233,0.004428182470754604,-0.24439344907453533,0.0
0.39104904776790544,-0.4741787934865645,0.03593900036985358,0.14387516574179451,-0.4009506885164225,0.07477871011878225,0.0
0.39104904776790544,-0.4741787934865645,0.03593900036985358,0.055965775410188864,-0.5908000817782761,0.3099581825104858,0.0
0.38011326145662616,-0.5125951558026989,-0.022983939742378674,0.018888346392355364,-0.7989924234759103,0.32768996897424435,0.0
0.42021114459798414,-0.6393691043735776,0.028573616739857872,-0.23706552326384753,0.1420002048510304,-0.5225024946199677,0.0
0.42021114459798414,-0.6393691043735776,0.028573616739857872,-0.4625202146729978,1.0334668947738135,-0.21919564246491838,5.0
0.21243171515309364,-0.6355274614173406,-0.4575406714179949,-0.23168331941392661,0.1291601521322091,-0.056809806736394554,5.0
0.38011326145662616,-0.6893103283121874,-0.26604108382130515,0.03682903744084229,0.3052523340672269,0.07477871011878225,5.0
0.3217893230311787,-0.5356449462938853,-0.00825317248238697,0.2915868656466461,-0.23402999198552035,0.3808853283655199,5.0
0.2707556535785417,-0.5241200510482922,-0.06717611259461952,0.08407285981552233,-0.48991393249883336,0.3034254262655149,5.0
0.42021114459798414,-0.593269489768087,0.013842978407600732,0.18573677879609293,-1.0567107035777021,0.4658112506113836,5.0
0.43843745511678245,-0.5855862038556131,-0.2071181437090729,0.11935621845206633,-0.35967911046704204,0.04024838864237353,5.0
0.6134095256278337,-0.7008352571808987,-0.324964023933538,0.35318323101328664,0.3162581031286953,-0.1529347478183905,5.0
0.5769571598249474,-0.6854687189790682,-0.26604108382130515,0.33942871330524277,0.4657530322042818,-0.23599416502778936,5.0
0.4821803451271916,-0.650893999619171,-0.1923873764490806,0.09543529826974169,0.348358229332636,-0.23412765999132484,5.0
0.3509511646265486,-0.6278441755048666,-0.2144835273390686,-0.03194361492141681,0.17134889997582917,-0.16040076796424887,5.0
0.3545964267303083,-0.5855862038556131,-0.1629258419290969,0.008123931398565841,0.30341803922364885,-0.06614233191871759,5.0
0.41292062039046395,-0.562536379741309,-0.015618556112382968,0.22759839185039135,0.06679416660234277,0.11397529027356473,5.0
0.3691774751453469,-0.5817445608993759,-0.03771457807463582,0.2521173464340671,-0.18542121218937702,0.2651620844006457,5.0
0.4347921930130231,-0.6316858184611037,-0.1629258419290969,0.20008932725851397,-0.31657319282918245,0.19516820244649907,5.0
0.44937324142806173,-0.6432107137066968,-0.1923873764490806,0.09603331990668465,-0.35142477248471554,0.039315136835557186,5.0
0.44572797932430236,-0.6240025661717473,-0.2071181437090729,0.029054737925715057,-0.19000693811209696,-0.09413988470037626,5.0
0.45666376563558136,-0.6124776373030365,-0.22184878204133004,-0.08755976027165392,-0.03317483805186736,-0.1482684966098842,5.0
0.43114693090926315,-0.593269489768087,-0.1776566091890892,0.004535794282960588,0.06679416660234277,-0.08294086586424385,5.0
0.4420827172205421,-0.5855862038556131,-0.04507996170463211,0.17497236380230344,0.13374587805492905,0.11770829465516636,5.0
0.4675992967121524,-0.5740613086100198,-0.00825317248238697,0.3161058202303219,0.18143751042928336,0.25023006687423927,5.0
0.42021114459798414,-0.5779029515662567,-0.022983939742378674,0.35916348020547983,0.06129128207160852,0.23436478544694533,5.0
0.3582416888340673,-0.593269489768087,-0.1776566091890892,0.13012063344585584,-0.11846949514367809,0.12984057170085866,5.0
0.3545964267303083,-0.5971110991012062,-0.14819520359684005,-0.022973270308916778,-0.16891256978339955,-0.010147214972745072,5.0
0.38740378566414607,-0.6047943850136801,-0.13346443633684835,-0.15453834407611045,-0.11846949514367809,-0.05587655421816227,5.0
0.44937324142806173,-0.6124776373030365,-0.06717611259461952,-0.16410670485509282,-0.04142915925485611,-0.009213962454512748,5.0
0.4748898209196723,-0.6240025661717473,-0.08927226348460751,-0.13480357717587343,0.04478263966563107,0.009451076527478099,5.0
0.4821803451271916,-0.6047943850136801,-0.12609905270685234,-0.011012808394267604,0.04203120299337657,-0.005480952381583557,5.0
0.46395428984310066,-0.6278441755048666,-0.11136828544686095,0.0446033369559695,0.043865492243842036,-0.056809806736394554,5.0
0.43114693090926315,-0.6278441755048666,-0.00825317248238697,0.20487351494195266,0.020936823478453916,0.008517824009245775,5.0
0.4347921930130231,-0.5971110991012062,-0.12609905270685234,0.2503232687588301,0.04753408193099817,0.10090976070964013,5.0
0.4238564067017435,-0.6124776373030365,-0.1923873764490806,0.17616841072316308,0.097977150977607,0.08877748650961158,5.0
0.42021114459798414,-0.6316858184611037,-0.1702912255590932,-0.01519897261727644,0.07046275069638629,-0.006414204899815849,5.0
0.41292062039046395,-0.7315683335845589,-0.03771457807463582,0.00872195485899568,0.0016767416036656357,0.02344985434113932,5.0
0.41292062039046395,-0.7315683335845589,-0.03771457807463582,0.13071865690628567,0.07046275069638629,0.07571195979135074,5.0
0.45666376563558136,-0.6240025661717473,-0.05981072896462381,0.10320959596138204,0.09522571989846512,0.019716847113873913,5.0
0.4165658824942236,-0.6124776373030365,-0.052445345334627816,0.08945506731241709,-0.08912079442576673,0.008517824009245775,5.0
0.4165658824942236,-0.6124776373030365,-0.052445345334627816,0.09244518279107941,-0.05702065423904451,0.021583350727506615,5.0
0.44572797932430236,-0.6047943850136801,-0.11136828544686095,0.1181601751781804,0.015433944540832295,0.0626464344959218,5.0
0.44937324142806173,-0.6086360279699173,-0.05981072896462381,0.1187581949916365,-0.0038261394313732103,0.07011245037328452,5.0
0.43114693090926315,-0.6240025661717473,-0.08190687985461181,0.11098389729999612,0.002593887627176522,0.04491464821001726,5.0
0.4165658824942236,-0.6047943850136801,-0.08927226348460751,0.09902343538534694,-0.012080460721754326,0.06451293810955451,5.0
0.41292062039046395,-0.5817445608993759,-0.11136828544686095,0.07809262885819773,-0.018500488392050745,0.037448632866216504,5.0
0.41292062039046395,-0.5817445608993759,-0.11136828544686095,0.05716182141930509,-0.04051201183306706,0.06544619062778681,5.0
0.42750166880550317,-0.6086360279699173,-0.15556058722683605,0.039221129459074744,-0.03776057236425625,0.0579801747504241,5.0
0.43843745511678245,-0.6047943850136801,-0.08190687985461181,0.0446033369559695,-0.04968348045784483,0.041181640627043874,5.0
0.43843745511678245,-0.6047943850136801,-0.08190687985461181,0.07749460539776791,-0.09187223109802121,0.029049366604869335,5.0
0.4165658824942236,-0.6163192802592734,-0.11873366907685606,0.06553414428089423,-0.060689241129644356,0.08411122676411385,5.0
0.4347921930130231,-0.6163192802592734,-0.11136828544686095,0.0703183288871988,-0.06619212006726599,0.05238066319811004,5.0
0.43114693090926315,-0.6124776373030365,-0.12609905270685234,0.052975659931526566,-0.06619212006726599,0.04958090777766098,5.0
0.43114693090926315,-0.6124776373030365,-0.12609905270685234,0.0703183288871988,-0.04234630667664515,0.07011245037328452,5.0
0.43843745511678245,-0.6355274614173406,-0.11136828544686095,0.07330844390998938,-0.052434919926655645,0.09064399154607619,5.0
0.43843745511678245,-0.6393691043735776,-0.11873366907685606,0.10679773672396106,-0.04601489356724498,0.07944496701861616,5.0
0.43843745511678245,-0.6393691043735776,-0.11873366907685606,0.11576808133646105,-0.030423397184778402,0.08877748650961158,5.0
0.4347921930130231,-0.6278441755048666,-0.0966376471146038,0.11098389729999612,-0.035926277520678174,0.08597773180057847,5.0
0.43114693090926315,-0.6393691043735776,-0.12609905270685234,0.10978785037913648,-0.06435783081680052,0.07477871011878225,5.0
0.42750166880550317,-0.6201609232155104,-0.11136828544686095,0.11217994422085581,-0.013914754429231402,0.09251049373687698,5.0
0.43114693090926315,-0.6355274614173406,-0.08927226348460751,0.12294435921464532,-0.03409198407537825,0.07757846482781537,5.0
0.43114693090926315,-0.6470523566629337,-0.08190687985461181,0.11337598749474175,-0.012997607531796672,0.06544619062778681,5.0
0.43114693090926315,-0.6124776373030365,-0.11136828544686095,0.1038076194218119,0.005345328494265482,0.05424716752315869,5.0
0.43114693090926315,-0.593269489768087,-0.10400290181686465,0.06972030565470483,0.021853970900242936,0.009451076527478099,5.0
0.43843745511678245,-0.6047943850136801,-0.12609905270685234,0.06912228265014671,0.031025439525020713,-0.015746724390811272,5.0
0.43843745511678245,-0.6047943850136801,-0.0966376471146038,0.05656379795887526,0.0603741346498195,-0.01761322942727589,5.0
0.4420827172205421,-0.6047943850136801,-0.06717611259461952,0.0505835679132941,0.07046275069638629,-0.011080467490977363,5.0
0.43114693090926315,-0.593269489768087,-0.08927226348460751,0.04639740551377214,0.05578840313398692,-0.020412986981972796,5.0
0.43114693090926315,-0.5663780226975459,-0.11136828544686095,0.03862310599864491,0.06587701918055373,0.0019850620729472868,5.0
0.43114693090926315,-0.5586947704081898,-0.12609905270685234,0.011712068514171114,0.07137989811817536,0.0159838384637766,5.0
0.4347921930130231,-0.5740613086100198,-0.11136828544686095,-0.038521865692197496,0.04019690814979848,-0.01481347187257899,5.0
0.4347921930130231,-0.6047943850136801,-0.10400290181686465,-0.04749221759864502,0.015433944540832295,0.008517824009245775,5.0
0.44572797932430236,-0.6047943850136801,-0.12609905270685234,-0.022973270308916778,0.046616934509209146,0.011317578718278884,5.0
0.4420827172205421,-0.6201609232155104,-0.0966376471146038,-0.01280687877555712,0.04936837677457626,-0.016679976909043565,5.0
0.43843745511678245,-0.6201609232155104,-0.05981072896462381,0.0027417239016711004,0.0181853840096431,-0.023212738845342078,5.0
0.4056300961829444,-0.6201609232155104,-0.11873366907685606,0.01051602159331144,0.006262475916054524,-0.011080467490977363,5.0
0.41292062039046395,-0.593269489768087,-0.13346443633684835,0.0021437004412412533,0.004428182470754604,-0.005480952381583557,5.0
0.43114693090926315,-0.5971110991012062,-0.08927226348460751,0.006927884477706174,0.027356852634420874,-0.030678753299872897,5.0
0.42750166880550317,-0.593269489768087,-0.13346443633684835,-0.03732581877133783,-0.0074947266715425925,-0.023212738845342078,5.0
0.4165658824942236,-0.5779029515662567,-0.08190687985461181,-0.04928628068598702,0.016351089166065022,-0.008280709936280455,5.0
0.41292062039046395,-0.5817445608993759,-0.10400290181686465,-0.05825663259243453,0.01084821022844341,0.00571806930021269,5.0
0.44572797932430236,-0.6086360279699173,-0.12609905270685234,-0.06423686719673287,-0.016666194946750826,0.010384329045710385,5.0
0.43114693090926315,-0.6393691043735776,-0.0966376471146038,-0.06902104029227656,-0.04601489356724498,0.01878359601847351,5.0
0.43114693090926315,-0.6393691043735776,-0.11873366907685606,-0.040315936073487,-0.04234630667664515,0.034648877445767445,5.0
0.42021114459798414,-0.6585772519085271,-0.1629258419290969,0.00752590793813602,-0.005660432876673132,0.025316357954772023,5.0
0.44572797932430236,-0.650893999619171,-0.12609905270685234,0.04400531349553967,0.030108292103231682,-0.018546481945508182,5.0
0.45666376563558136,-0.6393691043735776,-0.07454149622461581,0.0505835679132941,0.016351089166065022,-0.06054281680932379,5.0
0.46395428984310066,-0.6124776373030365,-0.0966376471146038,0.023074506968390463,-0.045097746145455954,-0.051210297318328345,5.0
0.4347921930130231,-0.5971110991012062,-0.13346443633684835,0.027260667544425556,-0.03409198407537825,0.007584571491013482,5.0
0.4347921930130231,-0.5971110991012062,-0.13346443633684835,0.023074506968390463,-0.0487663330360558,0.048647655970844625,5.0
0.43114693090926315,-0.6009527420574432,-0.11136828544686095,0.01231009197460094,-0.001074699263423324,0.06637944172318722,5.0
0.42021114459798414,-0.6240025661717473,-0.14819520359684005,0.026064620623565883,0.024605410369053757,0.06544619062778681,5.0
0.43114693090926315,-0.6201609232155104,-0.11136828544686095,0.029652761386144876,0.07229704553996438,0.07664521230958304,5.0
0.42750166880550317,-0.6470523566629337,-0.14819520359684005,0.03802508253821508,0.05945699282114306,0.041181640627043874,5.0
0.42750166880550317,-0.6854687189790682,-0.10400290181686465,0.0703183288871988,0.05762269797756501,0.026249610473004333,5.0
0.45666376563558136,-0.6739437901103574,-0.12609905270685234,0.12294435921464532,-0.012997607531796672,0.024383106859371617,5.0
0.4821803451271916,-0.6585772519085271,-0.12609905270685234,0.09842541192491712,0.097977150977607,0.025316357954772023,5.0
0.43114693090926315,-0.650893999619171,-0.08190687985461181,0.1677960895710929,0.05395410829040883,0.08037821953684846,5.0
0.41292062039046395,-0.650893999619171,-0.11873366907685606,0.13370877420843483,0.09430857247667611,0.038381885028740834,5.0
0.4165658824942236,-0.6124776373030365,-0.08927226348460751,0.12892458652499617,-0.03776057236425625,0.08504447928234617,5.0
0.4238564067017435,-0.5817445608993759,-0.08927226348460751,0.1271305197906804,-0.012997607531796672,0.10837577516417093,5.0
0.4238564067017435,-0.5817445608993759,-0.06717611259461952,0.1163661047968909,0.034694026415620555,0.07571195979135074,5.0
0.4056300961829444,-0.6124776373030365,-0.11873366907685606,0.11756215171775058,-0.03959486441127802,0.06544619062778681,5.0
0.3764679993528668,-0.6124776373030365,-0.11873366907685606,0.10081750576663646,-0.017583341669400784,0.017850343500241207,5.0
0.4347921930130231,-0.5548531274519526,-0.08190687985461181,0.07570053592822185,-0.03684342494246721,0.06824594533681992,5.0
0.43843745511678245,-0.5855862038556131,-0.12609905270685234,0.06314205192075797,-0.022169075981789674,0.0869109843188108,5.0
0.4347921930130231,-0.5779029515662567,-0.11136828544686095,0.0703183288871988,-0.017583341669400784,0.08317797709154538,5.0
0.4238564067017435,-0.5971110991012062,-0.052445345334627816,0.03383892196217998,-0.002908992708723246,0.06917919785505222,5.0
0.42750166880550317,-0.5855862038556131,-0.015618556112382968,0.05716182141930509,-0.022169075981789674,0.08224472457331305,5.0
0.43114693090926315,-0.593269489768087,-0.11136828544686095,0.021878460047530787,-0.03409198407537825,0.045847900194687596,5.0
0.4347921930130231,-0.6047943850136801,-0.08927226348460751,0.006329861017276353,-0.001074699263423324,0.029049366604869335,5.0
0.43114693090926315,-0.6047943850136801,-0.11136828544686095,0.011114045053741273,-0.03867771698948898,0.0626464344959218,5.0
0.43114693090926315,-0.6086360279699173,-0.14819520359684005,0.004535794282960588,-0.04601489356724498,0.025316357954772023,5.0
0.41292062039046395,-0.6201609232155104,-0.13346443633684835,-0.003238510702627237,-0.04784918561426674,0.056113671136791395,5.0
0.4347921930130231,-0.6393691043735776,-0.08190687985461181,0.00872195485899568,-0.05702065423904451,0.06824594533681992,5.0
0.43843745511678245,-0.6393691043735776,-0.14819520359684005,0.04639740551377214,-0.03317483805186736,0.09904325567317551,5.0
0.43843745511678245,-0.6662605378210009,-0.12609905270685234,0.055965775410188864,-0.020334781837350675,0.08504447928234617,5.0
0.43843745511678245,-0.6662605378210009,-0.12609905270685234,0.05775984487973493,-0.04234630667664515,0.056113671136791395,5.0
0.4238564067017435,-0.650893999619171,-0.14082981996684435,0.08467088145246529,0.02368826574382103,0.06451293810955451,5.0
0.43114693090926315,-0.650893999619171,-0.06717611259461952,0.07869065140688414,-0.005660432876673132,0.057046922232191793,5.0
0.42021114459798414,-0.6393691043735776,-0.08190687985461181,0.09483727480931187,-0.015749047874531324,0.05518041861855909,5.0
0.43114693090926315,-0.6432107137066968,-0.10400290181686465,0.11576808133646105,-0.0588549462860663,0.04491464821001726,5.0
0.43843745511678245,-0.6585772519085271,-0.1629258419290969,0.10679773672396106,-0.052434919926655645,0.08411122676411385,5.0
0.44572797932430236,-0.650893999619171,-0.14819520359684005,0.10799377999784696,-0.022169075981789674,0.05238066319811004,5.0
0.4420827172205421,-0.6585772519085271,-0.11136828544686095,0.11995424191249615,0.0007595941818765989,0.06637944172318722,5.0
0.44572797932430236,-0.6585772519085271,-0.07454149622461581,0.13191470382714535,0.015433944540832295,0.06637944172318722,5.0
0.43843745511678245,-0.6432107137066968,-0.11136828544686095,0.13071865690628567,-0.022169075981789674,0.08317797709154538,5.0
0.43843745511678245,-0.6470523566629337,-0.14819520359684005,0.13729691497101384,-0.021251928560000632,0.08597773180057847,5.0
0.43843745511678245,-0.6470523566629337,-0.14819520359684005,0.12593447286982073,-0.04234630667664515,0.07664521230958304,5.0
0.42021114459798414,-0.6240025661717473,-0.08927226348460751,0.13909097805835585,-0.035926277520678174,0.0869109843188108,5.0
0.4238564067017435,-0.6163192802592734,-0.11873366907685606,0.12174831229378565,-0.05151777250486658,0.1074425226459386,5.0
0.4238564067017435,-0.6163192802592734,-0.11873366907685606,0.11217994422085581,-0.052434919926655645,0.08504447928234617,5.0
0.44572797932430236,-0.6009527420574432,-0.07454149622461581,0.0834748363550925,-0.045097746145455954,0.09344374625510928,5.0
0.43114693090926315,-0.5971110991012062,-0.14082981996684435,0.060749959902525505,-0.04142915925485611,0.056113671136791395,5.0
0.43114693090926315,-0.5971110991012062,-0.14082981996684435,0.014702185816320263,0.0007595941818765989,0.03651538105940015,5.0
0.42021114459798414,-0.5586947704081898,-0.12609905270685234,-0.03194361492141681,-0.03225769063007833,-0.003614450190782733,5.0
0.4420827172205421,-0.5855862038556131,-0.11873366907685606,-0.03134559146098699,-0.03959486441127802,-0.001747947999981941,5.0
0.4420827172205421,-0.5855862038556131,-0.11873366907685606,-0.054070468369425674,-0.005660432876673132,-0.013880219354346666,5.0
0.43843745511678245,-0.6047943850136801,-0.11873366907685606,-0.07380522797571523,-0.024920515450600478,-0.056809806736394554,5.0
0.44937324142806173,-0.6393691043735776,-0.11873366907685606,-0.07260918105485556,-0.024920515450600478,-0.04934379228186374,5.0
0.43843745511678245,-0.6240025661717473,-0.1850219928190849,-0.04510012375692568,-0.017583341669400784,-0.038144767754403744,5.0
0.43843745511678245,-0.6393691043735776,-0.14082981996684435,-0.01280687877555712,-0.013914754429231402,-0.001747947999981941,5.0
0.44937324142806173,-0.650893999619171,-0.14082981996684435,0.015898229090206193,0.058539845399354036,-0.005480952381583557,5.0
0.4603090277393413,-0.662418894864764,-0.1776566091890892,0.04639740551377214,0.056705550555775946,-0.005480952381583557,5.0
0.44937324142806173,-0.6470523566629337,-0.1776566091890892,0.07809262885819773,0.04019690814979848,-0.007347457418048141,5.0
0.4347921930130231,-0.6355274614173406,-0.14082981996684435,0.08526890491289513,0.028274000056209926,0.021583350727506615,5.0
0.4238564067017435,-0.6393691043735776,-0.08927226348460751,0.09722936682754432,0.0181853840096431,0.02344985434113932,5.0
0.43114693090926315,-0.6316858184611037,-0.11873366907685606,0.10679773672396106,0.0007595941818765989,0.06637944172318722,5.0
0.42750166880550317,-0.6585772519085271,-0.1776566091890892,0.11995424191249615,-0.014831901151881367,0.039315136835557186,5.0
0.43114693090926315,-0.650893999619171,-0.15556058722683605,0.12174831229378565,-0.002908992708723246,0.06171318197768952,5.0
0.4347921930130231,-0.6393691043735776,-0.0966376471146038,0.12414040613550498,-0.03134054320828929,0.06171318197768952,5.0
0.43114693090926315,-0.6393691043735776,-0.13346443633684835,0.12414040613550498,-0.03500913009888913,-0.003614450190782733,5.0
0.43114693090926315,-0.6355274614173406,-0.14819520359684005,0.1181601751781804,-0.03684342494246721,0.012250831236511182,5.0
0.43114693090926315,-0.6393691043735776,-0.2144835273390686,0.12115028883335582,0.009013915384865331,-0.004547702709015052,5.0
0.43843745511678245,-0.650893999619171,-0.1776566091890892,0.12414040613550498,0.03744546588443137,0.015050588791208103,5.0
0.44937324142806173,-0.6393691043735776,-0.11873366907685606,0.1163661047968909,0.02368826574382103,-0.002681197672550446,5.0
0.44572797932430236,-0.6355274614173406,-0.14082981996684435,0.11576808133646105,0.006262475916054524,0.0038515642637480733,5.0
0.4347921930130231,-0.6201609232155104,-0.14082981996684435,0.09902343538534694,0.022771118322031998,-0.010147214972745072,5.0
0.4165658824942236,-0.5971110991012062,-0.13346443633684835,0.07271042090543126,0.01176535625195429,0.013184083754743496,5.0
0.42021114459798414,-0.6009527420574432,-0.1702912255590932,0.05476972940107263,-0.021251928560000632,0.05424716752315869,5.0
0.42021114459798414,-0.5971110991012062,-0.10400290181686465,0.055965775410188864,-0.07536358869204376,0.010384329045710385,5.0
0.43843745511678245,-0.6201609232155104,-0.10400290181686465,0.04998554445286427,-0.08728649958218865,0.01878359601847351,5.0
0.45301850353182166,-0.6316858184611037,-0.14082981996684435,0.08287681289466267,-0.08086647322277798,0.03278237383213475,5.0
0.44572797932430236,-0.650893999619171,-0.1776566091890892,0.10500366634267153,-0.0588549462860663,0.037448632866216504,5.0
0.43843745511678245,-0.6393691043735776,-0.1923873764490806,0.11217994422085581,-0.05060062787963389,0.0477144038083203,5.0
0.4420827172205421,-0.650893999619171,-0.19975276007907689,0.12832656306456633,-0.055186362192022755,0.07384545760054996,5.0
0.4238564067017435,-0.6393691043735776,-0.14819520359684005,0.12115028883335582,-0.07261215201978927,0.04398139631427391,5.0
0.4165658824942236,-0.6432107137066968,-0.12609905270685234,0.15164946343343488,-0.10379514198816611,0.0355821292525838,5.0
0.43114693090926315,-0.6393691043735776,-0.1629258419290969,0.15942376841902273,-0.08178362064456701,0.030915870218502037,5.0
0.4347921930130231,-0.6316858184611037,-0.1702912255590932,0.14985539305214537,-0.05060062787963389,0.05051415958447733,5.0
0.44937324142806173,-0.6124776373030365,-0.1702912255590932,0.14148307190007522,-0.012080460721754326,0.05424716752315869,5.0
0.43843745511678245,-0.5971110991012062,-0.14082981996684435,0.12832656306456633,-0.018500488392050745,0.04958090777766098,5.0
0.42750166880550317,-0.5894278468118501,-0.1629258419290969,0.11158192076042599,-0.04784918561426674,0.06171318197768952,5.0
0.4238564067017435,-0.5779029515662567,-0.2144835273390686,0.10081750576663646,-0.04326345130187787,0.09251049373687698,5.0
0.4238564067017435,-0.593269489768087,-0.1702912255590932,0.09184715933064956,-0.024003369427089593,0.07757846482781537,5.0
0.43843745511678245,-0.6201609232155104,-0.11136828544686095,0.08227878943423284,-0.05793780166083357,0.07851171734604764,5.0
0.43843745511678245,-0.6201609232155104,-0.11136828544686095,0.06613216734243631,-0.06619212006726599,0.0579801747504241,5.0
0.44937324142806173,-0.6240025661717473,-0.12609905270685234,0.06852425964558859,-0.019417635114700713,0.04958090777766098,5.0
0.43114693090926315,-0.6124776373030365,-0.14819520359684005,0.07510251337953544,-0.001074699263423324,0.030915870218502037,5.0
0.43114693090926315,-0.6124776373030365,-0.14819520359684005,0.06613216734243631,-0.006577579948892632,0.02998261770026974,5.0
0.43114693090926315,-0.6201609232155104,-0.1629258419290969,0.05536775194975903,0.0035110350489655617,0.05051415958447733,5.0
0.43843745511678245,-0.6393691043735776,-0.052445345334627816,0.07271042090543126,-0.046932038192477724,0.03278237383213475,5.0
0.43114693090926315,-0.6316858184611037,-0.10400290181686465,0.09244518279107941,-0.029506249762989368,0.0477144038083203,5.0
0.4347921930130231,-0.6316858184611037,-0.11136828544686095,0.10859180345827682,-0.009329020291627287,0.05238066319811004,5.0
0.43843745511678245,-0.6201609232155104,-0.11136828544686095,0.08885704385198727,0.01176535625195429,0.03278237383213475,5.0
0.43114693090926315,-0.6163192802592734,-0.14819520359684005,0.0745044899191056,0.030108292103231682,0.010384329045710385,5.0
0.43114693090926315,-0.6086360279699173,-0.1629258419290969,0.06493612116236817,0.0007595941818765989,0.021583350727506615,5.0
0.4347921930130231,-0.6124776373030365,-0.1776566091890892,0.06912228265014671,0.06220842949339758,0.037448632866216504,5.0
0.44937324142806173,-0.6278441755048666,-0.15556058722683605,0.07629855938865167,0.10898292003907549,-0.003614450190782733,5.0
0.44572797932430236,-0.6316858184611037,-0.1629258419290969,0.0709163518917569,0.10623147777370837,0.010384329045710385,5.0
0.43843745511678245,-0.6355274614173406,-0.11136828544686095,0.05536775194975903,0.13282873063314,-0.007347457418048141,5.0
0.43114693090926315,-0.6316858184611037,-0.14819520359684005,0.03862310599864491,0.058539845399354036,-0.013880219354346666,5.0
0.4238564067017435,-0.5740613086100198,-0.14819520359684005,0.02845671446528523,0.021853970900242936,-0.010147214972745072,5.0
0.4238564067017435,-0.593269489768087,-0.15556058722683605,0.027260667544425556,-0.0074947266715425925,0.05518041861855909,5.0
0.44572797932430236,-0.6316858184611037,-0.1776566091890892,0.03324089850175016,-0.02858910373947848,0.045847900194687596,5.0
0.43843745511678245,-0.6393691043735776,-0.2144835273390686,0.05417170594064279,-0.03684342494246721,0.0579801747504241,5.0
0.4420827172205421,-0.6470523566629337,-0.14082981996684435,0.07390646737041921,-0.029506249762989368,0.05518041861855909,5.0
0.44572797932430236,-0.6316858184611037,-0.14082981996684435,0.10081750576663646,-0.024003369427089593,0.039315136835557186,5.0
0.43843745511678245,-0.6316858184611037,-0.15556058722683605,0.0804847208764302,-0.05151777250486658,0.048647655970844625,5.0
0.42021114459798414,-0.6124776373030365,-0.1923873764490806,0.09304320442802234,-0.061606388551433404,0.057046922232191793,5.0
0.42021114459798414,-0.6009527420574432,-0.2144835273390686,0.10201355268749611,-0.07077785717621118,0.09344374625510928,5.0
0.42021114459798414,-0.6163192802592734,-0.1629258419290969,0.12414040613550498,-0.07994932580098896,0.10930902768240322,5.0
0.43114693090926315,-0.6355274614173406,-0.11136828544686095,0.11995424191249615,-0.08361790989503247,0.06171318197768952,5.0
0.44572797932430236,-0.6316858184611037,-0.12609905270685234,0.12593447286982073,-0.045097746145455954,0.07291220508231763,5.0
0.44572797932430236,-0.6393691043735776,-0.14819520359684005,0.12892458652499617,-0.04326345130187787,0.0598466783640568,5.0
0.4347921930130231,-0.6201609232155104,-0.14082981996684435,0.11217994422085581,0.016351089166065022,0.06171318197768952,5.0
0.45301850353182166,-0.6124776373030365,-0.11136828544686095,0.12533644940939093,-0.017583341669400784,0.05144741139129369,5.0
0.4420827172205421,-0.6124776373030365,-0.13346443633684835,0.1187581949916365,0.005345328494265482,0.0579801747504241,5.0
0.4420827172205421,-0.6047943850136801,-0.13346443633684835,0.12174831229378565,0.029191144681442623,0.03184912131390244,5.0
0.44572797932430236,-0.5971110991012062,-0.13346443633684835,0.1103858738395663,0.03377687899383153,0.020650098209274312,5.0
0.43114693090926315,-0.593269489768087,-0.11136828544686095,0.06374007515325195,0.020019678853221187,0.027182861568404725,5.0
0.42021114459798414,-0.6047943850136801,-0.06717611259461952,0.029652761386144876,0.02368826574382103,0.024383106859371617,5.0
0.43114693090926315,-0.6163192802592734,-0.11136828544686095,0.03742706090127212,0.020936823478453916,0.0355821292525838,5.0
0.44937324142806173,-0.6355274614173406,-0.10400290181686465,0.05536775194975903,0.05487125571219789,0.04398139631427391,5.0
0.43843745511678245,-0.6316858184611037,-0.11873366907685606,0.08108274433686004,0.08605424568057472,0.00571806930021269,5.0
0.44572797932430236,-0.6432107137066968,-0.13346443633684835,0.07749460539776791,0.06312557691518661,0.015050588791208103,5.0
0.4603090277393413,-0.6124776373030365,-0.14082981996684435,0.05716182141930509,0.07596563522712056,-0.01761322942727589,5.0
0.44572797932430236,-0.5855862038556131,-0.10400290181686465,0.06732821346552047,0.12365726760147486,-0.028812253954735897,5.0
0.4347921930130231,-0.5779029515662567,-0.15556058722683605,0.012908115435030768,0.10348003550834126,-0.041877777827332936,5.0
0.41292062039046395,-0.5894278468118501,-0.1850219928190849,-0.0014444403213377496,0.08697139310236375,-0.026012496400038988,5.0
0.42021114459798414,-0.593269489768087,-0.14819520359684005,-0.014002925696416773,0.05762269797756501,-0.03534501589103442,5.0
0.4238564067017435,-0.6047943850136801,-0.11136828544686095,-0.006826644171258781,0.031025439525020713,-0.015746724390811272,5.0
0.42750166880550317,-0.6240025661717473,-0.14082981996684435,-0.006228620710828934,0.015433944540832295,-0.001747947999981941,5.0
0.43114693090926315,-0.6240025661717473,-0.08927226348460751,-0.01579698878375879,-0.005660432876673132,0.04024838864237353,5.0
0.42750166880550317,-0.6316858184611037,-0.11136828544686095,-0.0038365341630570847,-0.008411873394192556,0.07291220508231763,5.0
0.42021114459798414,-0.6393691043735776,-0.08927226348460751,0.03742706090127212,-0.04784918561426674,0.058913427268656414,5.0
0.41292062039046395,-0.6393691043735776,-0.10400290181686465,0.024868577349679958,-0.05610350681725549,0.042114892522787224,5.0
0.4092753582867043,-0.6316858184611037,-0.15556058722683605,0.04938752099243443,-0.05151777250486658,0.07571195979135074,5.0
0.4238564067017435,-0.6240025661717473,-0.12609905270685234,0.05177961392241033,-0.0588549462860663,0.0626464344959218,5.0
0.42750166880550317,-0.6316858184611037,-0.11136828544686095,0.055965775410188864,-0.061606388551433404,0.06637944172318722,5.0
0.43114693090926315,-0.6163192802592734,-0.14082981996684435,0.05118159137372393,-0.04968348045784483,0.03278237383213475,5.0
0.4238564067017435,-0.6124776373030365,-0.13346443633684835,0.04938752099243443,-0.05793780166083357,0.041181640627043874,5.0
0.42750166880550317,-0.6240025661717473,-0.12609905270685234,0.04400531349553967,-0.04051201183306706,0.058913427268656414,5.0
0.4347921930130231,-0.6355274614173406,-0.1702912255590932,0.04998554445286427,-0.035926277520678174,0.057046922232191793,5.0
0.44572797932430236,-0.650893999619171,-0.11136828544686095,0.07570053592822185,0.0181853840096431,0.048647655970844625,5.0
0.42750166880550317,-0.650893999619171,-0.1629258419290969,0.10081750576663646,0.05028552419636532,0.0355821292525838,5.0
0.43114693090926315,-0.6393691043735776,-0.1776566091890892,0.10081750576663646,0.027356852634420874,0.0029183117455157544,5.0
0.43114693090926315,-0.6240025661717473,-0.12609905270685234,0.09244518279107941,0.029191144681442623,-0.04467753538202984,5.0
0.4420827172205421,-0.6201609232155104,-0.13346443633684835,0.1044056428822417,0.01176535625195429,-0.012946966836114375,5.0
0.4420827172205421,-0.6201609232155104,-0.10400290181686465,0.09722936682754432,0.009013915384865331,-0.03347851085456981,5.0
0.43843745511678245,-0.6163192802592734,-0.14082981996684435,0.08227878943423284,0.005345328494265482,-0.022279486327109795,5.0
0.43114693090926315,-0.6201609232155104,-0.10400290181686465,0.08227878943423284,-0.004743286154023171,-0.012013720009209656,5.0
0.43114693090926315,-0.6201609232155104,-0.05981072896462381,0.09483727480931187,-0.022169075981789674,-0.001747947999981941,5.0
0.4238564067017435,-0.6163192802592734,-0.11136828544686095,0.10799377999784696,-0.03225769063007833,0.004784816781980371,5.0
0.42021114459798414,-0.6201609232155104,-0.14082981996684435,0.10679773672396106,-0.04601489356724498,0.007584571491013482,5.0
0.4347921930130231,-0.6278441755048666,-0.14082981996684435,0.10859180345827682,-0.016666194946750826,0.015050588791208103,5.0
0.43843745511678245,-0.6278441755048666,-0.13346443633684835,0.1181601751781804,-0.009329020291627287,0.041181640627043874,5.0
0.44572797932430236,-0.6432107137066968,-0.14082981996684435,0.12473842594896108,0.019102531431432153,0.038381885028740834,5.0
0.45301850353182166,-0.6393691043735776,-0.12609905270685234,0.11397401095517155,0.04203120299337657,0.03371562563895109,5.0
0.4238564067017435,-0.6201609232155104,-0.11873366907685606,0.1187581949916365,0.0603741346498195,0.008517824009245775,5.0
0.42021114459798414,-0.5894278468118501,-0.11873366907685606,0.120552265372926,0.031025439525020713,0.009451076527478099,5.0
0.4165658824942236,-0.5779029515662567,-0.12609905270685234,0.10500366634267153,-0.0038261394313732103,0.030915870218502037,5.0
0.43114693090926315,-0.6009527420574432,-0.14082981996684435,0.11756215171775058,0.004428182470754604,0.058913427268656414,5.0
0.43114693090926315,-0.6009527420574432,-0.10400290181686465,0.12473842594896108,-0.03867771698948898,0.09624350380980622,5.0
0.42021114459798414,-0.6047943850136801,-0.10400290181686465,0.129522609985426,-0.005660432876673132,0.07757846482781537,5.0
0.4165658824942236,-0.6124776373030365,-0.05981072896462381,0.08526890491289513,-0.0019918459860732846,0.07757846482781537,5.0
0.42021114459798414,-0.6124776373030365,-0.07454149622461581,0.08885704385198727,-0.0019918459860732846,0.07664521230958304,5.0
0.4347921930130231,-0.593269489768087,-0.14082981996684435,0.06194600591164174,-0.009329020291627287,0.07571195979135074,5.0
0.4347921930130231,-0.593269489768087,-0.14082981996684435,0.053573683391956395,0.05945699282114306,0.03184912131390244,5.0
0.44572797932430236,-0.6124776373030365,-0.14082981996684435,0.041613221477307206,0.03744546588443137,0.027182861568404725,5.0
0.43114693090926315,-0.6316858184611037,-0.14082981996684435,0.03324089850175016,0.06495987175876469,-0.036278268409266734,5.0
0.43114693090926315,-0.6316858184611037,-0.14082981996684435,0.0505835679132941,0.045699787087420125,-0.009213962454512748,5.0
0.43843745511678245,-0.6201609232155104,-0.11873366907685606,0.0745044899191056,0.016351089166065022,0.009451076527478099,5.0
0.43843745511678245,-0.6047943850136801,-0.08927226348460751,0.060749959902525505,0.03561117383740961,0.06171318197768952,5.0
0.43843745511678245,-0.6047943850136801,-0.08927226348460751,0.05118159137372393,0.028274000056209926,0.07851171734604764,5.0
0.43114693090926315,-0.5971110991012062,-0.11136828544686095,0.04101519801687736,-0.005660432876673132,0.09437699877334159,5.0
0.43114693090926315,-0.6124776373030365,-0.11136828544686095,0.053573683391956395,-0.04784918561426674,0.12610756162792947,5.0
0.43114693090926315,-0.6124776373030365,-0.11136828544686095,0.06254402891619985,-0.09003794184755576,0.10557602330080164,5.0
0.43114693090926315,-0.6316858184611037,-0.1776566091890892,0.0804847208764302,-0.08636935216039959,0.08971073902784388,5.0
0.44572797932430236,-0.6201609232155104,-0.1629258419290969,0.10978785037913648,-0.025837662872389516,0.06917919785505222,5.0
0.44572797932430236,-0.6201609232155104,-0.1629258419290969,0.10918982691870663,0.020936823478453916,0.07571195979135074,5.0
0.4347921930130231,-0.6201609232155104,-0.12609905270685234,0.10081750576663646,0.0016767416036656357,0.045847900194687596,5.0
0.43843745511678245,-0.6124776373030365,-0.13346443633684835,0.09005308894936005,-0.006577579948892632,0.06357968559132221,5.0
0.43114693090926315,-0.6163192802592734,-0.11873366907685606,0.1038076194218119,0.012682502275465177,0.057046922232191793,5.0
0.42750166880550317,-0.6163192802592734,-0.14082981996684435,0.0876609969311276,0.0007595941818765989,0.03651538105940015,5.0
0.43114693090926315,-0.6201609232155104,-0.14082981996684435,0.09244518279107941,-0.012997607531796672,0.045847900194687596,5.0
0.4347921930130231,-0.6124776373030365,-0.14082981996684435,0.08407285981552233,-0.013914754429231402,0.02251660324573892,5.0
0.4165658824942236,-0.6201609232155104,-0.14082981996684435,0.08108274433686004,0.0016767416036656357,0.04958090777766098,5.0
0.42021114459798414,-0.6201609232155104,-0.08927226348460751,0.058955890888851156,-0.0019918459860732846,0.02998261770026974,5.0
0.42021114459798414,-0.6124776373030365,-0.04507996170463211,0.05237763647109673,-0.0074947266715425925,0.010384329045710385,5.0
0.4238564067017435,-0.6201609232155104,-0.07454149622461581,0.04579938387682917,0.01176535625195429,0.028116114086637032,5.0
0.42750166880550317,-0.6124776373030365,-0.07454149622461581,0.042809268398166886,-0.012997607531796672,0.048647655970844625,5.0
0.44572797932430236,-0.6047943850136801,-0.11873366907685606,0.03264287504132031,-0.025837662872389516,0.025316357954772023,5.0
0.43843745511678245,-0.6124776373030365,-0.1776566091890892,0.04221124493773704,0.0016767416036656357,0.038381885028740834,5.0
0.4347921930130231,-0.6355274614173406,-0.12609905270685234,0.0505835679132941,-0.021251928560000632,0.05518041861855909,5.0
0.44572797932430236,-0.6470523566629337,-0.14819520359684005,0.05417170594064279,-0.012080460721754326,0.039315136835557186,5.0
0.43114693090926315,-0.6316858184611037,-0.14819520359684005,0.08108274433686004,-0.0038261394313732103,0.048647655970844625,5.0
0.43114693090926315,-0.6393691043735776,-0.11136828544686095,0.08407285981552233,0.0035110350489655617,0.07104570004585303,5.0
0.4165658824942236,-0.6201609232155104,-0.11136828544686095,0.07809262885819773,-0.022169075981789674,0.06917919785505222,5.0
0.4420827172205421,-0.6316858184611037,-0.08927226348460751,0.08287681289466267,-0.04418059872366689,0.05051415958447733,5.0
0.43843745511678245,-0.6355274614173406,-0.14082981996684435,0.09543529826974169,-0.045097746145455954,0.07384545760054996,5.0
0.43843745511678245,-0.6393691043735776,-0.1629258419290969,0.10201355268749611,-0.04601489356724498,0.05518041861855909,5.0
0.44572797932430236,-0.6316858184611037,-0.1629258419290969,0.1044056428822417,-0.04234630667664515,0.041181640627043874,5.0
0.41292062039046395,-0.6316858184611037,-0.15556058722683605,0.11158192076042599,-0.07077785717621118,0.057046922232191793,5.0
0.43114693090926315,-0.6278441755048666,-0.14082981996684435,0.1038076194218119,-0.04784918561426674,0.039315136835557186,5.0
0.43843745511678245,-0.6316858184611037,-0.11136828544686095,0.10261157250095222,-0.07077785717621118,0.042114892522787224,5.0
0.43843745511678245,-0.6240025661717473,-0.12609905270685234,0.09902343538534694,-0.017583341669400784,0.058913427268656414,5.0
0.4347921930130231,-0.6316858184611037,-0.14082981996684435,0.09005308894936005,0.01176535625195429,0.060779930882289106,5.0
0.42750166880550317,-0.6163192802592734,-0.11873366907685606,0.0834748363550925,0.006262475916054524,0.038381885028740834,5.0
0.43114693090926315,-0.593269489768087,-0.12609905270685234,0.06972030565470483,-0.025837662872389516,0.02251660324573892,5.0
0.43114693090926315,-0.6124776373030365,-0.12609905270685234,0.041613221477307206,-0.02675481029417856,0.025316357954772023,5.0
0.43114693090926315,-0.6316858184611037,-0.1629258419290969,0.05237763647109673,-0.006577579948892632,0.00571806930021269,5.0
0.43843745511678245,-0.6278441755048666,-0.15556058722683605,0.06912228265014671,-0.006577579948892632,0.016917090982008904,5.0
0.43843745511678245,-0.6393691043735776,-0.11136828544686095,0.07809262885819773,-0.019417635114700713,0.0159838384637766,5.0
0.43843745511678245,-0.6393691043735776,-0.1702912255590932,0.0876609969311276,0.022771118322031998,0.013184083754743496,5.0
0.4420827172205421,-0.6393691043735776,-0.1629258419290969,0.08945506731241709,0.008096769361354447,0.03184912131390244,5.0
0.4420827172205421,-0.6163192802592734,-0.08927226348460751,0.08526890491289513,0.03836261330622041,-0.004547702709015052,5.0
0.43114693090926315,-0.6163192802592734,-0.14082981996684435,0.09244518279107941,0.027356852634420874,0.027182861568404725,5.0
0.43114693090926315,-0.6316858184611037,-0.1629258419290969,0.11337598749474175,0.04203120299337657,0.056113671136791395,5.0
0.43114693090926315,-0.6278441755048666,-0.14082981996684435,0.11457203441560142,0.05211981344683075,0.021583350727506615,5.0
0.42750166880550317,-0.6201609232155104,-0.10400290181686465,0.13251272728757515,0.043865492243842036,0.009451076527478099,5.0
0.42021114459798414,-0.6278441755048666,-0.07454149622461581,0.1187581949916365,0.03194258694680977,-0.0008146954817496486,5.0
0.42021114459798414,-0.5855862038556131,-0.11136828544686095,0.1044056428822417,-0.005660432876673132,0.028116114086637032,5.0
0.42750166880550317,-0.593269489768087,-0.12609905270685234,0.09483727480931187,0.0016767416036656357,0.027182861568404725,5.0
0.4347921930130231,-0.5971110991012062,-0.14819520359684005,0.08108274433686004,-0.006577579948892632,0.03278237383213475,5.0
0.4347921930130231,-0.6047943850136801,-0.11873366907685606,0.0745044899191056,-0.010246167101669633,0.07104570004585303,5.0
0.43843745511678245,-0.6201609232155104,-0.15556058722683605,0.09005308894936005,0.029191144681442623,0.05051415958447733,5.0
0.43843745511678245,-0.6086360279699173,-0.11136828544686095,0.0936412278884522,0.008096769361354447,0.05144741139129369,5.0
0.44572797932430236,-0.5971110991012062,-0.08927226348460751,0.07211239790087315,0.022771118322031998,0.034648877445767445,5.0
0.4238564067017435,-0.5894278468118501,-0.04507996170463211,0.06433809815781007,0.016351089166065022,-0.004547702709015052,5.0
0.43114693090926315,-0.6009527420574432,-0.08927226348460751,0.052975659931526566,0.016351089166065022,-0.003614450190782733,5.0
0.43843745511678245,-0.6240025661717473,-0.07454149622461581,0.04699542897420196,0.004428182470754604,0.0019850620729472868,5.0
0.42750166880550317,-0.6163192802592734,-0.07454149622461581,0.0703183288871988,0.0016767416036656357,0.048647655970844625,5.0
0.43114693090926315,-0.6163192802592734,-0.08190687985461181,0.09124913587021972,-0.008411873394192556,0.06451293810955451,5.0
0.44572797932430236,-0.6047943850136801,-0.07454149622461581,0.09304320442802234,0.015433944540832295,0.0579801747504241,5.0
0.44572797932430236,-0.6047943850136801,-0.07454149622461581,0.09663134336711447,0.039279760728009455,0.020650098209274312,5.0
0.42750166880550317,-0.6009527420574432,-0.0966376471146038,0.08945506731241709,0.03194258694680977,0.0029183117455157544,5.0
0.41292062039046395,-0.6124776373030365,-0.052445345334627816,0.08287681289466267,-0.005660432876673132,0.029049366604869335,5.0
0.41292062039046395,-0.6124776373030365,-0.052445345334627816,0.08526890491289513,-0.025837662872389516,0.030915870218502037,5.0
0.43114693090926315,-0.6124776373030365,-0.13346443633684835,0.10320959596138204,-0.04142915925485611,0.05331391500492639,5.0
0.4347921930130231,-0.6278441755048666,-0.12609905270685234,0.10141552922706629,0.009931062806654371,0.042114892522787224,5.0
0.4347921930130231,-0.6278441755048666,-0.12609905270685234,0.08706297529418464,-0.00015755184163428464,0.03184912131390244,5.0
0.4238564067017435,-0.6201609232155104,-0.11873366907685606,0.08108274433686004,0.026439705212631837,0.012250831236511182,5.0
0.43114693090926315,-0.6124776373030365,-0.08927226348460751,0.07271042090543126,-0.005660432876673132,0.009451076527478099,5.0
0.43114693090926315,-0.6124776373030365,-0.08927226348460751,0.060749959902525505,0.002593887627176522,0.03651538105940015,5.0
0.43843745511678245,-0.6124776373030365,-0.11136828544686095,0.07271042090543126,0.045699787087420125,0.04678115200150395,5.0
0.4238564067017435,-0.5971110991012062,-0.12609905270685234,0.07330844390998938,0.022771118322031998,0.02344985434113932,5.0
0.4238564067017435,-0.5971110991012062,-0.12609905270685234,0.06613216734243631,0.013599649697254216,0.05238066319811004,5.0
0.43114693090926315,-0.6201609232155104,-0.08927226348460751,0.05476972940107263,0.009013915384865331,0.008517824009245775,5.0
0.4238564067017435,-0.6163192802592734,-0.11136828544686095,0.07330844390998938,-0.014831901151881367,0.048647655970844625,5.0
0.4238564067017435,-0.6201609232155104,-0.11136828544686095,0.06792623652706255,-0.020334781837350675,0.04398139631427391,5.0
0.42021114459798414,-0.6201609232155104,-0.11136828544686095,0.06194600591164174,-0.010246167101669633,0.029049366604869335,5.0
0.41292062039046395,-0.6316858184611037,-0.14819520359684005,0.0768965828490815,-0.024003369427089593,0.0141173362729758,5.0
0.43114693090926315,-0.6316858184611037,-0.1923873764490806,0.06613216734243631,0.01176535625195429,0.0355821292525838,5.0
0.43114693090926315,-0.6240025661717473,-0.11136828544686095,0.08526890491289513,0.015433944540832295,0.019716847113873913,5.0
0.4347921930130231,-0.6240025661717473,-0.11136828544686095,0.07629855938865167,0.014516797119043256,0.045847900194687596,5.0
0.43114693090926315,-0.6086360279699173,-0.07454149622461581,0.07629855938865167,-0.02858910373947848,0.06357968559132221,5.0
0.42021114459798414,-0.6278441755048666,-0.11873366907685606,0.09722936682754432,-0.016666194946750826,0.05144741139129369,5.0
0.42021114459798414,-0.6240025661717473,-0.06717611259461952,0.1073957601843909,-0.001074699263423324,0.05331391500492639,5.0
0.42750166880550317,-0.6201609232155104,-0.06717611259461952,0.09124913587021972,-0.02767195631768944,0.045847900194687596,5.0
0.43843745511678245,-0.6201609232155104,-0.08190687985461181,0.1044056428822417,-0.02308622200530056,0.1018430132278724,5.0
0.43843745511678245,-0.6201609232155104,-0.07454149622461581,0.10619971326353121,-0.03776057236425625,0.039315136835557186,5.0
0.43843745511678245,-0.6086360279699173,-0.08190687985461181,0.0936412278884522,-0.017583341669400784,0.06917919785505222,5.0
0.4347921930130231,-0.6201609232155104,-0.07454149622461581,0.07749460539776791,0.0035110350489655617,0.05051415958447733,5.0
0.4347921930130231,-0.6047943850136801,-0.07454149622461581,0.06732821346552047,-0.024920515450600478,0.06917919785505222,5.0
0.44572797932430236,-0.6124776373030365,-0.04507996170463211,0.06314205192075797,-0.012080460721754326,0.04678115200150395,5.0
0.44572797932430236,-0.6163192802592734,-0.10400290181686465,0.06613216734243631,0.020019678853221187,0.03651538105940015,5.0
0.4420827172205421,-0.6047943850136801,-0.11136828544686095,0.061347982907083626,0.009931062806654371,0.021583350727506615,5.0
0.4420827172205421,-0.6124776373030365,-0.07454149622461581,0.0703183288871988,-0.0038261394313732103,0.020650098209274312,5.0
0.43114693090926315,-0.6124776373030365,-0.12609905270685234,0.06015193689796739,0.024605410369053757,0.025316357954772023,5.0
0.4238564067017435,-0.6124776373030365,-0.08190687985461181,0.07749460539776791,-0.00015755184163428464,0.02998261770026974,5.0
0.42021114459798414,-0.6124776373030365,-0.11136828544686095,0.08227878943423284,-0.013914754429231402,0.07664521230958304,5.0
0.43114693090926315,-0.6086360279699173,-0.14082981996684435,0.0834748363550925,-0.04051201183306706,0.07104570004585303,5.0
0.43114693090926315,-0.6201609232155104,-0.11136828544686095,0.07988669741600037,-0.015749047874531324,0.06824594533681992,5.0
0.43843745511678245,-0.6240025661717473,-0.10400290181686465,0.08706297529418464,-0.0487663330360558,0.08504447928234617,5.0
0.4238564067017435,-0.6240025661717473,-0.07454149622461581,0.09423925134888202,-0.012997607531796672,0.05518041861855909,5.0
0.43114693090926315,-0.6201609232155104,-0.12609905270685234,0.09184715933064956,-0.019417635114700713,0.05331391500492639,5.0
0.42021114459798414,-0.6086360279699173,-0.0966376471146038,0.09065111240978987,0.004428182470754604,0.05518041861855909,5.0
0.4347921930130231,-0.6201609232155104,-0.052445345334627816,0.09184715933064956,0.002593887627176522,0.06824594533681992,5.0
0.43114693090926315,-0.6201609232155104,-0.12609905270685234,0.0936412278884522,-0.00015755184163428464,0.05144741139129369,5.0
0.43843745511678245,-0.6240025661717473,-0.08927226348460751,0.09065111240978987,-0.009329020291627287,0.034648877445767445,5.0
0.4347921930130231,-0.6047943850136801,-0.08190687985461181,0.09423925134888202,0.01176535625195429,0.045847900194687596,5.0
0.43843745511678245,-0.6201609232155104,-0.10400290181686465,0.09244518279107941,0.0071796219395654105,0.048647655970844625,5.0
0.43114693090926315,-0.6047943850136801,-0.08190687985461181,0.07629855938865167,0.015433944540832295,0.048647655970844625,5.0
0.43843745511678245,-0.6124776373030365,-0.07454149622461581,0.07151437489631503,0.002593887627176522,0.03278237383213475,5.0
0.43114693090926315,-0.6163192802592734,-0.1629258419290969,0.059553913437537555,-0.008411873394192556,0.028116114086637032,5.0
0.44572797932430236,-0.6009527420574432,-0.14082981996684435,0.07869065140688414,-0.014831901151881367,0.05518041861855909,5.0
0.42750166880550317,-0.6124776373030365,-0.08190687985461181,0.06852425964558859,-0.004743286154023171,0.04024838864237353,5.0
0.4347921930130231,-0.6355274614173406,-0.0966376471146038,0.0703183288871988,0.005345328494265482,0.010384329045710385,5.0
0.42021114459798414,-0.6240025661717473,-0.0966376471146038,0.07271042090543126,-0.010246167101669633,0.03371562563895109,5.0
0.42021114459798414,-0.6316858184611037,-0.11873366907685606,0.08526890491289513,-0.019417635114700713,0.017850343500241207,5.0
0.4238564067017435,-0.6201609232155104,-0.12609905270685234,0.07988669741600037,-0.021251928560000632,0.03184912131390244,5.0
0.4347921930130231,-0.6201609232155104,-0.11873366907685606,0.09842541192491712,-0.02858910373947848,0.029049366604869335,5.0
0.4347921930130231,-0.6201609232155104,-0.07454149622461581,0.07271042090543126,-0.03134054320828929,0.0159838384637766,5.0
0.4347921930130231,-0.6201609232155104,-0.08927226348460751,0.0745044899191056,-0.006577579948892632,0.041181640627043874,5.0
0.44572797932430236,-0.6201609232155104,-0.06717611259461952,0.08108274433686004,0.014516797119043256,0.020650098209274312,5.0
0.43114693090926315,-0.6432107137066968,-0.07454149622461581,0.08945506731241709,0.036528318462642345,-0.002681197672550446,5.0
0.43114693090926315,-0.6316858184611037,-0.08927226348460751,0.09304320442802234,-0.006577579948892632,0.021583350727506615,5.0
0.42750166880550317,-0.6201609232155104,-0.11136828544686095,0.10500366634267153,0.01176535625195429,0.019716847113873913,5.0
0.4347921930130231,-0.6316858184611037,-0.11136828544686095,0.09124913587021972,0.036528318462642345,0.034648877445767445,5.0
0.4165658824942236,-0.6163192802592734,-0.11136828544686095,0.09304320442802234,0.012682502275465177,0.0355821292525838,5.0
0.4238564067017435,-0.6355274614173406,-0.11873366907685606,0.11158192076042599,0.0071796219395654105,0.030915870218502037,5.0
0.4238564067017435,-0.6201609232155104,-0.0966376471146038,0.11935621845206633,-0.012080460721754326,0.037448632866216504,5.0
0.43114693090926315,-0.6240025661717473,-0.052445345334627816,0.09663134336711447,-0.0019918459860732846,0.041181640627043874,5.0
0.43114693090926315,-0.593269489768087,-0.0966376471146038,0.07928867486731397,-0.005660432876673132,0.0355821292525838,5.0
0.4238564067017435,-0.593269489768087,-0.11873366907685606,0.061347982907083626,-0.0019918459860732846,0.0579801747504241,5.0
0.4420827172205421,-0.6124776373030365,-0.11136828544686095,0.053573683391956395,-0.022169075981789674,0.04958090777766098,5.0
0.43843745511678245,-0.6124776373030365,-0.08190687985461181,0.060749959902525505,-0.010246167101669633,0.05331391500492639,5.0
0.43114693090926315,-0.6316858184611037,-0.0966376471146038,0.08287681289466267,0.009013915384865331,0.027182861568404725,5.0
0.43114693090926315,-0.6163192802592734,-0.12609905270685234,0.06912228265014671,0.0007595941818765989,0.037448632866216504,5.0
0.42021114459798414,-0.6124776373030365,-0.12609905270685234,0.08586692837332496,0.0007595941818765989,-0.006414204899815849,5.0
0.42021114459798414,-0.6047943850136801,-0.08927226348460751,0.06613216734243631,0.0071796219395654105,0.0010518095547149625,5.0
0.43114693090926315,-0.6047943850136801,-0.10400290181686465,0.060749959902525505,0.02368826574382103,0.026249610473004333,5.0
0.43114693090926315,-0.6278441755048666,-0.07454149622461581,0.06433809815781007,0.0071796219395654105,0.04491464821001726,5.0
0.4420827172205421,-0.6124776373030365,-0.05981072896462381,0.08108274433686004,-0.029506249762989368,0.025316357954772023,5.0
0.4420827172205421,-0.6278441755048666,-0.08190687985461181,0.08287681289466267,0.0071796219395654105,0.05144741139129369,5.0
0.43114693090926315,-0.6124776373030365,-0.08927226348460751,0.1044056428822417,0.002593887627176522,0.02344985434113932,5.0
0.4238564067017435,-0.6124776373030365,-0.10400290181686465,0.09902343538534694,0.01176535625195429,0.038381885028740834,5.0
0.43114693090926315,-0.5971110991012062,-0.11873366907685606,0.11158192076042599,-0.005660432876673132,0.06357968559132221,5.0
0.43114693090926315,-0.5971110991012062,-0.11873366907685606,0.10081750576663646,-0.017583341669400784,0.07011245037328452,5.0
0.42021114459798414,-0.6124776373030365,-0.052445345334627816,0.09603331990668465,-0.029506249762989368,0.06917919785505222,5.0
0.43114693090926315,-0.6086360279699173,-0.06717611259461952,0.09124913587021972,-0.017583341669400784,0.038381885028740834,5.0
0.43114693090926315,-0.6086360279699173,-0.06717611259461952,0.08526890491289513,-0.04051201183306706,0.0598466783640568,5.0
0.43114693090926315,-0.5971110991012062,-0.11136828544686095,0.09005308894936005,-0.05793780166083357,0.07571195979135074,5.0
0.44937324142806173,-0.5433282322063595,-0.12609905270685234,0.07211239790087315,-0.08820364700397768,0.10370951826433703,5.0
0.44937324142806173,-0.5433282322063595,-0.12609905270685234,0.03742706090127212,0.036528318462642345,0.08784423683704307,5.0
0.4748898209196723,-0.593269489768087,-0.10400290181686465,0.026662644083995716,0.13558017289850713,0.0477144038083203,5.0
0.3764679993528668,-0.7046769001371356,-0.07454149622461581,0.1002194823062066,0.04936837677457626,0.021583350727506615,5.0
0.3764679993528668,-0.7046769001371356,-0.07454149622461581,0.1002194823062066,0.026439705212631837,-0.05587655421816227,5.0
0.41292062039046395,-0.6585772519085271,-0.07454149622461581,0.10679773672396106,0.097977150977607,-0.10440565101827641,5.0
0.5149877040610286,-0.5779029515662567,-0.2144835273390686,0.015300205629776367,0.1704317525540401,-0.17253303931861363,5.0
0.5332140145798285,-0.6393691043735776,-0.14082981996684435,0.07570053592822185,0.1768517845065634,-0.26865799178326494,5.0
0.48947086933471123,-0.6854687189790682,-0.1776566091890892,0.1038076194218119,0.2117033641620964,-0.2667914867468002,5.0
0.39104904776790544,-0.6969936142246616,-0.12609905270685234,0.1396890015187857,0.14108305742924135,-0.21359612735552455,5.0
0.3108535367198994,-0.6163192802592734,-0.05981072896462381,0.10560168980310139,0.031025439525020713,-0.12587044755496415,5.0
0.2962724883048599,-0.5356449462938853,-0.022983939742378674,0.00872195485899568,0.03194258694680977,-0.005480952381583557,5.0
0.3436608956537369,-0.5010702269339881,-0.015618556112382968,-0.05646255491719754,-0.09187223109802121,0.1018430132278724,5.0
0.43114693090926315,-0.45881225528473435,-0.07454149622461581,-0.058854648758916876,-0.16157539040908725,0.22129926157434834,5.0
0.49676139354223053,-0.5663780226975459,-0.11136828544686095,-0.08337360334259257,0.026439705212631837,0.2278320178193192,5.0
0.4785350830234317,-0.6662605378210009,-0.08927226348460751,0.01231009197460094,-0.0019918459860732846,0.17836966850097277,5.0
0.45666376563558136,-0.7162017953827289,-0.13346443633684835,0.11158192076042599,0.08880568794594182,0.08131147205508077,5.0
0.4056300961829444,-0.6662605378210009,-0.0966376471146038,0.14507121266265421,0.05762269797756501,0.016917090982008904,5.0
0.39104904776790544,-0.6355274614173406,-0.030349323372374965,0.1181601751781804,0.005345328494265482,-0.040011272790868316,5.0
0.4056300961829444,-0.6163192802592734,-0.052445345334627816,0.11098389729999612,0.019102531431432153,-0.040011272790868316,5.0
0.39104904776790544,-0.5394865892501226,0.04330438399984958,0.15463958073558404,-0.03409198407537825,0.006651321818444977,5.0
0.43843745511678245,-0.47802043644280157,0.006477594777605028,0.17557038726273325,0.009013915384865331,0.11210878523710013,5.0
0.43114693090926315,-0.5318033033376484,0.006477594777605028,0.1103858738395663,-0.046932038192477724,0.14290609557345568,5.0
0.43114693090926315,-0.5817445608993759,-0.08927226348460751,0.10201355268749611,-0.05702065423904451,0.13077382421909098,5.0
0.4347921930130231,-0.593269489768087,-0.11873366907685606,0.10679773672396106,-0.014831901151881367,0.07104570004585303,5.0
0.41292062039046395,-0.6240025661717473,-0.10400290181686465,0.09603331990668465,-0.025837662872389516,0.009451076527478099,5.0
0.4238564067017435,-0.6393691043735776,-0.07454149622461581,0.11576808133646105,0.01084821022844341,-0.025079243881806695,5.0
0.42021114459798414,-0.6355274614173406,-0.07454149622461581,0.14208109536050503,-0.020334781837350675,0.007584571491013482,5.0
0.41292062039046395,-0.6009527420574432,-0.06717611259461952,0.11158192076042599,-0.030423397184778402,0.015050588791208103,5.0
0.43114693090926315,-0.5471698415394787,-0.03771457807463582,0.07390646737041921,-0.025837662872389516,0.07477871011878225,5.0
0.45301850353182166,-0.5394865892501226,-0.015618556112382968,0.018290322931925534,-0.04051201183306706,0.11957479969163094,5.0
0.42021114459798414,-0.5817445608993759,-0.06717611259461952,0.009319974672451773,-0.03225769063007833,0.14103959053699108,5.0
0.4165658824942236,-0.6393691043735776,-0.08927226348460751,0.05237763647109673,-0.016666194946750826,0.12984057170085866,5.0
0.4165658824942236,-0.6777854330665943,-0.052445345334627816,0.10141552922706629,0.01084821022844341,0.06357968559132221,5.0
0.4238564067017435,-0.6739437901103574,-0.052445345334627816,0.13191470382714535,0.048451229352787235,0.029049366604869335,5.0
0.4347921930130231,-0.6201609232155104,-0.03771457807463582,0.13729691497101384,0.005345328494265482,0.016917090982008904,5.0
0.4165658824942236,-0.5817445608993759,-0.0008877888523912657,0.13251272728757515,0.022771118322031998,0.08037821953684846,5.0
0.43843745511678245,-0.5740613086100198,-0.052445345334627816,0.07211239790087315,0.05303696086861981,0.05331391500492639,5.0
0.43843745511678245,-0.6201609232155104,-0.07454149622461581,0.047593452434631804,0.05120267161815435,0.0159838384637766,5.0
0.43843745511678245,-0.6201609232155104,-0.12609905270685234,0.053573683391956395,0.1007285932429741,-0.041877777827332936,5.0
0.43843745511678245,-0.6201609232155104,-0.12609905270685234,0.03144682812046066,0.08972283536773089,-0.051210297318328345,5.0
0.41292062039046395,-0.6163192802592734,-0.03771457807463582,0.018290322931925534,0.0677113140241318,-0.05494330169992997,5.0
0.4056300961829444,-0.6047943850136801,-0.04507996170463211,0.009319974672451773,0.048451229352787235,-0.029745500781640614,5.0
0.42021114459798414,-0.6047943850136801,-0.052445345334627816,0.011114045053741273,0.04203120299337657,-0.004547702709015052,5.0
0.43114693090926315,-0.5971110991012062,-0.03771457807463582,0.014104162355890442,0.013599649697254216,0.02998261770026974,5.0
0.43114693090926315,-0.593269489768087,-0.052445345334627816,0.014702185816320263,0.01176535625195429,0.04491464821001726,5.0
0.42021114459798414,-0.593269489768087,-0.04507996170463211,0.039221129459074744,-0.05702065423904451,0.08224472457331305,5.0
0.4238564067017435,-0.6124776373030365,-0.00825317248238697,0.08825902039155742,-0.05060062787963389,0.11864154717339864,5.0
0.42021114459798414,-0.6278441755048666,0.04330438399984958,0.10320959596138204,-0.04234630667664515,0.12704081414616178,5.0
0.43114693090926315,-0.6201609232155104,-0.022983939742378674,0.12354238267507517,-0.07261215201978927,0.08971073902784388,5.0
0.43843745511678245,-0.6047943850136801,0.03593900036985358,0.11457203441560142,-0.0487663330360558,0.045847900194687596,5.0
0.43114693090926315,-0.6047943850136801,-0.07454149622461581,0.10081750576663646,-0.045097746145455954,0.05331391500492639,5.0
0.43843745511678245,-0.6009527420574432,-0.08927226348460751,0.10141552922706629,-0.020334781837350675,0.04678115200150395,5.0
0.43843745511678245,-0.593269489768087,-0.022983939742378674,0.08646495183375481,-0.009329020291627287,0.024383106859371617,5.0
0.43114693090926315,-0.6047943850136801,0.028573616739857872,0.10261157250095222,0.009013915384865331,0.0598466783640568,5.0
0.41292062039046395,-0.6009527420574432,-0.022983939742378674,0.1265324963302506,-0.002908992708723246,0.045847900194687596,5.0
0.42021114459798414,-0.5855862038556131,-0.03771457807463582,0.12473842594896108,-0.03776057236425625,0.04678115200150395,5.0
0.43114693090926315,-0.5855862038556131,-0.052445345334627816,0.08885704385198727,-0.04784918561426674,0.07291220508231763,5.0
0.4238564067017435,-0.6009527420574432,-0.03771457807463582,0.08646495183375481,-0.024003369427089593,0.06451293810955451,5.0
0.42021114459798414,-0.6163192802592734,-0.05981072896462381,0.09543529826974169,0.0016767416036656357,0.07757846482781537,5.0
0.4165658824942236,-0.6047943850136801,-0.08927226348460751,0.0745044899191056,-0.024920515450600478,0.056113671136791395,5.0
0.43843745511678245,-0.6163192802592734,-0.04507996170463211,0.09065111240978987,-0.018500488392050745,0.006651321818444977,5.0
0.4347921930130231,-0.6086360279699173,-0.03771457807463582,0.08526890491289513,-0.02858910373947848,-0.007347457418048141,5.0
0.43114693090926315,-0.6047943850136801,-0.00825317248238697,0.06553414428089423,0.028274000056209926,-0.012946966836114375,5.0
0.42750166880550317,-0.6278441755048666,-0.022983939742378674,0.061347982907083626,0.06129128207160852,-0.01481347187257899,5.0
0.42021114459798414,-0.6009527420574432,-0.052445345334627816,0.055965775410188864,0.058539845399354036,0.00011855703648267022,5.0
0.4238564067017435,-0.5971110991012062,-0.03771457807463582,0.07869065140688414,0.0328597343685988,-0.004547702709015052,5.0
0.4238564067017435,-0.5971110991012062,-0.03771457807463582,0.06732821346552047,0.004428182470754604,0.006651321818444977,5.0
0.4165658824942236,-0.6124776373030365,-0.052445345334627816,0.07629855938865167,-0.008411873394192556,0.025316357954772023,5.0
0.42021114459798414,-0.593269489768087,-0.03771457807463582,0.08108274433686004,-0.001074699263423324,0.0477144038083203,5.0
0.43114693090926315,-0.6124776373030365,-0.07454149622461581,0.0768965828490815,-0.004743286154023171,0.024383106859371617,5.0
0.42021114459798414,-0.6124776373030365,-0.06717611259461952,0.0834748363550925,0.006262475916054524,0.0141173362729758,5.0
0.42750166880550317,-0.6047943850136801,-0.03771457807463582,0.08586692837332496,-0.029506249762989368,0.034648877445767445,5.0
0.42021114459798414,-0.6124776373030365,-0.052445345334627816,0.07869065140688414,-0.03500913009888913,0.05331391500492639,5.0
0.42021114459798414,-0.6124776373030365,-0.08927226348460751,0.10141552922706629,-0.018500488392050745,0.060779930882289106,5.0
0.43114693090926315,-0.6086360279699173,-0.00825317248238697,0.11217994422085581,0.0016767416036656357,0.04398139631427391,5.0
0.43843745511678245,-0.5855862038556131,0.013842978407600732,0.1163661047968909,-0.0019918459860732846,0.034648877445767445,5.0
0.43843745511678245,-0.593269489768087,-0.04507996170463211,0.10918982691870663,0.006262475916054524,0.007584571491013482,5.0
0.4238564067017435,-0.6124776373030365,-0.015618556112382968,0.0768965828490815,0.0016767416036656357,0.008517824009245775,5.0
0.43114693090926315,-0.6086360279699173,-0.052445345334627816,0.08526890491289513,0.024605410369053757,-0.013880219354346666,5.0
0.42750166880550317,-0.6047943850136801,-0.052445345334627816,0.08467088145246529,0.009931062806654371,-0.03441176337280212,5.0
0.4238564067017435,-0.5855862038556131,-0.05981072896462381,0.06972030565470483,-0.009329020291627287,-0.02694574891827131,5.0
0.43114693090926315,-0.593269489768087,-0.03771457807463582,0.07928867486731397,0.0016767416036656357,-0.029745500781640614,5.0
0.43114693090926315,-0.593269489768087,-0.03771457807463582,0.059553913437537555,0.0328597343685988,-0.0008146954817496486,5.0
0.43843745511678245,-0.6047943850136801,-0.030349323372374965,0.055965775410188864,0.04478263966563107,-0.004547702709015052,5.0
0.43843745511678245,-0.6201609232155104,-0.04507996170463211,0.0745044899191056,0.08421995083699664,0.0029183117455157544,5.0
0.43843745511678245,-0.6201609232155104,-0.04507996170463211,0.08945506731241709,0.05578840313398692,-0.010147214972745072,5.0
0.42021114459798414,-0.650893999619171,-0.14082981996684435,0.11098389729999612,0.06495987175876469,-0.041877777827332936,5.0
0.4092753582867043,-0.6124776373030365,-0.052445345334627816,0.1163661047968909,0.08972283536773089,-0.106272156054741,5.0
0.4092753582867043,-0.6124776373030365,-0.052445345334627816,0.08825902039155742,0.041114055571587545,-0.06427582688225301,5.0
0.398339571975425,-0.5318033033376484,-0.022983939742378674,0.05536775194975903,0.022771118322031998,-0.02694574891827131,5.0
0.42021114459798414,-0.5394865892501226,-0.015618556112382968,0.014104162355890442,-0.0038261394313732103,0.021583350727506615,5.0
0.42021114459798414,-0.5394865892501226,-0.015618556112382968,0.0021437004412412533,-0.016666194946750826,0.07571195979135074,5.0
0.4165658824942236,-0.5663780226975459,-0.022983939742378674,0.035034968883039655,0.0035110350489655617,0.034648877445767445,5.0
0.43114693090926315,-0.6124776373030365,-0.0008877888523912657,0.06493612116236817,0.022771118322031998,0.016917090982008904,5.0
0.43843745511678245,-0.6201609232155104,-0.03771457807463582,0.09304320442802234,0.008096769361354447,-0.006414204899815849,5.0
0.43114693090926315,-0.6316858184611037,-0.07454149622461581,0.13849295459792604,0.04478263966563107,-0.06147606932755607,5.0
0.42021114459798414,-0.6355274614173406,-0.04507996170463211,0.17198224650015426,0.0878885405241528,-0.0670755844369499,5.0
0.42021114459798414,-0.593269489768087,0.006477594777605028,0.17676643418359292,0.027356852634420874,-0.06800882557252699,5.0
0.43114693090926315,-0.5779029515662567,-0.015618556112382968,0.10978785037913648,0.0016767416036656357,-0.04374428286379754,5.0
0.4165658824942236,-0.5510114844957156,-0.0008877888523912657,0.07928867486731397,-0.004743286154023171,-0.04841053976363145,5.0
0.4092753582867043,-0.5125951558026989,-0.03771457807463582,0.041613221477307206,-0.004743286154023171,0.021583350727506615,5.0
0.398339571975425,-0.5049118698902251,-0.04507996170463211,0.026662644083995716,-0.016666194946750826,0.06917919785505222,5.0
0.41292062039046395,-0.5318033033376484,-0.030349323372374965,0.01709427601106587,-0.030423397184778402,0.06171318197768952,5.0
0.42021114459798414,-0.5779029515662567,0.03593900036985358,0.039221129459074744,-0.008411873394192556,0.05424716752315869,5.0
0.4347921930130231,-0.5779029515662567,-0.030349323372374965,0.0505835679132941,-0.03867771698948898,0.06637944172318722,5.0
0.44572797932430236,-0.5779029515662567,-0.015618556112382968,0.06732821346552047,-0.0019918459860732846,0.045847900194687596,5.0
0.43843745511678245,-0.5779029515662567,-0.0008877888523912657,0.08287681289466267,-0.045097746145455954,0.057046922232191793,5.0
0.4347921930130231,-0.5817445608993759,-0.08190687985461181,0.1223463357542155,-0.060689241129644356,0.027182861568404725,5.0
0.45666376563558136,-0.5817445608993759,-0.03771457807463582,0.13849295459792604,-0.04142915925485611,0.05051415958447733,5.0
0.43843745511678245,-0.6047943850136801,-0.030349323372374965,0.19650120108382996,-0.07536358869204376,0.030915870218502037,5.0
0.4238564067017435,-0.6316858184611037,-0.03771457807463582,0.219824094158751,-0.012080460721754326,0.027182861568404725,5.0
0.401984834079185,-0.6009527420574432,0.028573616739857872,0.17856050456488246,0.03377687899383153,0.037448632866216504,5.0
0.3691774751453469,-0.5779029515662567,0.013842978407600732,0.11995424191249615,-0.10287799456637708,0.07571195979135074,5.0
0.38740378566414607,-0.5510114844957156,-0.06717611259461952,0.10141552922706629,-0.13406099012786654,0.11490854279179703,5.0
0.43843745511678245,-0.5433282322063595,-0.11136828544686095,0.08825902039155742,-0.02858910373947848,0.11584178961870176,5.0
0.42021114459798414,-0.5702196656537829,-0.10400290181686465,0.10859180345827682,0.03561117383740961,0.10930902768240322,5.0
0.42750166880550317,-0.593269489768087,-0.12609905270685234,0.1103858738395663,0.0429483504151656,0.021583350727506615,5.0
0.43843745511678245,-0.6163192802592734,-0.00825317248238697,0.06374007515325195,0.06312557691518661,-0.05494330169992997,5.0
0.43843745511678245,-0.6047943850136801,-0.022983939742378674,0.01231009197460094,0.05762269797756501,-0.12680370007319644,5.0
0.46395428984310066,-0.562536379741309,-0.052445345334627816,-0.022973270308916778,0.03836261330622041,-0.17253303931861363,5.0
0.43843745511678245,-0.5202784080920553,-0.0008877888523912657,-0.0038365341630570847,0.017268236587854063,-0.09787289477330548,5.0
0.4092753582867043,-0.5125951558026989,-0.022983939742378674,0.01709427601106587,-0.017583341669400784,0.04678115200150395,5.0
0.3764679993528668,-0.5433282322063595,0.013842978407600732,0.07749460539776791,-0.05151777250486658,0.15877137700074964,5.0
0.38740378566414607,-0.6163192802592734,-0.030349323372374965,0.09962145884577678,-0.13772956862879746,0.16903715470130495,5.0
0.43843745511678245,-0.6355274614173406,-0.05981072896462381,0.11397401095517155,-0.10471228940995514,0.11957479969163094,5.0
0.4675992967121524,-0.6393691043735776,-0.07454149622461581,0.136698891510584,-0.06252353597322244,0.041181640627043874,5.0
0.4712445588159123,-0.6316858184611037,-0.06717611259461952,0.14566923612308402,0.1007285932429741,-0.04094452530910064,5.0
0.4712445588159123,-0.6316858184611037,-0.06717611259461952,0.12892458652499617,0.09614286732025414,-0.02134623380887747,5.0
0.401984834079185,-0.5394865892501226,-0.03771457807463582,0.10918982691870663,0.06312557691518661,0.017850343500241207,5.0
0.398339571975425,-0.5241200510482922,-0.03771457807463582,0.08586692837332496,0.014516797119043256,0.08971073902784388,5.0
0.398339571975425,-0.5241200510482922,-0.03771457807463582,0.09065111240978987,-0.052434919926655645,0.1074425226459386,5.0
0.44572797932430236,-0.593269489768087,-0.08190687985461181,0.07390646737041921,-0.035926277520678174,0.07664521230958304,5.0
0.44572797932430236,-0.593269489768087,-0.030349323372374965,0.09423925134888202,0.0035110350489655617,-0.01481347187257899,5.0
0.43843745511678245,-0.5510114844957156,-0.052445345334627816,0.07928867486731397,0.0603741346498195,-0.03161200581810522,5.0
0.43843745511678245,-0.5510114844957156,-0.052445345334627816,0.06553414428089423,0.04478263966563107,0.00571806930021269,5.0
0.41292062039046395,-0.5318033033376484,0.013842978407600732,0.041613221477307206,0.009931062806654371,0.04491464821001726,5.0
0.401984834079185,-0.5394865892501226,-0.022983939742378674,0.04520136041639935,0.005345328494265482,0.056113671136791395,5.0
0.401984834079185,-0.5394865892501226,-0.022983939742378674,0.04221124493773704,-0.05151777250486658,0.10930902768240322,5.0
0.39469430987166537,-0.5855862038556131,-0.030349323372374965,0.06732821346552047,-0.03317483805186736,0.07944496701861616,5.0
0.4165658824942236,-0.6201609232155104,-0.05981072896462381,0.08407285981552233,-0.021251928560000632,0.056113671136791395,5.0
