acc_x,acc_y,acc_z,gyro_x,gyro_y,gyro_z,activity
-1.2680666040678825,0.022901562691122652,2.9355710859066195,0.13077647609662052,-0.1450308164336991,-0.21730190842888183,0.0
-1.2821284589381032,0.04237477271518786,2.8853200125586462,0.08731115753417971,-0.08227432771567664,-0.2839107329164302,0.0
-1.2645511403503273,0.022901562691122652,2.9076539966894646,0.07851460617009455,-0.016107159042131447,-0.16318226868085137,0.0
-1.2610356766327722,0.022901562691122652,2.9020705006567593,0.03556673848793127,-0.016789295241232245,-0.07575821034207778,0.0
-1.2610356766327722,0.022901562691122652,2.9020705006567593,-0.0715442178996307,0.03778156428748702,0.028318049358356214,0.0
-1.243458419581611,0.015112282090200787,2.9467380779720282,-0.12535841522240418,0.060292046378038075,0.08451922677218934,0.0
-1.243458419581611,-0.004360927933864575,2.974655558135552,-0.13518985572475187,0.16943376335551405,0.12302744271854313,0.0
-1.2469738832991661,-0.027728769736630906,2.99698954226637,-0.16261439895526986,0.0432386497203683,0.18547320139493956,0.0
-1.2469738832991661,-0.027728769736630906,2.99698954226637,-0.14139919055432698,0.06643126385009505,0.21565531110686528,0.0
-1.2821284589381032,-0.01215020853478671,2.9802390541682557,-0.11449208558179398,0.00026409881648433125,0.21461454782756179,0.0
-1.2821284589381032,-0.016044840313487758,2.918820597808506,-0.06274766653554556,0.11963785410055654,0.2042069277284647,0.0
-1.2856439226556584,-0.02383413795792982,2.9244040938412104,0.014868968344973381,0.10804154703569319,0.1625764219442004,0.0
-1.2926747885541543,-0.031623418558851916,2.8797365165259414,0.046950512697672704,0.04596719451677151,0.11678286938969108,0.0
-1.3032211797068194,-0.019939489135708807,2.896487004624055,0.09869493805506742,0.03846370048658781,0.052255590501656624,0.0
-1.31025210714193,-0.008255559712565738,2.890903508591351,0.09196815865636104,0.056199229183433286,0.024154999414626684,0.0
-1.31025210714193,-0.01215020853478671,2.9076539966894646,0.0909332695180985,0.05006000755145119,-0.001864065113796246,0.0
-1.2997057159892644,-0.01215020853478671,2.918820597808506,0.060921503441924235,0.01663535667510011,-0.00914940330869405,0.0
-1.3137675708594851,0.003428352667057522,2.8685695244605327,-0.0032415797412214792,0.003674777212035137,-0.048698384121093556,0.0
-1.3172829730404254,-0.004360927933864575,2.8797365165259414,0.033496960211406225,0.07393476204020386,-0.06743211045461868,0.0
-1.2997057159892644,-0.008255559712565738,2.8518190363624174,0.06350872628758053,0.05210641614875359,-0.09345117339629937,0.0
-1.3243139004755362,0.015112282090200787,2.8685695244605327,0.014351523775842118,0.04528505831767069,-0.09241041011699587,0.0
-1.2997057159892644,0.007323001489278534,2.8518190363624174,-0.009450910231883549,0.050742143750551985,-0.02892389133478043,0.0
-1.2926747885541543,-0.004360927933864575,2.8797365165259414,0.007107304541364172,0.06711340004919586,0.01582889913048206,0.0
-1.2926747885541543,-0.0004662791116436013,2.8797365165259414,0.02728762853740423,0.06506699145189346,0.0647447403328452,0.0
-1.2997057159892644,-0.004360927933864575,2.8294850522315995,-0.0032415797412214792,0.04733146691497309,0.07411160667309226,0.0
-1.31025210714193,-0.019939489135708807,2.8294850522315995,-0.05291622603319786,0.11690930930415336,0.09076380644801041,0.0
-1.3243139004755362,-0.016044840313487758,2.795984076035372,-0.05498600115414978,0.1974013225590962,0.04913330066374612,0.0
-1.3243139004755362,-0.01215020853478671,2.8183180601661904,-0.06740466134658062,0.060292046378038075,0.039766437496983546,0.0
-1.2997057159892644,-0.02383413795792982,2.8239015561988943,-0.07827099098719084,-0.007921530112823557,0.05329635060747564,0.0
-1.2856439226556584,-0.01215020853478671,2.8350685482643043,-0.001171802253589725,0.1503339664203921,0.20941074412498223,0.0
-1.2715820677854381,-0.039412699159774016,2.890903508591351,0.1250845921473229,0.6537501319230731,0.30099784923400086,0.0
-1.2188502350953394,-0.02383413795792982,2.9467380779720282,-0.10103853940667373,0.8276947711754244,0.1480057487278893,0.0
-1.1836956594564023,0.07742650985405768,3.1030755759413897,-0.2666207005503367,0.5118659023483093,-0.16318226868085137,0.0
-1.166118402405241,0.10468901752256483,3.130993056104913,-0.2236728202458811,-0.04612112996295981,-0.25789166362778054,0.0
-1.0465928206182091,0.19816038473362999,3.2705804569225307,0.2518584169172877,-0.5304375110102942,-0.25893241421314606,0.0
-0.7759027297326069,0.5136262916797752,3.225912488660889,0.600098378430214,-1.5249914736303436,0.7485257546799969,0.0
-0.5333362255142169,0.5759405364871518,3.052824502593416,0.9209137840903301,-1.3019330946015364,2.054682718160549,0.0
-0.600129913074536,0.5486780629056848,2.9355710859066195,0.7868957353525277,-1.0672783086696631,3.4680383628790525,0.0
-0.7091090421722879,0.5292048187945796,2.9132371017758003,0.4976444420982722,-0.6709574515471558,4.245488240558198,0.0
-1.043077356900654,0.2994210495891374,2.790400580002667,0.30256794682527366,-0.726892603233721,4.7460949082274775,0.0
-1.6442204218702958,-0.17961974997637195,2.7401491157083258,0.5038537516832624,-0.85649836458497,4.711749783480152,0.0
-1.8446014537829458,-0.3081428926742267,2.7736500919045532,0.9276405571778902,-0.5577229256949252,3.803164011875401,0.0
-2.171538875690547,-0.553505252907673,2.8294850522315995,0.8205296007903282,-0.5433980738336586,2.2950989975978446,0.0
-2.3789508004239615,-0.7170801455270371,2.9132371017758003,0.5261038744670528,-0.7480388004462951,0.43421544743334595,0.0
-2.400043521192678,-0.7949729515362584,2.974655558135552,0.06764827652948435,-0.3728641405363617,-1.6545950197137993,0.0
-2.1363843135127447,-0.6080302171141279,2.929987589873914,-0.5620813286341673,-0.0058751228804965845,-3.996310747934751,0.0
-2.1363843135127447,-0.6080302171141279,2.929987589873914,-0.7121401905707698,-0.614340205260741,-4.772719925804284,0.0
-1.0044073790807764,0.10079436870034386,2.5838116177389647,-0.3825282083019839,-1.0290787480788202,-4.304376577057083,0.0
-1.0044073790807764,0.10079436870034386,2.5838116177389647,-0.06843955048484314,-0.23439060027695238,-1.972027553328671,0.0
0.004528615612661267,0.6148869565352827,2.527977048358287,0.1644103541567136,0.8345161165267322,0.4914574151011006,0.0
0.004528615612661267,0.6148869565352827,2.527977048358287,0.11266592248817268,1.4532132580781971,2.9081081502076565,0.0
0.03265232535310263,0.7161475532167102,2.684314546327648,-0.09948620569927996,1.6346613372817058,5.058323536588268,0.0
-0.3013161124484926,0.56815123884271,2.840652044297009,0.08886349124157347,1.1489806963159452,5.882607749142131,0.0
-0.8778509313952484,0.17089791115216266,3.0249070224298937,0.46608032969241164,0.4586593287375483,5.209234351720591,0.0
-1.507117644568717,-0.1874090305772941,3.1365765521376168,0.7501571898776469,-0.16958770296162745,3.1235460093901644,0.0
-1.999281518903993,-0.40161426414617196,3.2873305540742748,0.5612900799233933,-0.707110661779648,-0.443147425792301,0.0
-2.2031779837658907,-0.5340320428836077,3.2705804569225307,0.10076470370929999,-0.8373985842895482,-2.947222174808847,0.0
-2.139899769538223,-0.5418213234845298,3.2091620005627766,-0.32043488525081776,-0.719389096723762,-4.385556036679131,0.0
-1.8621787262182607,-0.39771962384571086,2.99698954226637,-0.8021754572435617,-1.0754639763382736,-4.624931616306812,0.0
-1.3946230517534102,-0.19519831117821618,2.634063082033306,-0.4979182777956459,-0.879008884114847,-3.1959644589290677,0.0
-0.9692528649784535,-0.06278054096254035,2.349305370784923,0.14836957882479082,-0.19005177229495102,-1.467257781766424,0.0
-0.7969955120379378,0.09300507105590199,2.226468653538606,0.47953387586753177,0.3120001374492288,-0.5878133819821703,0.0
-0.8110572438349294,0.24489606833916266,2.3437218747522186,0.3496553836827796,0.8031379012871964,-0.4650033911879844,0.0
-0.8497273447280362,0.2994210495891374,2.617312593935192,0.02883996224479801,1.1919551853409434,-0.21313888069954368,0.0
-0.9130055685708002,0.2293175071373186,2.801567572068077,-0.2712776953613719,1.302461299514374,0.18963625451215357,0.0
-1.06768560292354,0.15531934995031832,2.9244040938412104,-0.4316853981914297,1.2581223550544698,0.1480057487278893,0.0
-1.2399429558640558,0.08911045632072079,2.9802390541682557,-0.4399644860529449,0.983221724732204,-0.43690282072860387,0.0
-1.3348602916282017,0.07353189511887648,2.99698954226637,-0.3494117558775834,0.6128219932564258,-0.6762781972532785,0.0
-1.3137675708594851,0.015112282090200787,3.0137400303644837,-0.20194016096466058,0.36247816626358653,-0.6617075367309054,0.0
-1.31025210714193,-0.016044840313487758,2.9467380779720282,-0.1605446206787448,0.22877957107803248,-0.5368160447659884,0.0
-1.3172829730404254,-0.016044840313487758,2.8797365165259414,-0.10931764620162764,0.20831550174470895,-0.774109920119932,0.0
-1.3032211797068194,0.022901562691122652,2.840652044297009,-0.014107908247797589,0.2130904468185644,-1.1217246269164196,0.0
-1.2821284589381032,0.0657425974744343,2.8350685482643043,0.0971425980365274,0.06165631461631457,-1.1727219641326014,0.0
-1.1415102179189693,0.09689971987812288,2.929987589873914,0.0924856032254923,0.11622717310505258,-0.5649166152253694,0.0
-1.1379947542014144,0.12416222754662999,2.9132371017758003,0.014351523775842118,0.1544267836149969,-0.3505195320161027,0.0
-1.2083038439426739,0.13195149110403218,2.896487004624055,-0.03998011969384919,0.2826683058474452,-0.6294439131543106,0.0
-1.2610356766327722,0.15142470112809742,2.890903508591351,-0.016177685094453553,0.3338284625410535,-0.8854714513720896,0.0
-1.2540048107342763,0.16700326232994167,2.952321574004733,-0.07775354641805957,0.22059393668882293,-0.6336069662715247,0.0
-1.2469738832991661,0.10468901752256483,2.9802390541682557,-0.07982332469458463,0.052788552347854394,-0.39215003780036717,0.0
-1.3243139004755362,0.06963724629665555,2.9467380779720282,-0.0022066913918522427,-0.08704927278953203,-0.6367292180276211,0.0
-1.426262163674792,0.0501640362725903,2.9244040938412104,0.16648011981094618,-0.15389857870215926,-1.1206838255553022,0.0
-1.4297776273923473,0.10858366634478572,2.9076539966894646,0.18976511911070654,-0.3230682396012546,-1.518255118982606,0.0
-1.3770457331656343,0.11637292990218813,2.929987589873914,0.14423002227174075,-0.34898939852738453,-1.4620539780638442,0.0
-1.3278293641930912,0.0657425974744343,2.9244040938412104,0.10852637855741509,-0.363314250388651,-1.17584426666445,0.0
-1.3172829730404254,0.0657425974744343,2.918820597808506,0.05264239664697033,-0.014060751484810327,-0.9395911926716239,0.0
-1.3278293641930912,0.11637292990218813,2.9355710859066195,-0.13001541003343928,0.06233845081541536,-0.7709876175880839,0.0
-1.3172829730404254,0.22542285831509765,3.0416575105280073,-0.4109876406707645,0.09371669517442659,-0.4681256937198331,0.0
-1.0817474577937607,0.2604746295410069,2.9355710859066195,-0.20038783356841303,0.0916702865771242,0.9056808702215087,0.0
-1.1344792904838592,0.28384248838729315,2.9802390541682557,-0.35717343072569846,0.23764733334649282,0.5559846622542903,0.0
-1.3805611968831897,0.2604746295410069,2.9244040938412104,-0.25627180916771164,0.4231882463843067,-0.05286143089133861,0.0
-1.4086848450870162,0.1592139646854996,2.9355710859066195,-0.0606778882590205,-0.06044598182422638,-0.5305714397022917,0.0
-1.3664994035495837,0.17089791115216266,2.9690720621028475,0.050572618370445285,-0.17368052015623225,-0.6169547538026684,0.0
-1.3172829730404254,0.13195149110403218,2.9355710859066195,-0.009968354406568167,-0.3380752193417718,-0.5316122410634088,0.0
-1.341891219063312,0.019006913868901715,2.790400580002667,-0.03584056629637224,-0.12934169217423094,-0.28286995694318867,0.0
-1.4086848450870162,0.007323001489278534,2.795984076035372,0.03401440478053748,-0.23097991096159812,-0.45355503319745993,0.0
-1.3172829730404254,0.10468901752256483,2.8462355403297135,-0.035323121727240975,0.005721184769356258,-0.5139192780091871,0.0
-1.2926747885541543,0.17089791115216266,2.9132371017758003,-0.10362575594118378,0.16875163547626346,-0.6929304097221346,0.0
-1.2961902522717093,0.18258182353178604,2.99698954226637,-0.16830628290456745,-0.013378616325690804,-0.8532078277954949,0.0
-1.31025210714193,0.11637292990218813,2.9467380779720282,-0.13260263919024182,-0.12115606610487155,-0.8771454466891653,0.0
-1.2926747885541543,-0.004360927933864575,2.8183180601661904,-0.06843955048484314,0.025503121023522844,-0.8532078277954949,0.0
-1.2504893470167215,-0.08614838276530667,2.7792335879372585,-0.015660240919768934,0.013906813958659467,-0.954161802418245,0.0
-1.2610356766327722,-0.14067334697176143,2.751316107773735,0.050572618370445285,-0.07886364672017264,-0.8417595205807218,0.0
-1.3629839398320283,-0.09004301454400776,2.7792335879372585,0.0024503065747559674,0.005721184769356258,-0.7210310309572671,0.0
-1.4086848450870162,-0.035518050337553043,2.701065034425762,-0.09482920457709862,0.02072817178974235,-0.5035116198282763,0.0
-1.3770457331656343,0.08132115867627861,2.801567572068077,-0.4741158149933156,-2.0181755545472617,0.3426283550182651,0.0
-1.3664994035495837,-0.06278054096254035,2.65081357013142,-0.9154957737052836,-1.1641415990228754,-0.5076746729454904,0.0
-1.3207984367579813,0.022901562691122652,2.667564058229534,-0.8549547654280725,-1.275329807796156,-0.10281803656306195,0.0
-1.415715772522127,0.17868717470956474,3.1868280164319605,-0.3147430139238127,-0.5645443043256336,-0.14548930562662973,0.0
-1.1836956594564023,0.10858366634478572,3.0751584867242348,-0.35355131243063337,0.028913799939064278,-0.9499988000767828,0.0
-1.2083038439426739,-0.08225373394308566,2.8127345641334855,-0.6396979761369787,-0.22552283800849218,-0.5846911302260737,0.0
-1.419231236239682,-0.11341085634677409,2.527977048358287,-1.0179497100372255,-1.0256680754031664,0.13759811593485427,0.0
-1.1766647320212922,-0.15235726787314458,2.8518190363624174,-1.0231241431062457,-0.7998811182985551,-0.2849514835017957,0.0
-1.1204174356136385,-0.035518050337553043,3.1198260640395032,-0.5387963293344069,0.20831550174470895,-0.9156535737779533,0.0
-0.7653563385799413,-0.3354053747774541,2.9355710859066195,-0.6200350698876983,0.3959028316996757,-2.8951841377830516,0.0
-1.1309638267663038,-0.3354053747774541,3.1030755759413897,-0.7452565925060006,-0.26508670427693765,-4.264827547055675,0.0
-1.9500651345472961,0.030690826248525052,3.3487490104340245,0.3082598433968637,-0.6805073749742675,-2.089633740420277,0.0
-1.7215604698149733,0.2994210495891374,3.315248034237796,1.2432815802581558,-1.6341331323688681,0.6663054936968339,0.0
-1.7215604698149733,0.2994210495891374,3.315248034237796,1.509765337715221,-2.200987956068073,0.17298405473723544,0.0
-1.2610356766327722,0.37341920677613744,2.5949786098043743,0.054194730354364104,-1.4751955061364346,-0.2308318437537653,0.0
-1.2083038439426739,0.09300507105590199,2.3437218747522186,-0.5853663279339276,-2.012718531513257,0.054337113886779136,0.0
-1.1942420506090679,-0.1445679872722225,2.2655531257675383,-0.9268795668484637,-2.8101350410748225,-0.4296174650795412,0.0
-1.0571392117708744,-0.1990929557395572,2.0868816436673585,-1.81533122937648,-3.209866703990588,-1.617127592434625,0.0
-0.758325411144831,-0.3198268135756098,1.8021239324189755,-3.204151569364305,-4.70101548676201,-3.555027625267583,0.0
-0.6845009192226309,-0.23414472057414668,1.7797899482881572,-3.7790319618439954,-7.694227098372865,-4.960056859097147,0.0
-0.6634081369172999,-0.23025007814324563,2.0310468788134965,-4.057934540427721,-5.297201842548392,-6.82198093135613,0.0
-0.575521790124879,-0.553505252907673,2.4609750959658316,-4.3875464217181674,0.29699315770871154,-7.732648508786121,0.0
0.03616754292419944,-0.9001282311269467,2.611729097902488,-3.819910013382757,-2.741239492961898,-8.779655885395806,0.0
-0.16772886040108345,-0.8183408103825445,1.9305441456979977,-3.405954963947788,-6.409083131575576,-6.898997591739721,0.0
-0.5016971751294497,-0.9702317735787658,2.047797171438426,-2.4010781029642905,-5.0570901667001165,-4.41365655636276,0.0
-0.3013161124484926,-1.215594172160132,2.15388340058663,-2.4000432769374904,-6.040730216369761,-3.418687826087894,0.0
-0.04468787643311105,-1.0169674912713382,1.9193771536325883,-3.0245983480537824,-6.9425135893533,-2.8639611124645667,0.0
-0.25561520719350433,-0.7599211803103487,1.2326085099222093,-3.42717010923727,-8.390687749982122,-2.6401972485991343,0.0
-0.2837389169339457,-0.8144461615603235,1.193524233166461,-2.739486611352576,-6.280159797618187,-2.317560809730179,0.0
-0.002502311822448863,-0.8300247227621679,0.9143500179507827,-2.6116779226889344,-8.32042774643429,-2.440370902075869,0.0
0.18030130919750306,-0.7716051267770119,0.713344551719785,-3.654845568187514,-10.413902268861156,-3.43742123507297,0.0
0.2013940915028343,-0.3003536099428646,0.5011720934233774,-4.485343539951169,-7.2228715089447775,-2.257196564918452,0.0
0.004528615612661267,-0.10562157574585199,0.5290895735869008,-4.326488050916726,-5.132807459517162,0.07203008011448528,0.0
-0.002502311822448863,-0.1874090305772941,0.6519261930966259,-4.3078599706942455,-6.106215025248232,0.5799222303722087,0.0
0.5318469425136455,-0.27698576654226825,0.5625904520465365,-4.601250921479891,-10.508036648344556,-1.0020369386540822,0.0
0.8306608662129185,-0.3431946596392561,0.21641438217499467,-5.212869859434462,-14.54082379410563,-0.9708140148871011,0.0
0.7357433458389295,-0.27698576654226825,-0.029258856844456154,-4.0993300049798815,-7.306091842360168,-0.10385879984236543,0.0
-0.009533239257559273,-0.4327713950716203,-0.420102797241043,-2.829521928514539,-4.720797295098479,1.5821765701748962,0.0
0.24709511983105126,-0.3509839402401782,-0.6657760851287897,-2.153222324751366,-6.287663370686947,-0.15693768900503036,0.0
0.8904235032648983,-0.5807677435326601,-0.6657760851287897,-1.7635868986862797,-5.389290470702657,-0.662748287316271,0.0
0.7673825192969261,-0.1601465484740667,-1.3525446311025766,-0.9232573728196438,-4.778096968778755,2.1150469629722766,0.0
0.3666206400814686,-0.16404118877452775,-1.4362969249882578,0.02728762853740423,-5.186014033127922,4.915739132344878,0.0
0.27170311970747957,-0.475612429854932,-1.3692950703323947,0.9297103102098303,-3.8394780912864688,5.215478956784292,0.0
0.4298987408510026,-0.8300247227621679,-1.5423831052681651,1.1506589960725144,-2.6921257531854432,3.7448811666829,0.0
0.46153791430899876,-0.7754997755992328,-1.7936398891886167,0.8075935181177779,-3.4247395484683887,3.3816549980029227,0.0
0.6021562168647479,-0.6391873395178163,-2.150982853388976,0.5390399571396031,-2.0761570565921774,3.6813948224423316,0.0
0.5986407531471928,-0.7248694431714792,-2.4245735725719495,0.11680547904122275,-0.8107952974841679,2.7530345358368757,0.0
0.47208430546166624,-0.7560265655751676,-2.4971589232605176,-0.3980515327536292,-1.9042588342569786,2.060927323224246,0.0
0.3595897126463582,-0.709290881969635,-2.5250763056874486,-0.6200350698876983,-0.6941500656768826,-1.0884202019787075,0.0
0.1838167729150584,-0.783289039156635,-2.5864945665740153,-0.6236572134273484,0.589629379126699,-1.7097555623744507,0.0
0.38068249495168915,-0.8261300739399466,-2.7707495447068995,-0.8953154544426032,0.2676613094672275,-0.43690282072860387,0.0
0.38068249495168915,-0.8261300739399466,-2.7707495447068995,-0.7804427979623412,1.24789040358631,0.678794653048476,0.0
0.22600233752572033,-1.0403353160305844,-2.5418267937855625,-0.6417677291689188,2.5807836547251495,0.9233738840514821,0.0
0.22600233752572033,-1.0403353160305844,-2.5418267937855625,-0.766989251787221,3.5760195788274456,0.2042069277284647,0.0
0.5810634345594163,-1.063703140789831,-2.776333040739604,-0.9832809175942848,1.824295084153825,-1.6004753799657687,0.0
0.39825956739300705,-0.857287230430675,-2.5139093136220394,-1.0376126162865058,3.790892423305246,-1.7201631697796098,0.0
0.19084770035016854,-0.8144461615603235,-2.139815959060159,-0.8487454558430824,3.1892487782496515,-0.5784465251623768,0.0
0.07132218009975122,-0.623608778315972,-1.9164765086983424,-0.9734494644696446,3.4020750726926985,0.2395928538369079,0.0
0.07835310753486162,-0.6781337595659467,-1.7266380345327534,-1.8536222158482403,1.7895061296798342,-3.20012746127053,0.0
0.6548879264816182,-1.1922262792268057,-2.2570690825371797,-2.516468273436293,4.2724802304367016,-4.377230031996207,0.0
0.7322278821213721,-0.5963463047345045,-2.1286489669947493,-2.027483288141324,4.281347992705161,-4.036900477745773,0.0
0.5072386964907595,-0.5729784458882183,-1.9108930126656376,-1.707185446962118,3.204255658151967,-4.352251611741418,0.0
0.3314660029059168,-0.4717177980762308,-1.7154711402039364,-1.543673038850395,2.6687791828099012,-4.911141124603199,0.0
0.3314660029059168,-0.4717177980762308,-1.7154711402039364,-1.5540219049884354,1.4347955058238238,-5.94149608564102,0.0
0.3314660029059168,-0.4717177980762308,-1.7154711402039364,-0.813041786884172,-1.8790198697689011,-6.401513023499278,0.0
0.6654343176342827,-0.004360927933864575,-1.6373023423509596,-0.9998391438064852,-2.5925338181976243,-4.3408031014236395,0.0
0.721681737115166,0.12416222754662999,-1.799223385221321,-0.37269675517734374,-0.3981031715832411,-2.104204553269906,0.0
0.721681737115166,0.12416222754662999,-1.799223385221321,0.05109006293957656,0.7001353601825266,-1.4225049480624354,0.0
0.7146508096800553,0.03458547507074599,-1.5367996092354608,0.15354402451610344,-0.2732723386661472,-1.034300562230677,0.0
0.7322278821213721,0.09300507105590199,-1.6484692855480731,0.1597533467233861,0.12168426269785895,-0.4951855135938485,0.0
0.5002077690556499,0.061847948652213366,-1.8606417438444802,-0.03894523055558667,0.42250611850505615,-0.0986549834458479,0.0
0.26467243841882715,0.022901562691122652,-1.8885591262714112,-0.15588762586770974,-0.01065007308925952,0.37593275456810143,0.0
0.24709511983105126,-0.10562157574585199,-1.6261353502855507,0.03453184934966874,-0.3203396948048513,0.6382049232374534,0.0
0.5880943619945288,0.10079436870034386,-1.520049170005643,0.18562556255765655,-0.3121540604156418,0.21877760094477575,0.0
0.5529397248189747,-0.051096611539397235,-1.7210546362366408,0.26272474655789796,-0.10410266944720177,0.024154999414626684,0.0
0.5002077690556499,-0.1601465484740667,-1.765722506761686,0.3175738330189339,-0.06726733965530926,-0.13404090955429118,0.0
0.3877131762403416,-0.01215020853478671,-1.7043041481385273,-0.007381133138698432,-0.0986455881742456,-0.1371631993922017,0.0
0.3877131762403416,-0.01215020853478671,-1.7043041481385273,-0.01773001781573073,0.055517092984332474,0.8005638932572963,0.0
0.3877131762403416,-0.01215020853478671,-1.7043041481385273,0.10697403853887508,0.29153606811590527,1.2480918240911683,0.0
0.3420123940585826,0.015112282090200787,-1.5591335444979832,0.5173072978583826,0.793587977860085,1.9027314063216167,0.0
0.5459087973838658,-0.09393766336622877,-1.5814674797605057,0.4738419792959418,0.790859399784281,1.2418472190274716,0.0
0.6373106078938418,-0.11341085634677409,-1.6819702128760046,0.1866604516959191,0.3761208902456026,0.18963625451215357,0.0
0.6373106078938418,-0.11341085634677409,-1.6819702128760046,0.0034851957130184914,0.013906813958659467,0.10221219617337997,0.0
0.6373106078938418,-0.11341085634677409,-1.6819702128760046,-0.014625352471788037,0.17625512534652205,1.3552903022261118,0.0
0.6373106078938418,-0.11341085634677409,-1.6819702128760046,-0.029631234622370245,-0.21256225854542718,2.094231748161958,0.0
0.25764151098371674,-0.11341085634677409,-1.5367996092354608,0.14164280573723073,-0.30874338773998794,2.656243563555588,0.0
0.35255878521124834,-0.051096611539397235,-1.6093849110557326,0.2751434162170481,-0.1532164508229087,3.023632734577028,0.0
0.3912286399578969,-0.1757251096759109,-1.7154711402039364,0.3620740533419297,0.4218239906258055,3.0413256468554977,0.0
0.3068577568830311,-0.253617923141672,-1.7433885226308674,0.37397525949851,1.2560759381373172,3.371247390597764,0.0
0.6970734910922795,-0.21467151694140144,-2.430157068604654,0.7843085188180174,2.0036967464401814,2.814439480458217,0.0
1.0310418058206468,-0.6742391107437254,-1.5982179678586195,0.4029521301252754,0.2308259879951851,-0.4358620701432383,0.0
0.4931770877669983,-0.41329818504755506,-1.9555609809272745,-0.2604113657207616,1.4040995183017413,0.03248110088882799,0.0
0.5072386964907595,-0.37435178204294456,-1.3302106958400544,0.26634686485296294,0.957982693685325,-0.400476144034795,0.0
0.44747605943877966,-0.37435178204294456,-1.6373023423509596,-0.06843955048484314,1.6537611841359292,-0.27142157356478813,0.0
0.46153791430899876,-0.3120375329746877,-1.5423831052681651,-0.029113790053238987,2.4450385760636424,-0.11530718322076608,0.0
0.38068249495168915,-0.37045714174248345,-0.8667815143267821,0.024700408847321057,0.5043624291177512,-0.01435321494498484,0.0
0.40880595854567225,-0.35877322084110036,-1.0957043755835685,0.2301257576360674,0.8924976851304496,-0.09657345688724092,0.0
0.5318469425136455,-0.38214106264386666,-1.6093849110557326,0.054712174923495366,2.143534658935995,0.03872567580442229,0.0
0.4755997691792207,-0.3899303432447888,-0.9505337780515618,-0.11345719644353147,0.29221819599515586,-0.07367668378347075,0.0
0.4545069868738892,-0.37045714174248345,-0.8165301542593532,-0.12898052089517675,-0.7036999891039942,-0.18191599501437652,0.0
0.5599706522540872,-0.3899303432447888,-1.7154711402039364,0.16234057588018852,2.095103013759389,-0.12259252617589059,0.0
0.3384969303410278,-0.39771962384571086,-1.0901208795508641,0.0024503065747559674,2.322254093504898,-0.4119245274131955,0.0
0.4861461603318859,-0.3120375329746877,-0.961700745682823,-0.1382945231395394,1.6755895425071547,0.13031278567366766,0.0
0.46505337802655383,-0.331510734476993,-0.5652733764474388,-0.27489978841185203,-0.3626321225094004,0.25208201318855,0.0
0.5142696239258696,-0.39771962384571086,-0.8946989353138529,-0.2407484847160664,-0.6784609580571147,0.28018258364793075,0.0
0.47911523289677577,-0.37435178204294456,-1.1068713432148298,-0.2588590257022216,-0.03793550389360043,0.43733774996519426,0.0
0.4861461603318859,-0.37045714174248345,-1.0566199766570803,-0.43737726951843503,0.03232447885460573,0.2635303965669506,0.0
0.5213005513609792,-0.3899303432447888,-1.0901208795508641,-0.3344058949285081,0.401359921292482,-0.019557028168017875,0.0
0.5037232327732044,-0.4171928338697761,-1.0566199766570803,-0.22419025850386592,0.9395650079897528,-0.13820396267150517,0.0
0.23654872867838578,-0.3120375329746877,-0.8891154514982224,0.05936916973453046,1.4259277435553634,0.7953600895547169,0.0
0.40880595854567225,-0.3393000150779151,-0.838864092576144,0.1188752573177478,0.9266044118869876,1.548872145237184,0.0
0.44396059572122515,-0.3899303432447888,-0.704860471838204,0.058851725165399174,-0.11638111271116597,1.721638874989442,0.0
0.5072386964907595,-0.4249821144706983,-0.704860471838204,-0.009968354406568167,-1.1607309929060232,2.170207505632928,0.0
0.5634861159716422,-0.5106642010808414,-0.8332806087605135,-0.04204989639258766,-1.4758776007362844,1.6446223161573548,0.0
0.5634861159716422,-0.5106642010808414,-0.8332806087605135,0.04488073442114768,-1.737817768073388,1.6019510851756011,0.0
0.5634861159716422,-0.5106642010808414,-0.8332806087605135,0.16492779241469863,-1.308754439952844,1.3042929650099298,0.0
0.5634861159716422,-0.5106642010808414,-0.8332806087605135,0.21253265490789705,-0.7030178279453427,1.0170425538009218,0.0
0.5142696239258696,-0.643081988340037,-1.173873149002397,0.6984128086982758,0.6148684101735785,0.7318735422111409,0.0
0.5142696239258696,-0.643081988340037,-1.173873149002397,0.6642614797579053,-0.009967937410149359,0.7589333620851563,0.0
0.6373106078938418,-0.49898027165769826,-1.1850401166336584,0.22805597935954233,0.03778156428748702,0.2853864127383863,0.0
0.5880943619945288,-0.6703444619215044,-1.1236217824446477,0.325335507867049,0.08962387797982181,-0.4858186567740547,0.0
0.5880943619945288,-0.6703444619215044,-1.1236217824446477,0.1343985817693931,-0.5713656496769413,-1.0696864883391202,0.0
0.5880943619945288,-0.6703444619215044,-1.1236217824446477,-0.2857661180524621,-0.6886929760840763,-1.9897206687101483,0.0
0.5880943619945288,-0.6703444619215044,-1.1236217824446477,-0.7535357056121008,-1.4840632684048949,-4.581219380860934,0.0
0.2963113657303656,-0.5301374111049066,-1.0566199766570803,-0.42237140856935956,-0.5004235515292598,-5.468989937655365,0.0
0.4966925514845528,-0.3665625014420224,-1.5479666013008704,-0.1217363095496316,0.681035579887105,-5.126578983785708,0.0
0.4966925514845528,-0.2808804073753393,-1.2408749547899645,-0.0834454366785034,0.912279560025721,-3.1793122464602113,0.0
0.4404451320036701,-0.21467151694140144,-1.0845374079523076,-0.022387016176785582,0.9934537427591656,-1.8190355416801252,0.0
0.4123214222632276,-0.1679358290749888,-1.235291483191408,0.2544456334517978,1.3461178831392218,-0.5191230817117669,0.0
0.3666206400814686,-0.14846262757268353,-1.017535589947666,0.2658294265949779,1.038474715260118,-0.22042421096073025,0.0
0.5002077690556499,-0.15235726787314458,-0.9505337780515618,0.0971425980365274,0.4463808605140335,0.013747373861103125,0.0
0.24709511983105126,-0.1679358290749888,-0.6881100203913122,-0.1382945231395394,-0.47654877624088154,1.0295316623768118,0.0
0.4404451320036701,-0.2068822363404793,-1.0789539119196028,0.2896318389081385,0.614186249014927,1.4656111844444075,0.0
0.5388778699487556,-0.2068822363404793,-1.045453009025819,0.1675150089492087,0.770395363730358,0.4758459532176101,0.0
0.6794961725045053,-0.23414472057414668,-1.118038310846091,0.1462998005482658,1.0527995671213843,0.10741600622292852,0.0
0.7146508096800553,-0.20298759604001823,-1.101287847182125,-0.00013691469311376712,1.254029654337768,-0.29223681376298233,0.0
0.47911523289677577,-0.2224607975423235,-1.101287847182125,-0.17348072859588007,0.6864926694799115,-0.10489956312166895,0.0
0.4228678134158931,-0.23414472057414668,-0.9058659044722485,-0.2666207005503367,0.3747566344871014,-0.017475504782895356,0.0
0.5459087973838658,-0.253617923141672,-0.8332806087605135,-0.25316712913063155,0.011860406401338345,-0.15589692572572683,0.0
0.5459087973838658,-0.253617923141672,-0.8332806087605135,-0.23764380467898633,0.2826683058474452,-0.37133477221429695,0.0
0.5564551885365292,-0.17961974997637195,-0.9281998427890393,-0.22419025850386592,0.36520671105998975,-0.497267065540331,0.0
0.5564551885365292,-0.17961974997637195,-0.9281998427890393,-0.24851013431959657,-0.03588909529629803,-0.6211178069198824,0.0
0.5564551885365292,-0.17961974997637195,-0.9281998427890393,-0.06636977536389123,-0.4431241440841934,-0.7376831926503713,0.0
0.5564551885365292,-0.17961974997637195,-0.9281998427890393,0.10283448198582501,0.18239434281857902,-0.31721513246626637,0.0
0.5775479708418613,-0.1679358290749888,-0.6546091174975285,0.14940446796305334,0.3713459285320469,-0.2984813934388033,0.0
0.5775479708418613,-0.1679358290749888,-0.6546091174975285,-0.331301214891428,0.5255086263303254,-0.6617075367309054,0.0
0.5318469425136455,-0.14067334697176143,-0.9337833266046699,-0.4974008142930761,0.39453854266177363,-0.7834767769397257,0.0
0.4545069868738892,-0.253617923141672,-0.7160274394694652,0.1742417946590613,0.15715531177169967,-0.25060633336659394,0.0
0.4545069868738892,-0.253617923141672,-0.7160274394694652,0.16803245982948622,0.3979492486168281,-0.3890277352685186,0.0
0.5705170434067518,-0.1445679872722225,-0.9058659044722485,-0.12794563175691426,0.8345161165267322,-0.7751506707052975,0.0
0.4228678134158931,-0.109516224568073,-0.6601925890960851,-0.17244583945761752,0.23150811587443573,-0.8594524328591916,0.0
0.4545069868738892,-0.051096611539397235,-0.6266916862023014,0.02573529798558358,-0.5297553831310436,-0.6575444836136914,0.0
0.5529397248189747,-0.04720197976069615,-0.7495283423632487,0.0914507140872298,-0.2739544665453978,-0.5097562248919733,0.0
0.5529397248189747,-0.04720197976069615,-0.7495283423632487,-0.006346244789329196,0.3495176034402222,-0.2839107329164302,0.0
0.5494242611014203,-0.051096611539397235,-0.8835319669190246,-0.05809066856893732,0.706956705533834,-0.0507799043327316,0.0
0.5353624062312011,-0.043307330938475136,-0.838864092576144,-0.23195193335198125,0.34883547556097155,-0.13091861971638066,0.0
0.47911523289677577,-0.09783229514492987,-0.7104439556538346,-0.33854542623697315,0.2049048290690552,-0.0507799043327316,0.0
0.5213005513609792,-0.12120013694769621,-0.7104439556538346,-0.19831805529188795,0.24037587814289585,0.14384269561067528,0.0
0.5213005513609792,-0.12120013694769621,-0.7104439556538346,-0.1098350907707589,0.2642506367915736,-0.14028548923011222,0.0
0.4123214222632276,-0.15235726787314458,-0.7160274394694652,-0.3742490951958838,-0.09932771605349619,-0.3838239315659389,0.0
0.4123214222632276,-0.15235726787314458,-0.7160274394694652,-0.6117560072707681,-0.5474909076679638,-0.548264402756513,0.0
0.609187144299858,-0.2263554378427846,-0.7216109232850958,-0.37062697690081864,-0.4642703412967676,-0.410883751439954,0.0
0.7603515918618138,-0.10562157574585199,-0.6546091174975285,0.16544524329497612,0.07939184331316003,-0.23187259433913085,0.0
0.4755997691792207,-0.1874090305772941,-0.6378586538335627,0.06661339370236809,-0.1845946827021446,-0.5326529916487743,0.0
0.44747605943877966,-0.14067334697176143,-0.6881100203913122,-0.06223022196641427,-0.14434868023459832,-0.4983078161256966,0.0
0.5072386964907595,-0.004360927933864575,-0.7774457675499389,0.12767180868183295,0.5309657159231318,-0.19336437839277706,0.0
0.5002077690556499,0.015112282090200787,-0.7271944071007264,0.24823632386680758,0.6073649036636195,-0.2630954673303601,0.0
0.47911523289677577,-0.027728769736630906,-0.6881100203913122,0.3046377251017987,0.7124137951266406,-0.2152204072581507,0.0
0.4228678134158931,-0.08614838276530667,-0.732777890916357,0.2885969623921684,0.30995372053207615,-0.0362092311164205,0.0
0.4228678134158931,-0.08614838276530667,-0.732777890916357,0.15716613018887599,-0.2684973769525915,0.006462035567033934,0.0
0.4228678134158931,-0.08614838276530667,-0.732777890916357,-0.03894523055558667,-0.5120198585941231,-0.33698962207909516,0.0
0.5423933336663107,0.015112282090200787,-0.704860471838204,-0.17089351206137002,-0.4363027654534851,-0.44626967754839725,0.0
0.5423933336663107,0.015112282090200787,-0.704860471838204,-0.029631234622370245,-0.12388460258142453,-0.2266687906365513,0.0
0.44396059572122515,-0.07835910216438458,-0.7216109232850958,0.2891144006501534,0.20149413975370098,-0.04453533100387955,0.0
0.623248753023622,-0.07446445334216356,-0.6881100203913122,0.4686675462269218,0.4456987326347829,0.2645711471523161,0.0
0.623248753023622,-0.07446445334216356,-0.6881100203913122,0.34344604885320434,0.13805551483657771,0.477927505164093,0.0
0.623248753023622,-0.07446445334216356,-0.6881100203913122,0.038671402747145686,-0.050896083356665414,0.3041201263779734,0.0
0.5177850876434241,0.030690826248525052,-0.7718622837343083,-0.1367421831209994,0.14419474894833512,0.07203008011448528,0.0
0.4123214222632276,-0.05499126036161825,-0.5764403440786999,-0.09534664914622991,0.4047705939681358,0.11157905934014256,0.0
0.4158368859807835,-0.10172694396715089,-0.6490256214648238,0.1364683600459181,0.21240831893931375,0.18026938499842204,0.0
0.4158368859807835,-0.10172694396715089,-0.6490256214648238,0.1142182625067127,0.12441280749426215,0.23438905013432837,0.0
0.45802245059144425,-0.043307330938475136,-0.676943052760051,-0.23453914988649116,0.2615220919951704,0.19796234805264368,0.0
0.5810634345594163,-0.051096611539397235,-0.8611980301293679,-0.6210699968928383,1.1387486117301826,0.2531227637739155,0.0
0.6584033901991726,-0.027728769736630906,-0.8053631866280919,-0.6164129768372183,1.6196543242617878,0.10221219617337997,0.0
0.5670015796891973,-0.10562157574585199,-0.43685323647086066,-0.16364928809353238,1.5910046205392547,0.531006394326758,0.0
0.6548879264816182,-0.07835910216438458,-0.3531009914534753,0.11059614421164765,0.7881308882672786,0.4862536113985212,0.0
0.303342293165476,-0.15235726787314458,-0.26376520153509003,0.3641438316184548,-0.47313810356522795,0.631960368949508,0.0
0.22248687380816526,-0.18351439027683303,-0.403352309142929,0.24720142210625268,-1.3871999780516826,0.6184304590125006,0.0
0.3666206400814686,-0.10562157574585199,-0.4871045785944622,0.08161927358488211,-1.6184440247491,0.19067701779145707,0.0
0.46153791430899876,-0.06667517274124146,-0.5541064088161776,0.03815395817801444,-1.453367147765209,-0.013312453252423577,0.0
0.5634861159716422,-0.09783229514492987,-0.48152110699590556,0.2922190806872334,-0.7951061898644001,0.2645711471523161,0.0
0.5740325071243069,-0.05888589214031929,-0.732777890916357,0.4086440266968656,-0.18664109961929723,0.33846530190105106,0.0
0.4966925514845528,-0.06278054096254035,-0.8221136411292522,0.3382716157841843,0.38771719731046594,0.20004387461125067,0.0
0.44747605943877966,-0.07446445334216356,-0.8332806087605135,0.0029677511438872266,0.7321957365807136,0.250000486629943,0.0
0.42638327713344815,-0.10172694396715089,-0.45918717173338314,0.24720142210625268,-0.06726733965530926,0.2468781840980945,0.0
0.436929668286115,-0.12509478576991723,-0.6211082146037449,-0.03584056629637224,0.03027807025730334,-0.187119811410894,0.0
0.4861461603318859,-0.20298759604001823,-0.676943052760051,0.0019328620056247086,0.03573515569018462,-0.11738870977937309,0.0
0.3877131762403416,-0.051096611539397235,-0.632275182235006,0.048502840093920266,-0.05567103259044588,-0.05598372072924912,0.0
0.46505337802655383,-0.05499126036161825,-0.6434421498662672,0.04798539552478899,0.10190232124378598,0.022073474442761917,0.0
0.4966925514845528,-0.08614838276530667,-0.632275182235006,0.07282272222079694,0.28607897852309877,0.1948400582147331,0.0
0.5459087973838658,-0.07056982156346245,-0.6434421498662672,-0.09534664914622991,0.08553106910506725,0.4539899370461744,0.0
0.4861461603318859,-0.035518050337553043,-0.6211082146037449,-0.1579574041442348,-0.1614020685724179,0.11782363266899458,0.0
0.3841977125227862,-0.06278054096254035,-0.5373559451522117,-0.24747525780362647,-0.40356026117604765,-0.03204618117269097,0.0
0.4158368859807835,-0.14067334697176143,-0.604357750939779,-0.10207342854493626,-0.21051584162827455,-0.10489956312166895,0.0
0.48966162404944324,-0.10562157574585199,-0.6211082146037449,-0.01773001781573073,-0.00246444415995163,-0.08200278367092981,0.0
0.510754160208314,-0.109516224568073,-0.6657760851287897,-0.035323121727240975,-0.033842688778958185,-0.027883128055476943,0.0
0.42638327713344815,-0.15625190817360565,-0.6601925890960851,0.05522961949262663,-0.06726733965530926,0.0470517772786236,0.0
0.44747605943877966,-0.13288406637083933,-0.6490256214648238,0.02366551970905855,-0.11024189523910898,0.12094591615993612,0.0
0.4685688417441112,-0.07835910216438458,-0.5931907833085178,0.0567819532000204,-0.12183820230397235,0.11678286938969108,0.0
0.46153791430899876,-0.05888589214031929,-0.6155247185710402,0.018491077173319086,-0.20369449627696698,0.17818785843981502,0.0
0.44747605943877966,-0.05888589214031929,-0.6155247185710402,-0.047224338928327135,-0.3667249230643048,0.104293716385018,0.0
0.4545069868738892,-0.09004301454400776,-0.6657760851287897,-0.09482920457709862,-0.3742284295742638,0.15737260554768287,0.0
0.47208430546166624,-0.10562157574585199,-0.6490256214648238,-0.05291622603319786,-0.2207478762949363,0.04392948744071307,0.0
0.47911523289677577,-0.06667517274124146,-0.7104439556538346,-0.1113874244781527,-0.016789295241232245,0.00854356093558426,0.0
0.5388778699487556,-0.08225373394308566,-0.7774457675499389,-0.1382945231395394,0.47366630847806557,0.0751523636054268,0.0
0.4545069868738892,-0.08225373394308566,-0.6601925890960851,-0.012038131302529962,0.48730903246008134,0.1532095651244068,0.0
0.4158368859807835,-0.12509478576991723,-0.5206055059223939,0.00607241698088822,0.04733146691497309,0.19275854435006406,0.0
0.3877131762403416,-0.1445679872722225,-0.5820238156772566,-0.06792210591571188,-0.3735463016950132,0.022073474442761917,0.0
0.4334142045685571,-0.1601465484740667,-0.6266916862023014,-0.11190486904728393,-0.582279828862554,-0.09761422016654442,0.0
0.5423933336663107,-0.14846262757268353,-0.6211082146037449,0.024700408847321057,-0.24325836254541253,-0.0830435469502333,0.0
0.5810634345594163,-0.1601465484740667,-0.7383613747319876,0.18510812429967155,0.4190954458294023,0.052255590501656624,0.0
0.5002077690556499,-0.14067334697176143,-0.5820238156772566,0.216154773202962,0.7819916375158206,0.13343507551157818,0.0
0.4123214222632276,-0.09004301454400776,-0.5708568480459952,0.19752678133652918,0.14692327710503789,0.1500872752864963,0.0
0.47911523289677577,-0.15235726787314458,-0.704860471838204,-0.08499776407475094,0.14965182190144108,-0.0539021941706421,0.0
0.48966162404944324,-0.16404118877452775,-0.6211082146037449,0.017456188035056563,0.2908539402366547,-0.10385879984236543,0.0
0.4404451320036701,-0.14067334697176143,-0.587607311709961,0.15250913537784092,0.13805551483657771,0.0002174598580685164,0.0
0.4404451320036701,-0.14067334697176143,-0.587607311709961,0.12042758471399533,0.13464484216092393,0.003339748109236785,0.0
0.4404451320036701,-0.14067334697176143,-0.587607311709961,0.30308541032784364,-0.18323041030394302,0.12823125911506064,0.0
0.4404451320036701,-0.14067334697176143,-0.587607311709961,0.17579412205530887,-0.1579913958967641,0.005421273081101553,0.0
0.4404451320036701,-0.14067334697176143,-0.587607311709961,0.11111359509192514,-0.1873232274985478,0.0501740639430496,0.0
0.5634861159716422,-0.10562157574585199,-0.7941962189968307,-0.05498600115414978,0.019363899391540745,0.06682626371796775,0.0
0.5634861159716422,-0.11341085634677409,-0.6825265365756814,0.06816572109861561,0.43683097036632274,0.00854356093558426,0.0
0.5494242611014203,-0.12120013694769621,-0.632275182235006,0.22960831937808235,0.5309657159231318,-0.015393978224288344,0.0
0.5494242611014203,-0.12120013694769621,-0.632275182235006,0.316021518244979,0.3222321554761901,0.32077233884682943,0.0
0.349043321493693,-0.07056982156346245,-0.49827154622572345,0.06247383714931801,-0.15389857870215926,0.19692158477334015,0.0
0.349043321493693,-0.07056982156346245,-0.49827154622572345,-0.12432352608414167,-0.0502139471575646,-0.019557028168017875,0.0
0.349043321493693,-0.07056982156346245,-0.49827154622572345,-0.0839628812476347,-0.022246380674113532,-0.08616583678814385,0.0
0.349043321493693,-0.07056982156346245,-0.49827154622572345,0.013834079206710865,-0.09591704337784242,-0.06326905733740468,0.0
0.4123214222632276,-0.14067334697176143,-0.5596898804147341,0.03194462650401245,-0.08568500871118062,-0.12259252617589059,0.0
0.4228678134158931,-0.1445679872722225,-0.6266916862023014,-0.07878843555632208,-0.11297043171566197,0.10637524294362502,0.0
0.5142696239258696,-0.109516224568073,-0.6211082146037449,-0.020834683258285084,0.45183795010683997,-0.048698384121093556,0.0
0.5213005513609792,-0.10562157574585199,-0.3251835601582487,-0.1527829584529222,-0.17231624775803064,-0.09345117339629937,0.0
0.4298987408510026,-0.09393766336622877,-0.6099412469724836,-0.11397464101266272,-0.2009659514805638,-0.08512507350884033,0.0
0.46505337802655383,-0.1445679872722225,-0.6099412469724836,0.05109006293957656,0.03164234265550492,-0.1538153991671198,0.0
0.48966162404944324,-0.09393766336622877,-0.5596898804147341,0.09972982719332993,0.02482098482442203,-0.09032888355838886,0.0
0.4755997691792207,-0.11341085634677409,-0.5373559451522117,0.14009046571869072,0.13396270596182314,0.08035618000194433,0.0
0.47208430546166624,-0.07835910216438458,-0.5596898804147341,0.14733468968652833,0.17352658055011888,0.05850016383050865,0.0
0.436929668286115,-0.05888589214031929,-0.6099412469724836,0.10179959284756249,0.07461689823930463,0.05850016383050865,0.0
0.47208430546166624,-0.08614838276530667,-0.6657760851287897,-0.02704401335450051,0.1448768768275857,-0.04245380444527254,0.0
0.5845788982769737,-0.10562157574585199,-0.632275182235006,-0.22522514764212845,0.17830152562397422,-0.07679897362138126,0.0
0.4334142045685571,-0.09783229514492987,-0.5541064088161776,-0.226260036780391,0.2424222950600485,-0.001864065113796246,0.0
0.38068249495168915,-0.11730550516899513,-0.44802017966797375,-0.12898052089517675,-0.04816753856026221,-0.12363328945519411,0.0
0.37716703123413436,-0.17961974997637195,-0.8109466704437226,0.4298592477201009,0.15579105601319848,0.06890779027657473,0.0
0.5845788982769737,-0.21467151694140144,-0.6657760851287897,0.0971425980365274,0.5950864687195055,0.03456262586069275,0.0
0.5845788982769737,-0.21467151694140144,-0.6657760851287897,-0.18382961997850522,0.05006000755145119,0.23855210325154239,0.0
0.3877131762403416,-0.051096611539397235,-0.30284962489572614,0.2285734428621123,0.021410305908880604,0.05329635060747564,0.0
0.4404451320036701,-0.15235726787314458,-0.5987742793412223,-0.07102677333049943,0.04528505831767069,-0.061187530778797655,0.0
0.4404451320036701,-0.15235726787314458,-0.5987742793412223,-0.016695129466361494,0.048695735153249584,-0.10906261623888296,0.0
0.48966162404944324,-0.08614838276530667,-0.4926880746271668,0.08938093581070475,-0.025657058549673702,0.18235091155702907,0.0
0.4755997691792207,-0.06667517274124146,-0.503855042258428,0.15716613018887599,0.05210641614875359,0.11366057955178056,0.0
0.44396059572122515,-0.12509478576991723,-0.503855042258428,0.0909332695180985,-0.17436264803548282,0.10221219617337997,0.0
0.4123214222632276,-0.12120013694769621,-0.587607311709961,0.2948062972217435,0.013224677759558667,-0.013312453252423577,0.0
0.7251972008327205,-0.1874090305772941,-0.4926880746271668,-0.037910342995110716,-0.4363027654534851,-0.16318226868085137,0.0
0.7638670555793683,-0.253617923141672,-0.5094385138569846,0.13336369263113054,-0.01815356659945257,0.1688210016200214,0.0
0.5248160150785337,-0.12898942607037828,-0.5708568480459952,-0.31060345737076256,-0.5986510976409731,0.2937125189728143,0.0
0.5564551885365292,-0.10562157574585199,-0.6434421498662672,0.013316634637579611,-0.10069198845169777,0.13967964249346124,0.0
0.47208430546166624,-0.14846262757268353,-0.531772473553655,0.054194730354364104,-0.0952349071787416,0.14488345888997878,0.0
0.48966162404944324,-0.3276160941765319,-1.0901208795508641,-0.19728316615362557,-0.024292788231434655,0.1615356586648969,0.0
0.4334142045685571,-0.12509478576991723,-0.7718622837343083,0.0029677511438872266,-0.06249239042152878,0.3842588608025293,0.0
0.39825956739300705,-0.1445679872722225,-0.5596898804147341,0.09972982719332993,-0.2712259217489945,0.518517234975116,0.0
0.4545069868738892,-0.14846262757268353,-0.503855042258428,0.1768290111935714,-0.24666903522106637,0.2395928538369079,0.0
0.46505337802655383,-0.21467151694140144,-0.5820238156772566,0.15199168449756342,-0.00246444415995163,0.0616224536684192,0.0
0.5916098257120833,-0.13288406637083933,-0.6881100203913122,-0.005828801009091215,0.009813998844017223,0.00854356093558426,0.0
0.39825956739300705,-0.039412699159774016,-0.531772473553655,0.025217853416452326,-0.3871889923976284,0.14280193233137178,0.0
0.45099152315633473,-0.09393766336622877,-0.43685323647086066,-0.20142272270667558,-0.3905996983526831,0.024154999414626684,0.0
0.46505337802655383,-0.12898942607037828,-0.6601925890960851,-0.12121885866935411,-0.44789907251834854,0.14280193233137178,0.0
0.38068249495168915,-0.07835910216438458,-0.5094385138569846,-0.0881024314895385,-0.7705493199761722,0.12719049583575714,0.0
0.45099152315633473,-0.06667517274124146,-0.5820238156772566,-0.12484097696441916,-0.6648182673544999,0.08660075333079637,0.0
0.6021562168647479,-0.14067334697176143,-0.4871045785944622,1.1729091693454747,0.48253407074652566,0.7131398285715537,0.0
0.45802245059144425,-0.10562157574585199,-1.1124548148133864,-0.04360223009998144,0.08212038810956325,-0.08824735699978185,0.0
0.5142696239258696,-0.17183046937544988,-0.8221136411292522,-0.04360223009998144,0.05824563778073567,-0.20064972134790163,0.0
0.436929668286115,-0.2068822363404793,-0.6881100203913122,-0.2190158254348459,-0.302604170267931,-0.13091861971638066,0.0
0.48966162404944324,-0.14846262757268353,-0.6713595689444203,-0.19159128220432786,-0.13070596457243253,-0.08512507350884033,0.0
0.47208430546166624,-0.1601465484740667,-0.6434421498662672,-0.1181141975657128,-0.17504479255443384,0.08972304316870687,0.0
0.5142696239258696,-0.1757251096759109,-0.6490256214648238,0.014868968344973381,0.07461689823930463,-0.05494295744994563,0.0
0.48966162404944324,-0.1990929557395572,-0.7271944071007264,0.09403793062173985,0.29290032387440645,-0.21209810472630222,0.0
0.5142696239258696,-0.21077687664094039,-0.6825265365756814,0.3046377251017987,0.2390116057446942,-0.180875231735073,0.0
0.4861461603318859,-0.1990929557395572,-0.7104439556538346,0.3662135846503949,0.009131863684897702,0.024154999414626684,0.0
0.45802245059144425,-0.1445679872722225,-0.7216109232850958,0.10852637855741509,-0.04271045312738092,0.17090252817862844,0.0
0.46505337802655383,-0.11730550516899513,-0.6825265365756814,-0.23609148990503123,0.13259843356362153,-0.16214150540154787,0.0
0.4685688417441112,-0.13288406637083933,-0.5987742793412223,-0.10207342854493626,0.1482875495032395,-0.25893241421314606,0.0
0.44747605943877966,-0.11730550516899513,-0.587607311709961,0.155096351912351,0.06165631461631457,-0.11322565666215904,0.0
0.44747605943877966,-0.10172694396715089,-0.6490256214648238,0.27410851445649304,-0.17504479255443384,0.036644150832557516,0.0
0.48966162404944324,-0.10562157574585199,-0.7383613747319876,0.11628804078323773,-0.09932771605349619,-0.001864065113796246,0.0
0.46505337802655383,-0.10172694396715089,-0.6825265365756814,-0.035323121727240975,-0.10069198845169777,-0.1277963425724081,0.0
0.46505337802655383,-0.11730550516899513,-0.6546091174975285,-0.0022066913918522427,-0.07886364672017264,-0.061187530778797655,0.0
0.4685688417441112,-0.1601465484740667,-0.6266916862023014,0.12249736299052036,-0.13479878176703733,0.041847964055590554,0.0
0.47911523289677577,-0.12898942607037828,-0.6881100203913122,0.005037527842625697,-0.1845946827021446,0.019991949470897153,0.0
0.5213005513609792,-0.109516224568073,-0.7551118261788795,-0.0606778882590205,-0.06726733965530926,0.07098931683518174,0.0
0.5072386964907595,-0.12509478576991723,-0.7439448585476183,-0.024974236655762035,0.03914583668568862,0.08868227988940339,0.0
0.5072386964907595,-0.12509478576991723,-0.7439448585476183,-0.09327687718085109,-0.08432073631297902,0.08555999005149288,0.0
0.4685688417441112,-0.14067334697176143,-0.704860471838204,-0.19366104785856045,-0.17504479255443384,0.05745940372468968,0.0
0.44747605943877966,-0.13288406637083933,-0.7551118261788795,-0.24126592297405128,-0.31351834945354384,0.13863887921415774,0.0
0.4545069868738892,-0.12509478576991723,-0.7216109232850958,-0.23712636642100127,-0.08091005531747503,0.12927202239436414,0.0
0.5002077690556499,-0.11730550516899513,-0.6657760851287897,-0.12018396953109159,0.033688751252807334,0.07307084339378876,0.0
0.4755997691792207,-0.1601465484740667,-0.704860471838204,-0.04101500725432514,-0.0072393944337133965,-0.0039455900856610136,0.0
0.47208430546166624,-0.17183046937544988,-0.6881100203913122,0.07851460617009455,-0.0563531687895467,-0.07471744706277425,0.0
0.44747605943877966,-0.2068822363404793,-0.676943052760051,0.14216024399521573,0.15988385656810286,0.17506556860190453,0.0
0.5494242611014203,-0.13677870667130038,-1.5703005365633924,0.23892230900015257,0.5145944471447126,0.2739380293599856,0.0
0.510754160208314,-0.09004301454400776,-0.7886127351812001,0.1582010193271385,0.5466548235428994,0.18547320139493956,0.0
0.46153791430899876,-0.17961974997637195,-0.6657760851287897,0.20011401049333177,0.38703506943121535,0.22502218062059687,0.0
0.42638327713344815,-0.19519831117821618,-0.6266916862023014,0.2187419897374721,0.2758469272167366,0.19275854435006406,0.0
0.42638327713344815,-0.13288406637083933,-0.7104439556538346,0.16854989808747126,0.19671919467984555,0.10637524294362502,0.0
0.47208430546166624,-0.10562157574585199,-0.6713595689444203,-0.11656186385831901,0.33928555213386,0.21669607438616884,0.0
0.5318469425136455,-0.10562157574585199,-0.6546091174975285,-0.08655009778214472,0.35633894879152966,0.12510896927715015,0.0
0.45802245059144425,-0.1445679872722225,-0.632275182235006,-0.08655009778214472,0.26902558186542913,0.013747373861103125,0.0
0.4404451320036701,-0.15235726787314458,-0.6378586538335627,-0.1382945231395394,0.1551089114942475,0.022073474442761917,0.0
0.38068249495168915,-0.11341085634677409,-0.6211082146037449,-0.16830628290456745,-0.17163410323907963,0.041847964055590554,0.0
0.4545069868738892,-0.15235726787314458,-0.6657760851287897,-0.25213225261466155,-0.07545296572466864,0.01582889913048206,0.0
0.4966925514845528,-0.17961974997637195,-0.676943052760051,-0.2288472533149011,-0.021564245514994012,0.0002174598580685164,0.0
0.5037232327732044,-0.19519831117821618,-0.5429394411849162,0.015386412914104634,0.07461689823930463,-0.0539021941706421,5.0
0.45802245059144425,-0.1679358290749888,-0.5206055059223939,0.1582010193271385,0.0418743773221667,-0.002904826806357509,5.0
0.47911523289677577,-0.17183046937544988,-0.604357750939779,0.23271297417057732,0.09712737616993058,0.026236524386491447,5.0
0.47208430546166624,-0.17961974997637195,-0.604357750939779,0.18769534083418166,0.07393476204020386,0.06578550361214872,5.0
0.5845788982769737,-0.21467151694140144,-0.8556145455501701,-0.21021927407076071,0.18853356029063598,-0.14757083218523676,5.0
0.45802245059144425,-0.1601465484740667,-0.5429394411849162,0.07540994506645324,0.12782348016991593,-0.05286143089133861,5.0
0.4545069868738892,-0.1601465484740667,-0.6825265365756814,-0.00427646809059072,0.03982797288478941,-0.048698384121093556,5.0
0.4404451320036701,-0.15235726787314458,-0.5820238156772566,-0.03635800928771692,-0.0038287156481696125,-0.022679318005928397,5.0
0.44747605943877966,-0.14067334697176143,-0.5987742793412223,-0.03946267512471792,-0.01815356659945257,-0.06430982061670817,5.0
0.48966162404944324,-0.14067334697176143,-0.6657760851287897,-0.1429515179505745,-0.19073391681390206,-0.034127704557813485,5.0
0.48966162404944324,-0.1445679872722225,-0.5764403440786999,-0.11449208558179398,-0.07272442508819055,-0.01435321494498484,5.0
0.5318469425136455,-0.16404118877452775,-0.6713595689444203,0.19390467566375671,0.4361488424870721,0.0616224536684192,5.0
0.4158368859807835,-0.1874090305772941,-0.5094385138569846,-0.02290445995702356,-0.04953181095846381,-0.01851626488871437,5.0
0.47208430546166624,-0.17183046937544988,-0.6099412469724836,0.00762474911049544,0.06779553624829664,0.022073474442761917,5.0
0.46153791430899876,-0.1874090305772941,-0.632275182235006,0.004520083273494446,-0.012696480126590004,0.019991949470897153,5.0
0.46153791430899876,-0.1874090305772941,-0.632275182235006,0.04384584528288516,0.029595936138165087,0.04913330066374612,5.0
0.4826306966143303,-0.1990929557395572,-0.6657760851287897,0.0697180548060094,-0.013378616325690804,0.11470134283108407,5.0
0.47911523289677577,-0.2224607975423235,-0.7160274394694652,0.09869493805506742,0.00640332096845706,0.10741600622292852,5.0
0.47911523289677577,-0.2224607975423235,-0.7160274394694652,0.1768290111935714,0.018681763192439957,0.1480057487278893,5.0
0.47208430546166624,-0.21856615724186249,-0.6601925890960851,0.24978863864076264,0.0029926420529156144,0.2312667476024799,5.0
0.46153791430899876,-0.1990929557395572,-0.6211082146037449,0.30153307030930354,-0.023610652032333857,0.2999570732607593,5.0
0.47208430546166624,-0.1679358290749888,-0.6434421498662672,0.3600042750654046,-0.0529424877940427,0.3738512280094944,5.0
0.46505337802655383,-0.13677870667130038,-0.6490256214648238,0.3625914915999147,-0.06931374825261166,0.39674799476629563,5.0
0.46505337802655383,-0.15235726787314458,-0.6099412469724836,0.3641438316184548,-0.08636713659043121,0.39674799476629563,5.0
0.47208430546166624,-0.1679358290749888,-0.5987742793412223,0.3600042750654046,-0.07818151052107182,0.38738113794650186,5.0
0.4826306966143303,-0.1679358290749888,-0.5931907833085178,0.34034139406070935,-0.04953181095846381,0.38738113794650186,5.0
0.47911523289677577,-0.17961974997637195,-0.5206055059223939,0.3398239305581393,-0.00246444415995163,0.3186908122882225,5.0
0.48966162404944324,-0.1601465484740667,-0.531772473553655,0.3315448426966242,0.049377871352350396,0.23022599701711435,5.0
0.48966162404944324,-0.16404118877452775,-0.531772473553655,0.30360284858582864,0.08825961390147043,0.18026938499842204,5.0
0.47911523289677577,-0.13288406637083933,-0.5429394411849162,0.2756608544750331,0.12509494369336296,0.09492685321825542,5.0
0.4755997691792207,-0.07835910216438458,-0.5429394411849162,0.2016663252672868,0.1939906498834424,0.054337113886779136,5.0
0.48966162404944324,-0.07835910216438458,-0.5206055059223939,0.03815395817801444,0.2758469272167366,-0.09241041011699587,5.0
0.40529049482811746,-0.027728769736630906,-0.503855042258428,-0.03584056629637224,0.2062691014672568,-0.05598372072924912,5.0
0.4404451320036701,-0.004360927933864575,-0.5150220098896893,-0.1812423908217027,0.17284443603116784,-0.1267555792931046,5.0
0.4545069868738892,0.007323001489278534,-0.5261889775209504,-0.3349233331864931,0.1476054216239889,-0.11530718322076608,5.0
0.4298987408510026,-0.01215020853478671,-0.5094385138569846,-0.4177144137583246,0.04733146691497309,-0.1506931093292093,5.0
0.47208430546166624,-0.043307330938475136,-0.5429394411849162,-0.4937787212425959,0.029595936138165087,-0.18399752157298352,5.0
0.46153791430899876,-0.09393766336622877,-0.587607311709961,-0.5434533493900269,0.014588950157760265,-0.1954459049513841,5.0
0.4755997691792207,-0.1445679872722225,-0.5987742793412223,-0.5538022155280671,0.02823166373996349,-0.24436175369077293,5.0
0.4755997691792207,-0.1601465484740667,-0.604357750939779,-0.5191334735742964,0.009813998844017223,-0.1954459049513841,5.0
0.4685688417441112,-0.17961974997637195,-0.5820238156772566,-0.5061973404125764,-0.011332208768369682,-0.2349948714831034,5.0
0.46505337802655383,-0.19130367087775513,-0.5987742793412223,-0.4622146088367355,-0.02292851583323306,-0.24540250427613847,5.0
0.47208430546166624,-0.21077687664094039,-0.6155247185710402,-0.44462150610856516,-0.04134618072917932,-0.22458726407794427,5.0
0.48966162404944324,-0.23803936087460775,-0.6378586538335627,-0.3913247596660691,-0.02292851583323306,-0.19336437839277706,5.0
0.48966162404944324,-0.24193400117506877,-0.6378586538335627,-0.3437198845505781,-0.00041803686262582976,-0.18295675829368,5.0
0.47911523289677577,-0.24972328177599093,-0.6099412469724836,-0.2852486797944771,0.0009462344955944942,-0.17358988877994846,5.0
0.4966925514845528,-0.23025007814324563,-0.6713595689444203,-0.2510973508541065,-0.029067737465215147,-0.15589692572572683,5.0
0.4861461603318859,-0.21467151694140144,-0.704860471838204,-0.2573066856836817,-0.0563531687895467,-0.13091861971638066,5.0
0.45802245059144425,-0.23025007814324563,-0.6936935042069428,-0.23246937160996606,-0.08227432771567664,-0.07992125711232279,5.0
0.46153791430899876,-0.253617923141672,-0.6266916862023014,-0.1269107552409442,-0.12593101117872693,0.01582889913048206,5.0
0.47911523289677577,-0.27309112597550217,-0.6825265365756814,-0.07671865727979704,-0.12047392990577076,0.054337113886779136,5.0
0.5002077690556499,-0.27309112597550217,-0.6546091174975285,-0.03066612376063277,-0.10000985225259698,0.04288872733489406,5.0
0.48966162404944324,-0.26140720427520403,-0.6490256214648238,0.008659638248757963,-0.07136015268998895,0.06682626371796775,5.0
0.5037232327732044,-0.26140720427520403,-0.6211082146037449,0.046433068128541456,-0.023610652032333857,0.0761931268847303,5.0
0.4966925514845528,-0.253617923141672,-0.6378586538335627,0.08472394099966966,-0.04134618072917932,0.09596761649755894,5.0
0.5072386964907595,-0.23414472057414668,-0.6211082146037449,0.08731115753417971,-0.024292788231434655,0.07723389016403383,5.0
0.48966162404944324,-0.2263554378427846,-0.6713595689444203,0.06557850456410556,0.0009462344955944942,0.14176116905206826,5.0
0.4931770877669983,-0.2263554378427846,-0.6657760851287897,0.12301481387079787,0.013906813958659467,0.18963625451215357,5.0
0.47208430546166624,-0.2263554378427846,-0.6490256214648238,0.14888701708277585,-0.016107159042131447,0.15737260554768287,5.0
0.46505337802655383,-0.17961974997637195,-0.6546091174975285,0.10128215458957747,-0.04271045312738092,0.15737260554768287,5.0
0.46505337802655383,-0.18351439027683303,-0.6434421498662672,0.0924856032254923,-0.050896083356665414,0.1053344796643215,5.0
0.4826306966143303,-0.1679358290749888,-0.6434421498662672,0.06040405887279297,-0.0263391947487745,0.09804914305616594,5.0
0.47911523289677577,-0.1874090305772941,-0.6434421498662672,0.05264239664697033,-0.0270213309478753,0.06578550361214872,5.0
0.5002077690556499,-0.1757251096759109,-0.6155247185710402,0.05264239664697033,0.03096020645640413,0.022073474442761917,5.0
0.48966162404944324,-0.18351439027683303,-0.6378586538335627,0.04436328985201641,0.05210641614875359,0.07827465344333731,5.0
0.47911523289677577,-0.18351439027683303,-0.6378586538335627,0.041258622437228866,0.01595322047599931,0.12198667943923962,5.0
0.4861461603318859,-0.2068822363404793,-0.5987742793412223,0.0650610599949743,0.06915980864649823,0.05850016383050865,5.0
0.4861461603318859,-0.2068822363404793,-0.5987742793412223,0.0733401667899282,0.052788552347854394,0.06370397705354171,5.0
0.47911523289677577,-0.1757251096759109,-0.5708568480459952,0.0697180548060094,0.011860406401338345,0.03248110088882799,5.0
0.4931770877669983,-0.1679358290749888,-0.5764403440786999,0.08006693987748834,0.05006000755145119,0.029358812637659718,5.0
0.4966925514845528,-0.1990929557395572,-0.5764403440786999,0.16544524329497612,0.01663535667510011,0.01895118698496477,5.0
0.4755997691792207,-0.1990929557395572,-0.531772473553655,0.22495132456704722,0.04119224528299102,0.0761931268847303,5.0
0.5072386964907595,-0.1757251096759109,-0.5429394411849162,0.25910265350741785,0.1025844574428868,0.09700837977686244,5.0
0.4966925514845528,-0.1601465484740667,-0.5429394411849162,0.23892230900015257,0.10190232124378598,0.1656987117821109,5.0
0.4826306966143303,-0.1679358290749888,-0.5429394411849162,0.1913174465069541,0.04392078591946911,0.1646579485028074,5.0
0.46505337802655383,-0.1601465484740667,-0.5541064088161776,0.15716613018887599,0.05960991017893729,0.10637524294362502,5.0
0.41935234969833857,-0.16404118877452775,-0.5373559451522117,0.09662515977854239,-0.0263391947487745,0.05954092710981218,5.0
0.4123214222632276,-0.1601465484740667,-0.503855042258428,0.11991014645601031,-0.06249239042152878,0.08660075333079637,5.0
0.5213005513609792,-0.12120013694769621,-0.5764403440786999,0.03297951564227497,0.0227745783070822,0.08451922677218934,5.0
0.4755997691792207,-0.12898942607037828,-0.6099412469724836,-0.03118356832976403,0.00776759232667738,0.11053829606083902,5.0
0.47911523289677577,-0.17961974997637195,-0.6155247185710402,-0.0632651111046768,-0.031114146062517542,-0.01435321494498484,5.0
0.48966162404944324,-0.20298759604001823,-0.5931907833085178,-0.08241054754024091,0.004356913411135935,-0.03724999439572399,5.0
0.4861461603318859,-0.20298759604001823,-0.676943052760051,-0.0606778882590205,-0.04543899792378411,-0.017475504782895356,5.0
0.5142696239258696,-0.2068822363404793,-0.7216109232850958,-0.055503445723281024,0.07188835344290145,0.005421273081101553,5.0
0.3877131762403416,-0.1990929557395572,-0.5987742793412223,-0.0725791070378932,0.029595936138165087,-0.03100541789338745,5.0
0.3947441036754517,-0.19130367087775513,-0.5987742793412223,-0.09741642742275491,-0.04953181095846381,-0.016434741503591848,5.0
0.4545069868738892,-0.2224607975423235,-0.6099412469724836,-0.08241054754024091,-0.08568500871118062,0.030399575916963222,5.0
0.4966925514845528,-0.2068822363404793,-0.6099412469724836,-0.048776672635720913,-0.08636713659043121,-0.001864065113796246,5.0
0.48966162404944324,-0.21077687664094039,-0.5764403440786999,-0.043084785530850184,-0.10683121424360498,-0.01227169155986232,5.0
0.47911523289677577,-0.24972328177599093,-0.632275182235006,-0.0027241351720902218,-0.08773140898863281,0.08139694328124783,5.0
0.5037232327732044,-0.23414472057414668,-0.6099412469724836,0.06143894801105547,-0.06726733965530926,0.10741600622292852,5.0
0.5353624062312011,-0.21467151694140144,-0.587607311709961,0.08886349124157347,0.04528505831767069,0.09908990633546945,5.0
0.4545069868738892,-0.20298759604001823,-0.5485229127834729,0.05936916973453046,0.03232447885460573,0.08243770656055134,5.0
0.45802245059144425,-0.19130367087775513,-0.5373559451522117,0.027805073106535502,0.025503121023522844,0.027277287665794955,5.0
0.46505337802655383,-0.1874090305772941,-0.5429394411849162,-0.015660240919768934,0.026185257222623638,-0.035168467837116975,5.0
0.5037232327732044,-0.2068822363404793,-0.587607311709961,-0.023421904526154818,0.019363899391540745,-0.0663913471753152,5.0
0.5037232327732044,-0.2068822363404793,-0.587607311709961,-0.008416021882514309,0.06984194484559905,-0.061187530778797655,5.0
0.4755997691792207,-0.16404118877452775,-0.5764403440786999,0.0019328620056247086,0.08143825191046243,-0.0539021941706421,5.0
0.4404451320036701,-0.1601465484740667,-0.5652733764474388,-0.03273590045937125,0.05142427994965279,-0.10906261623888296,5.0
0.4404451320036701,-0.1601465484740667,-0.5652733764474388,-0.012555575575826242,0.050742143750551985,-0.07263592050416723,5.0
0.46505337802655383,-0.1874090305772941,-0.5987742793412223,-0.02290445995702356,0.035053023651008916,-0.02996465461408395,5.0
0.4861461603318859,-0.21467151694140144,-0.5987742793412223,0.008142193679626696,0.01595322047599931,0.0012582231373720215,5.0
0.4861461603318859,-0.21467151694140144,-0.5987742793412223,0.025217853416452326,0.03027807025730334,-0.04661685756248657,5.0
0.4826306966143303,-0.1990929557395572,-0.6378586538335627,0.04074117786809761,0.056199229183433286,-0.03829075450154301,5.0
0.47208430546166624,-0.21856615724186249,-0.6155247185710402,0.05315984121610159,0.07120621724380063,-0.09449193032863391,5.0
0.47208430546166624,-0.21856615724186249,-0.6155247185710402,0.06764827652948435,0.03300661505370652,-0.07367668378347075,5.0
0.47208430546166624,-0.2224607975423235,-0.5708568480459952,0.08006693987748834,0.023456714506182995,-0.0507799043327316,5.0
0.47911523289677577,-0.24582864147552985,-0.587607311709961,0.11318337336845019,0.040510109083890224,0.017910424102346827,5.0
0.47911523289677577,-0.24582864147552985,-0.587607311709961,0.16234057588018852,0.03778156428748702,0.016869661616414445,5.0
0.4755997691792207,-0.2068822363404793,-0.49827154622572345,0.19597444131798927,0.014588950157760265,0.12614973255645362,5.0
0.47208430546166624,-0.17183046937544988,-0.5596898804147341,0.1638929032764361,0.00776759232667738,0.1521688018451033,5.0
0.4755997691792207,-0.15235726787314458,-0.5541064088161776,0.11628804078323773,-0.021564245514994012,0.17922862171911852,5.0
0.4545069868738892,-0.11341085634677409,-0.5987742793412223,0.06609594913323683,-0.04612112996295981,0.1480057487278893,5.0
0.45099152315633473,-0.09004301454400776,-0.5429394411849162,-0.0368754538568482,-0.07749937432197103,0.11678286938969108,5.0
0.46153791430899876,-0.06667517274124146,-0.5820238156772566,-0.12742819349892923,-0.09796345197514482,0.09492685321825542,5.0
0.46505337802655383,-0.09783229514492987,-0.5485229127834729,-0.1807249525637177,-0.11228829551656117,-0.004986353364964522,5.0
0.47208430546166624,-0.13677870667130038,-0.5429394411849162,-0.20659715577569576,-0.09250636238233842,-0.08408431022953682,5.0
0.4826306966143303,-0.17183046937544988,-0.5820238156772566,-0.20142272270667558,-0.06249239042152878,-0.12987786913101512,5.0
0.4826306966143303,-0.18351439027683303,-0.5764403440786999,-0.20142272270667558,-0.04271045312738092,-0.15485616244642333,5.0
0.4685688417441112,-0.19130367087775513,-0.5987742793412223,-0.18538194737475278,-0.03247841638075658,-0.14132625250941575,5.0
0.47911523289677577,-0.21077687664094039,-0.5820238156772566,-0.15330040933319972,-0.00246444415995163,-0.1267555792931046,5.0
0.47911523289677577,-0.2263554378427846,-0.6099412469724836,-0.1098350907707589,-0.01883570175857209,-0.07367668378347075,5.0
0.4826306966143303,-0.23803936087460775,-0.6099412469724836,-0.05446855658501851,0.005039048570255459,-0.08200278367092981,5.0
0.47911523289677577,-0.24193400117506877,-0.6266916862023014,0.026770183968272982,-0.0017823084808414695,-0.035168467837116975,5.0
0.47911523289677577,-0.21856615724186249,-0.6657760851287897,0.056264508630889144,0.0029926420529156144,0.006462035567033934,5.0
0.4861461603318859,-0.20298759604001823,-0.632275182235006,0.05264239664697033,0.013906813958659467,0.016869661616414445,5.0
0.47911523289677577,-0.19519831117821618,-0.6490256214648238,0.052124952077839064,-0.015425022843030649,0.03872567580442229,5.0
0.47208430546166624,-0.19519831117821618,-0.6099412469724836,0.025217853416452326,-0.012696480126590004,0.04392948744071307,5.0
0.47208430546166624,-0.17961974997637195,-0.6099412469724836,0.017973632604187814,-0.00860366579193372,0.031440337609524485,5.0
0.47208430546166624,-0.1757251096759109,-0.604357750939779,0.005037527842625697,-0.0092858017310392,0.024154999414626684,5.0
0.47911523289677577,-0.17961974997637195,-0.5987742793412223,-0.0037590235214594596,-0.012696480126590004,0.026236524386491447,5.0
0.47911523289677577,-0.17961974997637195,-0.6211082146037449,-0.011520687127845344,-0.00860366579193372,-0.007067878336829284,5.0
0.47911523289677577,-0.17183046937544988,-0.604357750939779,-0.0022066913918522427,0.0023105058538148153,-0.034127704557813485,5.0
0.47911523289677577,-0.19519831117821618,-0.5931907833085178,0.013834079206710865,-0.0011001725417359898,-0.01851626488871437,5.0
0.48966162404944324,-0.21077687664094039,-0.6434421498662672,0.0324620710731437,0.01799962907330171,-0.019557028168017875,5.0
0.4826306966143303,-0.19519831117821618,-0.6099412469724836,0.03970628872983509,0.012542541560457867,0.005421273081101553,5.0
0.47911523289677577,-0.1874090305772941,-0.587607311709961,0.03556673848793127,0.0023105058538148153,0.01166584869089558,5.0
0.4755997691792207,-0.19519831117821618,-0.5596898804147341,0.012799191646234909,-0.003146579839061792,0.0022989856233044024,5.0
0.4755997691792207,-0.1990929557395572,-0.5931907833085178,0.029357406813929274,-0.014742887683911122,0.007502798449651878,5.0
0.47911523289677577,-0.17961974997637195,-0.5987742793412223,0.028322517675666754,-0.007921530112823557,0.007502798449651878,5.0
0.47208430546166624,-0.1601465484740667,-0.6155247185710402,0.0324620710731437,-0.003146579839061792,0.0470517772786236,5.0
0.4755997691792207,-0.1679358290749888,-0.5987742793412223,0.0034851957130184914,-0.0092858017310392,0.01895118698496477,5.0
0.47911523289677577,-0.1757251096759109,-0.5652733764474388,-0.007898577707829691,-0.015425022843030649,0.013747373861103125,5.0
0.4755997691792207,-0.1757251096759109,-0.6099412469724836,-0.005828801009091215,-0.012014344447479843,0.01895118698496477,5.0
0.47911523289677577,-0.18351439027683303,-0.587607311709961,-0.006863689358460453,-0.022246380674113532,0.004380510595169171,5.0
0.47208430546166624,-0.18351439027683303,-0.604357750939779,0.009694525809233915,-0.0092858017310392,0.04913330066374612,5.0
0.4826306966143303,-0.1757251096759109,-0.6099412469724836,0.00762474911049544,-0.020882109315893214,0.05850016383050865,5.0
0.47911523289677577,-0.1679358290749888,-0.6099412469724836,0.014868968344973381,-0.01883570175857209,0.023114236928694302,5.0
0.4826306966143303,-0.16404118877452775,-0.6378586538335627,0.005554972411756967,-0.01815356659945257,0.013747373861103125,5.0
0.47208430546166624,-0.16404118877452775,-0.604357750939779,0.0019328620056247086,-0.029067737465215147,0.03560338755325401,5.0
0.47911523289677577,-0.18351439027683303,-0.5596898804147341,-0.011003242953160724,-0.014060751484810327,0.026236524386491447,5.0
0.4826306966143303,-0.17183046937544988,-0.5987742793412223,-0.01876490616509997,-0.020882109315893214,0.021032711956829535,5.0
0.45802245059144425,-0.17961974997637195,-0.5931907833085178,-0.02756145792363177,0.00026409881648433125,-0.021638554726624896,5.0
0.45802245059144425,-0.17183046937544988,-0.5987742793412223,-0.03118356832976403,0.007085456127576578,-0.004986353364964522,5.0
0.46505337802655383,-0.17183046937544988,-0.5987742793412223,-0.03221845589023997,-0.013378616325690804,-0.02059779144732138,5.0
0.47208430546166624,-0.1874090305772941,-0.5820238156772566,-0.04618944979006461,-0.0045108513922786034,-0.00914940330869405,5.0
0.47208430546166624,-0.18351439027683303,-0.5987742793412223,-0.0368754538568482,0.009131863684897702,-0.0039455900856610136,5.0
0.4755997691792207,-0.17961974997637195,-0.6378586538335627,-0.04411967466911269,0.02004603559064156,-0.03724999439572399,5.0
0.47208430546166624,-0.17961974997637195,-0.5820238156772566,-0.03739289842597945,-0.009967937410149359,-0.0362092311164205,5.0
0.47911523289677577,-0.19519831117821618,-0.5820238156772566,-0.04463711608267084,-0.007921530112823557,-0.02684236794965792,5.0
0.47911523289677577,-0.1990929557395572,-0.632275182235006,-0.03635800928771692,-0.016107159042131447,-0.013312453252423577,5.0
0.47911523289677577,-0.17961974997637195,-0.5987742793412223,-0.026009125794024552,0.010496135043118023,0.00854356093558426,5.0
0.48966162404944324,-0.1990929557395572,-0.6211082146037449,-0.01721257364104611,-0.012014344447479843,-0.013312453252423577,5.0
0.47911523289677577,-0.19519831117821618,-0.6099412469724836,-0.01721257364104611,0.005721184769356258,0.004380510595169171,5.0
0.4826306966143303,-0.19130367087775513,-0.6099412469724836,-0.007898577707829691,0.0016283701747046551,-0.025801604670354427,5.0
0.48966162404944324,-0.19130367087775513,-0.6099412469724836,0.0008979744451487508,0.010496135043118023,0.0012582231373720215,5.0
0.48966162404944324,-0.18351439027683303,-0.6099412469724836,-0.006346244789329196,-0.006557258624605575,0.009584323421516643,5.0
0.4861461603318859,-0.17961974997637195,-0.604357750939779,0.008142193679626696,-0.0058751228804965845,0.019991949470897153,5.0
0.47208430546166624,-0.1990929557395572,-0.632275182235006,0.010729414947496437,-0.003146579839061792,0.04601101399932008,5.0
0.4861461603318859,-0.21077687664094039,-0.5987742793412223,0.006589859972232922,0.013224677759558667,0.004380510595169171,5.0
0.46505337802655383,-0.1874090305772941,-0.5931907833085178,0.015903857483235907,0.003674777212035137,-0.0039455900856610136,5.0
0.4685688417441112,-0.19130367087775513,-0.587607311709961,0.010211970378365168,-0.0011001725417359898,-0.019557028168017875,5.0
0.47911523289677577,-0.1874090305772941,-0.6099412469724836,0.010211970378365168,-0.0092858017310392,0.03768491411186102,5.0
0.4826306966143303,-0.1990929557395572,-0.5987742793412223,0.013834079206710865,-0.0011001725417359898,0.025195762693930188,5.0
0.4861461603318859,-0.1874090305772941,-0.5987742793412223,0.01124685951662769,0.017317492874200917,0.0002174598580685164,5.0
0.4755997691792207,-0.1874090305772941,-0.6099412469724836,0.026770183968272982,0.0227745783070822,-0.0039455900856610136,5.0
0.47208430546166624,-0.18351439027683303,-0.6266916862023014,0.03297951564227497,0.01799962907330171,0.01895118698496477,5.0
0.4861461603318859,-0.17183046937544988,-0.5987742793412223,0.03453184934966874,0.02823166373996349,-0.01227169155986232,5.0
0.4826306966143303,-0.1679358290749888,-0.5820238156772566,0.026252742554714832,0.015271084276898512,-0.001864065113796246,5.0
0.48966162404944324,-0.17961974997637195,-0.5987742793412223,0.029357406813929274,0.019363899391540745,-0.007067878336829284,5.0
0.47911523289677577,-0.1601465484740667,-0.5820238156772566,0.015386412914104634,0.034370887451908125,-0.0008233018344927438,5.0
0.47911523289677577,-0.1601465484740667,-0.5820238156772566,0.009694525809233915,0.019363899391540745,-0.002904826806357509,5.0
0.4755997691792207,-0.18351439027683303,-0.5820238156772566,-0.006863689358460453,-0.00246444415995163,0.01895118698496477,5.0
0.47208430546166624,-0.1679358290749888,-0.5987742793412223,-0.008933466057198929,0.005039048570255459,0.01582889913048206,5.0
0.4755997691792207,-0.17961974997637195,-0.5987742793412223,-0.007898577707829691,0.00640332096845706,0.0002174598580685164,5.0
0.47911523289677577,-0.18351439027683303,-0.6266916862023014,-0.01307301979981669,0.023456714506182995,-0.011230928280558815,5.0
0.47911523289677577,-0.19130367087775513,-0.6099412469724836,-0.005828801009091215,0.03164234265550492,-0.006027115057525776,5.0
0.47208430546166624,-0.17961974997637195,-0.6099412469724836,-0.007898577707829691,0.02004603559064156,-0.011230928280558815,5.0
0.47208430546166624,-0.1874090305772941,-0.5429394411849162,-0.001689246822720984,0.023456714506182995,-0.00914940330869405,5.0
0.47208430546166624,-0.1874090305772941,-0.5764403440786999,0.004520083273494446,0.02004603559064156,-0.0247608413910509,5.0
0.4755997691792207,-0.1990929557395572,-0.587607311709961,0.0029677511438872266,0.021410305908880604,-0.007067878336829284,5.0
0.47208430546166624,-0.19130367087775513,-0.5708568480459952,-0.001689246822720984,0.023456714506182995,-0.001864065113796246,5.0
0.46505337802655383,-0.17183046937544988,-0.5931907833085178,-0.01721257364104611,0.0009462344955944942,-0.022679318005928397,5.0
0.47208430546166624,-0.19130367087775513,-0.5429394411849162,-0.01773001781573073,0.0009462344955944942,-0.006027115057525776,5.0
0.4685688417441112,-0.18351439027683303,-0.5764403440786999,-0.03118356832976403,0.011178271242218821,-0.015393978224288344,5.0
0.47911523289677577,-0.1757251096759109,-0.5820238156772566,-0.007381133138698432,-0.0038287156481696125,0.006462035567033934,5.0
0.4685688417441112,-0.1757251096759109,-0.5820238156772566,0.004002640282149747,0.005039048570255459,-0.01019016500125531,5.0
0.46505337802655383,-0.1679358290749888,-0.5708568480459952,-0.007381133138698432,-0.012014344447479843,0.010625086105791806,5.0
0.48966162404944324,-0.17961974997637195,-0.5764403440786999,-0.007381133138698432,-0.00860366579193372,0.039766437496983546,5.0
0.48966162404944324,-0.19519831117821618,-0.5652733764474388,-0.0006543584733517475,-0.022246380674113532,0.04497025072001658,5.0
0.4861461603318859,-0.1874090305772941,-0.5708568480459952,-0.011003242953160724,0.0023105058538148153,0.03560338755325401,5.0
0.47911523289677577,-0.1874090305772941,-0.6155247185710402,-0.019799794908915848,0.011860406401338345,0.01895118698496477,5.0
0.47911523289677577,-0.1874090305772941,-0.632275182235006,-0.0037590235214594596,0.0023105058538148153,-0.01435321494498484,5.0
0.47911523289677577,-0.1679358290749888,-0.6211082146037449,-0.0006543584733517475,0.007085456127576578,-0.015393978224288344,5.0
0.46505337802655383,-0.1874090305772941,-0.5820238156772566,0.015903857483235907,0.017317492874200917,-0.01435321494498484,5.0
0.46505337802655383,-0.18351439027683303,-0.5708568480459952,0.016421302052367158,0.005039048570255459,0.006462035567033934,5.0
0.4685688417441112,-0.17961974997637195,-0.5652733764474388,0.0014154190142800097,0.01595322047599931,0.006462035567033934,5.0
0.47911523289677577,-0.17961974997637195,-0.5931907833085178,0.00038052987601749184,0.010496135043118023,-0.0039455900856610136,5.0
0.47911523289677577,-0.1874090305772941,-0.5373559451522117,-0.006346244789329196,0.00776759232667738,0.0002174598580685164,5.0
0.4826306966143303,-0.17961974997637195,-0.6378586538335627,0.00607241698088822,0.013906813958659467,-0.007067878336829284,5.0
0.47911523289677577,-0.17961974997637195,-0.5987742793412223,0.014351523775842118,0.0227745783070822,-0.007067878336829284,5.0
0.4755997691792207,-0.1874090305772941,-0.5764403440786999,0.008659638248757963,0.014588950157760265,-0.011230928280558815,5.0
0.4755997691792207,-0.1874090305772941,-0.5764403440786999,0.0014154190142800097,0.009813998844017223,0.010625086105791806,5.0
0.46505337802655383,-0.17183046937544988,-0.5820238156772566,-0.0022066913918522427,-0.015425022843030649,0.010625086105791806,5.0
0.46505337802655383,-0.1679358290749888,-0.5820238156772566,-0.008933466057198929,-0.009967937410149359,0.024154999414626684,5.0
0.4755997691792207,-0.1679358290749888,-0.5541064088161776,-0.015142796745084315,-0.006557258624605575,0.01166584869089558,5.0
0.4755997691792207,-0.18351439027683303,-0.5708568480459952,-0.01773001781573073,0.005721184769356258,0.0012582231373720215,5.0
0.46505337802655383,-0.1757251096759109,-0.5764403440786999,-0.03170101132110873,-0.0092858017310392,-0.0008233018344927438,5.0
0.47208430546166624,-0.17961974997637195,-0.5708568480459952,-0.03584056629637224,-0.0011001725417359898,-0.008108640029390548,5.0
0.47208430546166624,-0.1874090305772941,-0.503855042258428,-0.019282350339784586,0.011860406401338345,-0.001864065113796246,5.0
0.47208430546166624,-0.18351439027683303,-0.5373559451522117,-0.010485798581252787,0.02209244210798139,0.003339748109236785,5.0
0.4861461603318859,-0.1679358290749888,-0.5596898804147341,0.004002640282149747,0.03300661505370652,-0.01227169155986232,5.0
0.47911523289677577,-0.1601465484740667,-0.6211082146037449,0.00762474911049544,0.013224677759558667,-0.017475504782895356,5.0
0.47208430546166624,-0.1757251096759109,-0.5931907833085178,0.0014154190142800097,0.02004603559064156,0.009584323421516643,5.0
0.46153791430899876,-0.1601465484740667,-0.5987742793412223,0.01176430250797239,0.025503121023522844,-0.022679318005928397,5.0
0.47208430546166624,-0.15235726787314458,-0.5596898804147341,-0.020834683258285084,0.025503121023522844,-0.017475504782895356,5.0
0.4685688417441112,-0.14067334697176143,-0.5708568480459952,-0.019799794908915848,0.013906813958659467,-0.013312453252423577,5.0
0.4755997691792207,-0.15235726787314458,-0.604357750939779,-0.015660240919768934,0.02209244210798139,-0.011230928280558815,5.0
0.47911523289677577,-0.15235726787314458,-0.5931907833085178,-0.025491681224893294,0.00026409881648433125,-0.0039455900856610136,5.0
0.4685688417441112,-0.15625190817360565,-0.604357750939779,-0.05136389232580408,-0.0011001725417359898,-0.006027115057525776,5.0
0.4685688417441112,-0.16404118877452775,-0.5708568480459952,-0.03066612376063277,-0.009967937410149359,-0.02996465461408395,5.0
0.47911523289677577,-0.17961974997637195,-0.5987742793412223,-0.03273590045937125,-0.007921530112823557,-0.019557028168017875,5.0
0.4755997691792207,-0.1679358290749888,-0.587607311709961,-0.014625352471788037,-0.012696480126590004,0.004380510595169171,5.0
0.4966925514845528,-0.16404118877452775,-0.5820238156772566,-0.012555575575826242,-0.013378616325690804,-0.0039455900856610136,5.0
0.47208430546166624,-0.1679358290749888,-0.6155247185710402,-0.024456792875524058,0.005721184769356258,-0.0247608413910509,5.0
0.47911523289677577,-0.17961974997637195,-0.5764403440786999,-0.023421904526154818,0.01595322047599931,-0.0008233018344927438,5.0
0.47208430546166624,-0.17961974997637195,-0.5820238156772566,-0.016177685094453553,-0.019517837957672892,0.004380510595169171,5.0
0.4755997691792207,-0.1601465484740667,-0.6099412469724836,-0.051881336894935334,-0.006557258624605575,-0.011230928280558815,5.0
0.45802245059144425,-0.15235726787314458,-0.5931907833085178,-0.055503445723281024,-0.033160552579857394,0.0012582231373720215,5.0
0.47208430546166624,-0.1757251096759109,-0.5820238156772566,-0.045154560651802095,-0.022246380674113532,0.039766437496983546,5.0
0.47911523289677577,-0.1601465484740667,-0.5820238156772566,-0.043084785530850184,-0.015425022843030649,0.026236524386491447,5.0
0.4861461603318859,-0.17961974997637195,-0.5764403440786999,-0.023421904526154818,-0.009967937410149359,0.003339748109236785,5.0
0.4861461603318859,-0.17961974997637195,-0.5764403440786999,-0.011520687127845344,-0.00041803686262582976,0.004380510595169171,5.0
0.47911523289677577,-0.17961974997637195,-0.5708568480459952,0.009694525809233915,-0.0017823084808414695,0.03352186258138925,5.0
0.46153791430899876,-0.17961974997637195,-0.604357750939779,0.00762474911049544,0.010496135043118023,0.013747373861103125,5.0
0.47208430546166624,-0.17183046937544988,-0.6099412469724836,0.0324620710731437,0.0023105058538148153,0.007502798449651878,5.0
0.4685688417441112,-0.19519831117821618,-0.6099412469724836,0.02366551970905855,-0.00041803686262582976,0.05641864044538616,5.0
0.47208430546166624,-0.1757251096759109,-0.5820238156772566,0.03970628872983509,0.009813998844017223,0.025195762693930188,5.0
0.47208430546166624,-0.17183046937544988,-0.5987742793412223,0.029874851383060532,0.003674777212035137,0.04392948744071307,5.0
0.47911523289677577,-0.15235726787314458,-0.6378586538335627,0.012799191646234909,0.005721184769356258,0.03872567580442229,5.0
0.4545069868738892,-0.15235726787314458,-0.5987742793412223,-0.0022066913918522427,0.003674777212035137,0.013747373861103125,5.0
0.45802245059144425,-0.1601465484740667,-0.5596898804147341,0.00607241698088822,-0.023610652032333857,0.01582889913048206,5.0
0.47208430546166624,-0.1679358290749888,-0.5485229127834729,0.0029677511438872266,-0.011332208768369682,0.027277287665794955,5.0
0.45802245059144425,-0.1601465484740667,-0.5373559451522117,0.016938746621498413,-0.015425022843030649,0.03352186258138925,5.0
0.4755997691792207,-0.1679358290749888,-0.6099412469724836,-0.019282350339784586,-0.022246380674113532,0.027277287665794955,5.0
0.47208430546166624,-0.1757251096759109,-0.5596898804147341,-0.020317238689153826,-0.044756861724683315,0.04288872733489406,5.0
0.48966162404944324,-0.1679358290749888,-0.587607311709961,-0.02859634706189429,-0.01065007308925952,0.03872567580442229,5.0
0.47911523289677577,-0.17961974997637195,-0.5764403440786999,0.004520083273494446,-0.021564245514994012,0.028318049358356214,5.0
0.4826306966143303,-0.19130367087775513,-0.5987742793412223,0.008659638248757963,0.00026409881648433125,0.03560338755325401,5.0
0.47911523289677577,-0.17961974997637195,-0.6378586538335627,0.019008521742450334,0.009131863684897702,0.026236524386491447,5.0
0.47911523289677577,-0.1679358290749888,-0.5931907833085178,0.038671402747145686,0.023456714506182995,0.03456262586069275,5.0
0.4755997691792207,-0.1757251096759109,-0.587607311709961,0.033496960211406225,0.012542541560457867,-0.002904826806357509,5.0
0.47911523289677577,-0.17183046937544988,-0.6434421498662672,0.019008521742450334,0.014588950157760265,-0.002904826806357509,5.0
0.47911523289677577,-0.17961974997637195,-0.6378586538335627,-0.007381133138698432,0.0016283701747046551,0.03248110088882799,5.0
0.47208430546166624,-0.17961974997637195,-0.5652733764474388,0.007107304541364172,-0.00041803686262582976,0.006462035567033934,5.0
0.45802245059144425,-0.1679358290749888,-0.5708568480459952,0.014868968344973381,-0.00246444415995163,0.01582889913048206,5.0
0.46505337802655383,-0.16404118877452775,-0.5764403440786999,-0.012555575575826242,-0.007921530112823557,-0.01019016500125531,5.0
0.47208430546166624,-0.1601465484740667,-0.5820238156772566,-0.026526569574262533,-0.007921530112823557,-0.016434741503591848,5.0
0.47208430546166624,-0.1601465484740667,-0.5820238156772566,-0.04049756268519389,-0.020199973116792412,-0.019557028168017875,5.0
0.47208430546166624,-0.1757251096759109,-0.6099412469724836,-0.03221845589023997,-0.028385603346076902,-0.01851626488871437,5.0
0.47208430546166624,-0.1757251096759109,-0.6099412469724836,-0.025491681224893294,-0.01883570175857209,-0.013312453252423577,5.0
0.47208430546166624,-0.18351439027683303,-0.5820238156772566,-0.02704401335450051,-0.013378616325690804,0.014788136446206898,5.0
0.4861461603318859,-0.1679358290749888,-0.5652733764474388,-0.020834683258285084,-0.006557258624605575,0.014788136446206898,5.0
0.47208430546166624,-0.17961974997637195,-0.5708568480459952,-0.016177685094453553,-0.012014344447479843,-0.011230928280558815,5.0
0.4826306966143303,-0.1757251096759109,-0.5987742793412223,-0.01824746199041535,-0.016789295241232245,-0.03100541789338745,5.0
0.4826306966143303,-0.1601465484740667,-0.587607311709961,-0.014107908247797589,-0.0011001725417359898,-0.008108640029390548,5.0
0.4685688417441112,-0.1679358290749888,-0.5931907833085178,-0.006346244789329196,-0.012014344447479843,-0.002904826806357509,5.0
0.47208430546166624,-0.1757251096759109,-0.5708568480459952,0.004002640282149747,-0.01883570175857209,-0.015393978224288344,5.0
0.48966162404944324,-0.17961974997637195,-0.5987742793412223,-0.015142796745084315,-0.0011001725417359898,0.026236524386491447,5.0
0.47911523289677577,-0.17961974997637195,-0.5708568480459952,-0.014625352471788037,-0.013378616325690804,0.019991949470897153,5.0
0.48966162404944324,-0.17961974997637195,-0.5429394411849162,-0.0037590235214594596,-0.0058751228804965845,0.019991949470897153,5.0
0.47208430546166624,-0.1874090305772941,-0.5708568480459952,-0.005311356439959956,-0.006557258624605575,-0.002904826806357509,5.0
0.47208430546166624,-0.1874090305772941,-0.5708568480459952,-0.005311356439959956,-0.012696480126590004,-0.01019016500125531,5.0
0.47208430546166624,-0.19519831117821618,-0.6099412469724836,0.010729414947496437,-0.020882109315893214,0.0002174598580685164,5.0
0.47911523289677577,-0.1874090305772941,-0.5652733764474388,-0.0027241351720902218,-0.0011001725417359898,0.006462035567033934,5.0
0.47911523289677577,-0.1874090305772941,-0.5652733764474388,0.0029677511438872266,-0.0045108513922786034,0.013747373861103125,5.0
0.4861461603318859,-0.17961974997637195,-0.5820238156772566,-0.001171802253589725,0.011860406401338345,0.00854356093558426,5.0
0.47208430546166624,-0.17961974997637195,-0.5652733764474388,0.014351523775842118,-0.013378616325690804,0.004380510595169171,5.0
0.47208430546166624,-0.17961974997637195,-0.5652733764474388,0.015903857483235907,0.0023105058538148153,0.014788136446206898,5.0
0.47911523289677577,-0.1874090305772941,-0.5541064088161776,0.008659638248757963,0.0023105058538148153,0.013747373861103125,5.0
0.47911523289677577,-0.17961974997637195,-0.5820238156772566,0.010211970378365168,0.007085456127576578,-0.0008233018344927438,5.0
0.4826306966143303,-0.17183046937544988,-0.5987742793412223,0.0014154190142800097,0.0009462344955944942,-0.007067878336829284,5.0
0.47911523289677577,-0.17183046937544988,-0.587607311709961,0.005554972411756967,0.0009462344955944942,0.010625086105791806,5.0
0.4861461603318859,-0.17961974997637195,-0.587607311709961,-0.00013691469311376712,-0.00246444415995163,0.0022989856233044024,5.0
0.47208430546166624,-0.1601465484740667,-0.5931907833085178,0.005554972411756967,0.01663535667510011,-0.006027115057525776,5.0
0.4755997691792207,-0.1601465484740667,-0.5987742793412223,-0.009450910231883549,0.02482098482442203,-0.01227169155986232,5.0
0.47208430546166624,-0.18351439027683303,-0.5541064088161776,-0.004793911870828696,0.01595322047599931,-0.016434741503591848,5.0
0.4861461603318859,-0.1874090305772941,-0.5541064088161776,-0.001689246822720984,0.00776759232667738,-0.023720078111747412,5.0
0.4826306966143303,-0.19519831117821618,-0.6099412469724836,0.00607241698088822,0.005039048570255459,-0.02684236794965792,5.0
0.48966162404944324,-0.17961974997637195,-0.5820238156772566,0.03297951564227497,0.019363899391540745,-0.006027115057525776,5.0
0.4685688417441112,-0.1601465484740667,-0.5596898804147341,0.028322517675666754,0.03300661505370652,-0.0247608413910509,5.0
0.47208430546166624,-0.1601465484740667,-0.5820238156772566,0.013316634637579611,0.007085456127576578,-0.03308694127850995,5.0
0.46505337802655383,-0.1679358290749888,-0.5764403440786999,0.009694525809233915,0.011178271242218821,-0.02892389133478043,5.0
0.47911523289677577,-0.1601465484740667,-0.5987742793412223,-0.019282350339784586,-0.007921530112823557,-0.017475504782895356,5.0
0.47208430546166624,-0.15235726787314458,-0.587607311709961,-0.01824746199041535,0.009131863684897702,-0.04349456772457603,5.0
0.47911523289677577,-0.1601465484740667,-0.5931907833085178,-0.020834683258285084,0.005039048570255459,-0.0247608413910509,5.0
0.47208430546166624,-0.17961974997637195,-0.5708568480459952,-0.012555575575826242,-0.0058751228804965845,-0.015393978224288344,5.0
0.47911523289677577,-0.1757251096759109,-0.5764403440786999,-0.01876490616509997,0.02072817178974235,-0.001864065113796246,5.0
0.4755997691792207,-0.1601465484740667,-0.5485229127834729,0.00038052987601749184,0.018681763192439957,-0.025801604670354427,5.0
0.47208430546166624,-0.17183046937544988,-0.5596898804147341,-0.009968354406568167,0.017317492874200917,-0.025801604670354427,5.0
0.4685688417441112,-0.1679358290749888,-0.5596898804147341,-0.008933466057198929,0.01595322047599931,0.004380510595169171,5.0
0.47208430546166624,-0.1601465484740667,-0.5820238156772566,-0.008933466057198929,0.010496135043118023,-0.01851626488871437,5.0
0.46505337802655383,-0.15625190817360565,-0.5987742793412223,-0.007381133138698432,-0.00246444415995163,-0.0393315177808465,5.0
0.47911523289677577,-0.1757251096759109,-0.5987742793412223,-0.008933466057198929,0.00776759232667738,-0.019557028168017875,5.0
0.47911523289677577,-0.1679358290749888,-0.6099412469724836,-0.014107908247797589,0.00640332096845706,-0.015393978224288344,5.0
0.4755997691792207,-0.17961974997637195,-0.5931907833085178,0.005037527842625697,0.012542541560457867,-0.01019016500125531,5.0
0.47208430546166624,-0.17183046937544988,-0.5708568480459952,0.012281747077103642,0.03096020645640413,0.0022989856233044024,5.0
0.4755997691792207,-0.1679358290749888,-0.5820238156772566,0.02263063057079603,0.02072817178974235,0.009584323421516643,5.0
0.47208430546166624,-0.1679358290749888,-0.5596898804147341,0.00607241698088822,0.019363899391540745,0.010625086105791806,5.0
0.4685688417441112,-0.15625190817360565,-0.5429394411849162,0.008659638248757963,0.008449727485796905,0.014788136446206898,5.0
0.4685688417441112,-0.14846262757268353,-0.5708568480459952,0.00607241698088822,0.003674777212035137,0.024154999414626684,5.0
0.4755997691792207,-0.15235726787314458,-0.5764403440786999,0.00762474911049544,0.009131863684897702,0.0012582231373720215,5.0
0.47911523289677577,-0.16404118877452775,-0.5820238156772566,-0.0027241351720902218,0.029595936138165087,-0.025801604670354427,5.0
0.46505337802655383,-0.1679358290749888,-0.5820238156772566,0.0014154190142800097,0.02209244210798139,-0.021638554726624896,5.0
0.46153791430899876,-0.1601465484740667,-0.5764403440786999,-0.006346244789329196,-0.00041803686262582976,0.0002174598580685164,5.0
0.46505337802655383,-0.15625190817360565,-0.5708568480459952,-0.007898577707829691,0.018681763192439957,0.010625086105791806,5.0
0.47208430546166624,-0.16404118877452775,-0.5541064088161776,-0.010485798581252787,0.01799962907330171,-0.023720078111747412,5.0
0.47208430546166624,-0.16404118877452775,-0.5541064088161776,0.004002640282149747,0.011178271242218821,-0.002904826806357509,5.0
0.47208430546166624,-0.15625190817360565,-0.5541064088161776,0.00607241698088822,-0.0092858017310392,0.01895118698496477,5.0
0.4685688417441112,-0.15235726787314458,-0.5708568480459952,-0.005828801009091215,-0.0011001725417359898,-0.008108640029390548,5.0
0.4685688417441112,-0.15235726787314458,-0.5708568480459952,-0.015660240919768934,-0.01065007308925952,0.007502798449651878,5.0
0.47208430546166624,-0.14067334697176143,-0.5987742793412223,-0.02704401335450051,-0.012014344447479843,0.004380510595169171,5.0
0.47208430546166624,-0.14846262757268353,-0.5931907833085178,-0.03273590045937125,-0.014742887683911122,0.019991949470897153,5.0
0.4755997691792207,-0.15235726787314458,-0.5820238156772566,-0.01773001781573073,-0.019517837957672892,0.006462035567033934,5.0
0.47208430546166624,-0.15235726787314458,-0.5596898804147341,-0.01773001781573073,0.021410305908880604,-0.017475504782895356,5.0
0.47911523289677577,-0.15235726787314458,-0.5708568480459952,-0.010485798581252787,-0.012696480126590004,-0.021638554726624896,5.0
0.47208430546166624,-0.15625190817360565,-0.5764403440786999,-0.0022066913918522427,0.003674777212035137,0.003339748109236785,5.0
0.47208430546166624,-0.15625190817360565,-0.5596898804147341,0.0019328620056247086,-0.0038287156481696125,0.01166584869089558,5.0
0.4685688417441112,-0.15625190817360565,-0.5708568480459952,0.006589859972232922,-0.014742887683911122,0.036644150832557516,5.0
0.47208430546166624,-0.1601465484740667,-0.587607311709961,0.009694525809233915,-0.00041803686262582976,0.004380510595169171,5.0
0.47208430546166624,-0.15235726787314458,-0.5652733764474388,0.017456188035056563,-0.023610652032333857,0.003339748109236785,5.0
0.47208430546166624,-0.15625190817360565,-0.5708568480459952,0.010729414947496437,-0.012696480126590004,0.028318049358356214,5.0
0.47208430546166624,-0.15235726787314458,-0.5931907833085178,-0.006863689358460453,-0.006557258624605575,0.006462035567033934,5.0
0.47208430546166624,-0.15625190817360565,-0.5708568480459952,-0.0006543584733517475,-0.015425022843030649,0.030399575916963222,5.0
0.4755997691792207,-0.1445679872722225,-0.5652733764474388,0.004002640282149747,-0.00860366579193372,-0.006027115057525776,5.0
0.4861461603318859,-0.1601465484740667,-0.5596898804147341,-0.0022066913918522427,-0.01815356659945257,0.017910424102346827,5.0
0.48966162404944324,-0.1601465484740667,-0.5596898804147341,-0.00427646809059072,-0.0045108513922786034,0.021032711956829535,5.0
0.47911523289677577,-0.1679358290749888,-0.5708568480459952,-0.007381133138698432,-0.023610652032333857,0.005421273081101553,5.0
0.47208430546166624,-0.1757251096759109,-0.5596898804147341,-0.005828801009091215,0.004356913411135935,0.024154999414626684,5.0
0.4755997691792207,-0.17183046937544988,-0.5708568480459952,0.00038052987601749184,0.0016283701747046551,0.054337113886779136,5.0
0.47911523289677577,-0.1757251096759109,-0.587607311709961,-0.011003242953160724,-0.00860366579193372,0.025195762693930188,5.0
0.4826306966143303,-0.17183046937544988,-0.5708568480459952,0.009177081240102644,0.00026409881648433125,0.023114236928694302,5.0
0.4755997691792207,-0.16404118877452775,-0.587607311709961,0.012281747077103642,0.00640332096845706,0.013747373861103125,5.0
0.47208430546166624,-0.17183046937544988,-0.5987742793412223,0.010729414947496437,0.0023105058538148153,0.027277287665794955,5.0
0.47208430546166624,-0.1679358290749888,-0.5820238156772566,-0.010485798581252787,0.009131863684897702,0.013747373861103125,5.0
0.47208430546166624,-0.16404118877452775,-0.5708568480459952,-0.00013691469311376712,0.0009462344955944942,0.027277287665794955,5.0
0.4685688417441112,-0.16404118877452775,-0.5708568480459952,0.012799191646234909,-0.00246444415995163,0.009584323421516643,5.0
0.47208430546166624,-0.1601465484740667,-0.5541064088161776,0.024700408847321057,-0.0058751228804965845,0.005421273081101553,5.0
0.47208430546166624,-0.1601465484740667,-0.5541064088161776,0.008142193679626696,0.00026409881648433125,0.009584323421516643,5.0
0.47911523289677577,-0.1601465484740667,-0.5820238156772566,0.005037527842625697,0.008449727485796905,0.00854356093558426,5.0
0.4755997691792207,-0.15625190817360565,-0.5596898804147341,-0.00427646809059072,0.003674777212035137,-0.004986353364964522,5.0
0.47911523289677577,-0.16404118877452775,-0.5373559451522117,-0.005828801009091215,0.005039048570255459,0.0022989856233044024,5.0
0.47208430546166624,-0.16404118877452775,-0.587607311709961,-0.001171802253589725,0.014588950157760265,-0.00914940330869405,5.0
0.47911523289677577,-0.17183046937544988,-0.5708568480459952,0.008659638248757963,0.003674777212035137,-0.0008233018344927438,5.0
0.47208430546166624,-0.1679358290749888,-0.5987742793412223,0.016938746621498413,0.01663535667510011,-0.001864065113796246,5.0
0.4685688417441112,-0.15235726787314458,-0.5820238156772566,0.017456188035056563,0.00640332096845706,0.007502798449651878,5.0
0.4755997691792207,-0.1601465484740667,-0.5764403440786999,0.03556673848793127,0.02004603559064156,0.027277287665794955,5.0
0.46505337802655383,-0.14846262757268353,-0.5261889775209504,0.008659638248757963,-0.0045108513922786034,-0.01227169155986232,5.0
0.46505337802655383,-0.14846262757268353,-0.503855042258428,-0.0027241351720902218,-0.0092858017310392,0.01166584869089558,5.0
0.47911523289677577,-0.1601465484740667,-0.5652733764474388,-0.00427646809059072,-0.007921530112823557,0.005421273081101553,5.0
0.46505337802655383,-0.15625190817360565,-0.5596898804147341,0.005554972411756967,-0.01065007308925952,0.0022989856233044024,5.0
0.47208430546166624,-0.1601465484740667,-0.5764403440786999,-0.021352127038523062,0.0009462344955944942,0.022073474442761917,5.0
0.47911523289677577,-0.1757251096759109,-0.5931907833085178,-0.016177685094453553,-0.009967937410149359,0.041847964055590554,5.0
0.47208430546166624,-0.1874090305772941,-0.5708568480459952,-0.01307301979981669,-0.0017823084808414695,0.021032711956829535,5.0
0.4755997691792207,-0.17183046937544988,-0.6099412469724836,-0.005828801009091215,0.00640332096845706,0.03352186258138925,5.0
0.4755997691792207,-0.1679358290749888,-0.5541064088161776,0.0019328620056247086,-0.0058751228804965845,0.00854356093558426,5.0
0.4755997691792207,-0.17183046937544988,-0.5820238156772566,0.026770183968272982,0.0016283701747046551,-0.015393978224288344,5.0
0.4685688417441112,-0.1601465484740667,-0.6099412469724836,0.02573529798558358,0.0029926420529156144,0.01582889913048206,5.0
0.47208430546166624,-0.1679358290749888,-0.5820238156772566,0.019008521742450334,0.0029926420529156144,0.014788136446206898,5.0
0.47911523289677577,-0.1601465484740667,-0.5708568480459952,-0.0006543584733517475,0.010496135043118023,0.031440337609524485,5.0
0.47208430546166624,-0.1601465484740667,-0.6155247185710402,-0.006863689358460453,-0.00860366579193372,0.016869661616414445,5.0
0.47911523289677577,-0.1601465484740667,-0.587607311709961,-0.024456792875524058,-0.00041803686262582976,0.017910424102346827,5.0
0.47208430546166624,-0.18351439027683303,-0.5931907833085178,-0.01824746199041535,-0.021564245514994012,0.023114236928694302,5.0
0.46505337802655383,-0.1757251096759109,-0.5820238156772566,-0.008933466057198929,-0.00041803686262582976,0.017910424102346827,5.0
0.47208430546166624,-0.16404118877452775,-0.6211082146037449,-0.011520687127845344,-0.0011001725417359898,0.00854356093558426,5.0
0.47911523289677577,-0.17961974997637195,-0.632275182235006,-0.009450910231883549,0.007085456127576578,-0.03308694127850995,5.0
0.47208430546166624,-0.16404118877452775,-0.6099412469724836,-0.007381133138698432,0.009131863684897702,0.021032711956829535,5.0
0.46153791430899876,-0.1601465484740667,-0.5764403440786999,-0.012555575575826242,-0.014060751484810327,-0.008108640029390548,5.0
0.46505337802655383,-0.1601465484740667,-0.5764403440786999,-0.01307301979981669,-0.016789295241232245,0.023114236928694302,5.0
0.47911523289677577,-0.1601465484740667,-0.6099412469724836,-0.005311356439959956,-0.00041803686262582976,0.014788136446206898,5.0
0.47911523289677577,-0.1601465484740667,-0.6099412469724836,-0.001171802253589725,-0.00041803686262582976,0.021032711956829535,5.0
0.4755997691792207,-0.1601465484740667,-0.5541064088161776,-0.010485798581252787,0.007085456127576578,-0.0039455900856610136,5.0
0.47208430546166624,-0.1601465484740667,-0.5206055059223939,-0.0037590235214594596,0.003674777212035137,0.027277287665794955,5.0
0.47208430546166624,-0.1601465484740667,-0.5206055059223939,-0.0032415797412214792,-0.003146579839061792,0.021032711956829535,5.0
0.47911523289677577,-0.16404118877452775,-0.5764403440786999,-0.0027241351720902218,-0.011332208768369682,0.029358812637659718,5.0
0.4826306966143303,-0.1757251096759109,-0.604357750939779,0.010729414947496437,0.0016283701747046551,0.01166584869089558,5.0
0.4826306966143303,-0.1757251096759109,-0.604357750939779,0.00038052987601749184,-0.0038287156481696125,0.025195762693930188,5.0
0.47208430546166624,-0.15625190817360565,-0.5987742793412223,-0.005828801009091215,0.0029926420529156144,0.030399575916963222,5.0
0.47911523289677577,-0.1601465484740667,-0.5820238156772566,-0.015142796745084315,-0.014742887683911122,0.021032711956829535,5.0
0.47911523289677577,-0.1601465484740667,-0.5541064088161776,-0.006863689358460453,-0.0045108513922786034,0.016869661616414445,5.0
0.4685688417441112,-0.16404118877452775,-0.5820238156772566,-0.0027241351720902218,-0.007921530112823557,0.023114236928694302,5.0
0.4755997691792207,-0.1601465484740667,-0.6099412469724836,0.0008979744451487508,0.0023105058538148153,-0.01227169155986232,5.0
0.47208430546166624,-0.1601465484740667,-0.587607311709961,0.0019328620056247086,-0.003146579839061792,0.041847964055590554,5.0
0.4826306966143303,-0.17961974997637195,-0.5820238156772566,0.005554972411756967,0.013224677759558667,0.03352186258138925,5.0
0.47911523289677577,-0.17961974997637195,-0.5652733764474388,0.010729414947496437,-0.0038287156481696125,0.007502798449651878,5.0
0.4755997691792207,-0.1679358290749888,-0.5820238156772566,0.005037527842625697,-0.003146579839061792,0.0012582231373720215,5.0
0.4755997691792207,-0.1679358290749888,-0.5987742793412223,0.005037527842625697,0.004356913411135935,-0.021638554726624896,5.0
0.4685688417441112,-0.1601465484740667,-0.5820238156772566,0.006589859972232922,0.013906813958659467,0.005421273081101553,5.0
0.47911523289677577,-0.1757251096759109,-0.5987742793412223,0.00607241698088822,0.00640332096845706,0.01895118698496477,5.0
0.48966162404944324,-0.1679358290749888,-0.6434421498662672,0.008659638248757963,0.005039048570255459,-0.023720078111747412,5.0
0.47208430546166624,-0.16404118877452775,-0.5708568480459952,0.0034851957130184914,0.011178271242218821,0.016869661616414445,5.0
0.4685688417441112,-0.1757251096759109,-0.5820238156772566,0.006589859972232922,-0.00246444415995163,0.01166584869089558,5.0
0.47911523289677577,-0.17183046937544988,-0.5820238156772566,0.0034851957130184914,0.0029926420529156144,0.031440337609524485,5.0
0.47911523289677577,-0.1601465484740667,-0.5708568480459952,0.017456188035056563,0.009131863684897702,0.013747373861103125,5.0
0.47911523289677577,-0.1601465484740667,-0.5596898804147341,0.009177081240102644,-0.01065007308925952,0.014788136446206898,5.0
0.47911523289677577,-0.16404118877452775,-0.5708568480459952,0.0019328620056247086,0.00026409881648433125,0.014788136446206898,5.0
0.47208430546166624,-0.16404118877452775,-0.5596898804147341,-0.0022066913918522427,0.013906813958659467,0.0022989856233044024,5.0
0.4755997691792207,-0.15625190817360565,-0.5820238156772566,-0.022387016176785582,0.0029926420529156144,0.006462035567033934,5.0
0.4755997691792207,-0.15625190817360565,-0.5820238156772566,-0.02290445995702356,0.008449727485796905,0.003339748109236785,5.0
0.4685688417441112,-0.1445679872722225,-0.5708568480459952,-0.021352127038523062,-0.040664044530078526,0.013747373861103125,5.0
0.4685688417441112,-0.14067334697176143,-0.5541064088161776,-0.051881336894935334,-0.03793550389360043,-0.019557028168017875,5.0
0.47208430546166624,-0.1679358290749888,-0.5708568480459952,-0.07620121271066578,-0.02292851583323306,0.005421273081101553,5.0
0.4826306966143303,-0.1601465484740667,-0.5652733764474388,-0.06481744165649744,-0.014742887683911122,-0.0362092311164205,5.0
0.46505337802655383,-0.16404118877452775,-0.5429394411849162,-0.05136389232580408,0.00776759232667738,-0.05494295744994563,5.0
0.47208430546166624,-0.17183046937544988,-0.5261889775209504,-0.024974236655762035,0.004356913411135935,-0.01851626488871437,5.0
0.46505337802655383,-0.1601465484740667,-0.5764403440786999,-0.011520687127845344,0.009813998844017223,-0.04765762084179006,5.0
0.47208430546166624,-0.15625190817360565,-0.5987742793412223,0.00038052987601749184,0.005039048570255459,-0.04557609428318304,5.0
0.47208430546166624,-0.1601465484740667,-0.587607311709961,-0.0037590235214594596,-0.014742887683911122,-0.05286143089133861,5.0
0.47208430546166624,-0.1679358290749888,-0.5596898804147341,0.0014154190142800097,-0.033160552579857394,-0.0362092311164205,5.0
0.46505337802655383,-0.1601465484740667,-0.6266916862023014,0.01176430250797239,-0.022246380674113532,-0.006027115057525776,5.0
0.47911523289677577,-0.1601465484740667,-0.5987742793412223,0.004520083273494446,-0.03588909529629803,-0.001864065113796246,5.0
0.4755997691792207,-0.15235726787314458,-0.5987742793412223,-0.005828801009091215,-0.023610652032333857,0.0022989856233044024,5.0
0.47208430546166624,-0.1601465484740667,-0.5708568480459952,-0.03221845589023997,-0.03179628018165579,0.014788136446206898,5.0
0.4755997691792207,-0.18351439027683303,-0.5987742793412223,-0.030148679191501507,-0.016789295241232245,0.019991949470897153,5.0
0.4861461603318859,-0.2068822363404793,-0.5485229127834729,-0.007898577707829691,-0.003146579839061792,0.022073474442761917,5.0
0.47911523289677577,-0.21077687664094039,-0.5764403440786999,0.03763651360888317,0.00026409881648433125,0.01582889913048206,5.0
0.47911523289677577,-0.21467151694140144,-0.5987742793412223,0.06247383714931801,0.03096020645640413,0.03456262586069275,5.0
0.47911523289677577,-0.2263554378427846,-0.5987742793412223,0.0779971616009633,0.03232447885460573,0.017910424102346827,5.0
0.4861461603318859,-0.21077687664094039,-0.5987742793412223,0.11007870595366266,0.052788552347854394,0.007502798449651878,5.0
0.46505337802655383,-0.19519831117821618,-0.6155247185710402,0.09817748717478991,0.048695735153249584,-0.01019016500125531,5.0
0.46153791430899876,-0.1679358290749888,-0.587607311709961,0.09352049236375483,0.03641729188928542,0.04392948744071307,5.0
0.45802245059144425,-0.1679358290749888,-0.587607311709961,0.04953772923218277,0.03982797288478941,0.04288872733489406,5.0
0.46505337802655383,-0.1601465484740667,-0.6155247185710402,0.01124685951662769,0.012542541560457867,0.022073474442761917,5.0
0.47911523289677577,-0.17183046937544988,-0.5820238156772566,-0.00427646809059072,0.03778156428748702,0.004380510595169171,5.0
0.47911523289677577,-0.1757251096759109,-0.6211082146037449,-0.004793911870828696,0.0432386497203683,-0.00914940330869405,5.0
0.47208430546166624,-0.16404118877452775,-0.5820238156772566,-0.006863689358460453,0.05142427994965279,-0.013312453252423577,5.0
0.4755997691792207,-0.16404118877452775,-0.587607311709961,-0.009968354406568167,0.04255651352126751,-0.00914940330869405,5.0
0.4826306966143303,-0.14067334697176143,-0.5987742793412223,-0.0032415797412214792,0.04255651352126751,-0.0008233018344927438,5.0
0.45802245059144425,-0.12120013694769621,-0.5596898804147341,0.01176430250797239,0.053470688546955185,-0.019557028168017875,5.0
0.45802245059144425,-0.109516224568073,-0.5708568480459952,-0.0027241351720902218,0.014588950157760265,-0.0039455900856610136,5.0
0.45802245059144425,-0.09783229514492987,-0.5708568480459952,-0.02704401335450051,0.019363899391540745,-0.00914940330869405,5.0
0.46153791430899876,-0.09393766336622877,-0.531772473553655,-0.0368754538568482,0.01595322047599931,-0.021638554726624896,5.0
0.44396059572122515,-0.11341085634677409,-0.503855042258428,-0.048776672635720913,0.01595322047599931,-0.00914940330869405,5.0
0.44747605943877966,-0.09004301454400776,-0.503855042258428,-0.06481744165649744,-0.027703467146976107,0.004380510595169171,5.0
0.44396059572122515,-0.09393766336622877,-0.4759376109632009,-0.07050932876136817,-0.03998191041094028,0.00854356093558426,5.0
0.45802245059144425,-0.10562157574585199,-0.4871045785944622,-0.06016044368988925,-0.025657058549673702,0.04080720077628705,5.0
0.4685688417441112,-0.14067334697176143,-0.531772473553655,-0.07930588012545334,-0.03043200986341675,0.014788136446206898,5.0
0.47911523289677577,-0.15235726787314458,-0.5150220098896893,-0.04981155861841031,-0.013378616325690804,0.0012582231373720215,5.0
0.46153791430899876,-0.1601465484740667,-0.5206055059223939,-0.0368754538568482,-0.006557258624605575,0.010625086105791806,5.0
0.47911523289677577,-0.18351439027683303,-0.531772473553655,-0.015142796745084315,0.009813998844017223,-0.001864065113796246,5.0
0.47208430546166624,-0.1990929557395572,-0.5150220098896893,0.00762474911049544,0.018681763192439957,0.004380510595169171,5.0
0.47208430546166624,-0.1679358290749888,-0.5206055059223939,0.02263063057079603,0.034370887451908125,0.016869661616414445,5.0
0.47208430546166624,-0.1601465484740667,-0.5261889775209504,0.02056085544984411,0.07393476204020386,-0.0247608413910509,5.0
0.46505337802655383,-0.14067334697176143,-0.5541064088161776,0.024182964278189802,0.026867393421724447,0.023114236928694302,5.0
0.4545069868738892,-0.13288406637083933,-0.5596898804147341,-0.001689246822720984,0.007085456127576578,0.03872567580442229,5.0
0.46505337802655383,-0.11341085634677409,-0.531772473553655,-0.0337707880198472,-0.01065007308925952,0.005421273081101553,5.0
0.47911523289677577,-0.11730550516899513,-0.5596898804147341,-0.05136389232580408,-0.007921530112823557,0.007502798449651878,5.0
0.46505337802655383,-0.13288406637083933,-0.5987742793412223,-0.08758498692040724,-0.013378616325690804,-0.021638554726624896,5.0
0.46505337802655383,-0.13677870667130038,-0.5708568480459952,-0.09689898285362368,-0.03588909529629803,0.010625086105791806,5.0
0.46505337802655383,-0.1445679872722225,-0.6155247185710402,-0.11397464101266272,-0.034524824978059,-0.04245380444527254,5.0
0.46505337802655383,-0.14846262757268353,-0.5708568480459952,-0.11863164213484406,-0.039299774211839465,-0.01435321494498484,5.0
0.4861461603318859,-0.1445679872722225,-0.5764403440786999,-0.1367421831209994,-0.022246380674113532,-0.008108640029390548,5.0
0.4861461603318859,-0.14067334697176143,-0.5708568480459952,-0.1553701876097247,0.0009462344955944942,-0.04141304116596904,5.0
0.47208430546166624,-0.17961974997637195,-0.5652733764474388,-0.1579574041442348,-0.024974924430535457,-0.06326905733740468,5.0
0.46153791430899876,-0.17961974997637195,-0.5708568480459952,-0.15071318017639715,-0.03793550389360043,-0.0507799043327316,5.0
0.4685688417441112,-0.1874090305772941,-0.5820238156772566,-0.13312007744822682,-0.06317452662062958,-0.006027115057525776,5.0
0.4685688417441112,-0.1990929557395572,-0.5708568480459952,-0.07930588012545334,-0.08022791911837424,0.0002174598580685164,5.0
0.47911523289677577,-0.18351439027683303,-0.5708568480459952,-0.06378255251823493,-0.07067802065081326,0.0480925405579271,5.0
0.47911523289677577,-0.18351439027683303,-0.5708568480459952,-0.061712777397283015,-0.04953181095846381,0.07098931683518174,5.0
0.46505337802655383,-0.18351439027683303,-0.6099412469724836,-0.06016044368988925,-0.03520695909719722,0.07723389016403383,5.0
0.47208430546166624,-0.18351439027683303,-0.5987742793412223,-0.05809066856893732,-0.03793550389360043,0.03872567580442229,5.0
0.47208430546166624,-0.18351439027683303,-0.5987742793412223,-0.04618944979006461,-0.028385603346076902,0.05537787716608265,5.0
0.47208430546166624,-0.19130367087775513,-0.5820238156772566,-0.026009125794024552,-0.0270213309478753,0.014788136446206898,5.0
0.4826306966143303,-0.1874090305772941,-0.6211082146037449,-0.009450910231883549,-0.0072393944337133965,0.010625086105791806,5.0
0.4861461603318859,-0.17961974997637195,-0.6155247185710402,-0.009968354406568167,0.004356913411135935,0.003339748109236785,5.0
0.47911523289677577,-0.1679358290749888,-0.5987742793412223,-0.006346244789329196,0.02004603559064156,-0.008108640029390548,5.0
0.47208430546166624,-0.17183046937544988,-0.5987742793412223,-0.01307301979981669,-0.0038287156481696125,-0.007067878336829284,5.0
0.4685688417441112,-0.1679358290749888,-0.6099412469724836,-0.005828801009091215,-0.016789295241232245,-0.007067878336829284,5.0
0.47208430546166624,-0.1757251096759109,-0.6266916862023014,-0.00427646809059072,-0.0270213309478753,0.029358812637659718,5.0
0.47911523289677577,-0.17961974997637195,-0.6099412469724836,0.03194462650401245,-0.00246444415995163,0.016869661616414445,5.0
0.48966162404944324,-0.18351439027683303,-0.587607311709961,0.03608418305706252,0.003674777212035137,0.041847964055590554,5.0
0.4685688417441112,-0.17961974997637195,-0.6099412469724836,0.029357406813929274,-0.0072393944337133965,0.021032711956829535,5.0
0.4685688417441112,-0.1874090305772941,-0.5987742793412223,0.05160750750870781,0.005039048570255459,0.0470517772786236,5.0
0.4826306966143303,-0.1874090305772941,-0.6266916862023014,0.06454361542584304,0.0023105058538148153,0.009584323421516643,5.0
0.4861461603318859,-0.1874090305772941,-0.5987742793412223,0.05988661430366169,0.02004603559064156,0.019991949470897153,5.0
0.47911523289677577,-0.17961974997637195,-0.5931907833085178,0.05522961949262663,0.015271084276898512,0.022073474442761917,5.0
0.47208430546166624,-0.1601465484740667,-0.5820238156772566,0.05315984121610159,0.04119224528299102,0.00854356093558426,5.0
0.47208430546166624,-0.14846262757268353,-0.5708568480459952,0.04229351157549138,0.02004603559064156,-0.011230928280558815,5.0
0.47208430546166624,-0.14846262757268353,-0.6211082146037449,0.038671402747145686,0.021410305908880604,0.0002174598580685164,5.0
0.47911523289677577,-0.15235726787314458,-0.5987742793412223,0.038671402747145686,0.017317492874200917,0.036644150832557516,5.0
0.47208430546166624,-0.14067334697176143,-0.5708568480459952,0.04384584528288516,0.02209244210798139,0.04497025072001658,5.0
0.47208430546166624,-0.14067334697176143,-0.5820238156772566,0.024182964278189802,0.009131863684897702,0.0470517772786236,5.0
0.46505337802655383,-0.1445679872722225,-0.5931907833085178,0.010211970378365168,0.004356913411135935,0.029358812637659718,5.0
0.4755997691792207,-0.13288406637083933,-0.5931907833085178,-0.009968354406568167,0.00640332096845706,0.04288872733489406,5.0
0.4755997691792207,-0.13677870667130038,-0.5820238156772566,-0.012555575575826242,-0.0058751228804965845,0.03768491411186102,5.0
0.47911523289677577,-0.15235726787314458,-0.6099412469724836,-0.020834683258285084,-0.0045108513922786034,0.04392948744071307,5.0
0.47208430546166624,-0.14846262757268353,-0.6155247185710402,-0.025491681224893294,-0.012014344447479843,0.021032711956829535,5.0
0.46505337802655383,-0.1757251096759109,-0.6266916862023014,-0.03584056629637224,-0.009967937410149359,0.0022989856233044024,5.0
0.48966162404944324,-0.16404118877452775,-0.604357750939779,-0.015660240919768934,0.003674777212035137,0.04913330066374612,5.0
0.4826306966143303,-0.17183046937544988,-0.5820238156772566,0.005037527842625697,-0.01065007308925952,-0.0008233018344927438,5.0
0.47208430546166624,-0.1757251096759109,-0.5820238156772566,-0.011003242953160724,-0.007921530112823557,0.016869661616414445,5.0
0.4755997691792207,-0.1601465484740667,-0.6099412469724836,-0.014625352471788037,-0.015425022843030649,0.0022989856233044024,5.0
0.47208430546166624,-0.1679358290749888,-0.5820238156772566,0.0029677511438872266,0.005721184769356258,0.021032711956829535,5.0
0.47208430546166624,-0.16404118877452775,-0.6434421498662672,0.005554972411756967,0.00640332096845706,-0.0039455900856610136,5.0
0.47208430546166624,-0.16404118877452775,-0.6099412469724836,0.016938746621498413,0.00026409881648433125,-0.011230928280558815,5.0
0.47208430546166624,-0.18351439027683303,-0.5596898804147341,0.008659638248757963,-0.003146579839061792,0.004380510595169171,5.0
0.47911523289677577,-0.17961974997637195,-0.6211082146037449,0.02728762853740423,0.010496135043118023,0.01582889913048206,5.0
0.47911523289677577,-0.17961974997637195,-0.6099412469724836,0.03711906903975192,-0.0011001725417359898,-0.004986353364964522,5.0
0.48966162404944324,-0.1679358290749888,-0.5987742793412223,0.03660162447062066,-0.0011001725417359898,-0.02892389133478043,5.0
0.4826306966143303,-0.1679358290749888,-0.6155247185710402,0.038671402747145686,0.004356913411135935,-0.01227169155986232,5.0
0.4685688417441112,-0.1601465484740667,-0.6099412469724836,0.04281095614462263,-0.00041803686262582976,-0.0008233018344927438,5.0
0.47208430546166624,-0.15235726787314458,-0.5931907833085178,0.056264508630889144,-0.015425022843030649,-0.01227169155986232,5.0
0.47208430546166624,-0.1679358290749888,-0.5987742793412223,0.05522961949262663,0.003674777212035137,-0.02059779144732138,5.0
0.47208430546166624,-0.16404118877452775,-0.531772473553655,0.04539817899027894,0.0009462344955944942,-0.011230928280558815,5.0
0.46153791430899876,-0.15625190817360565,-0.5596898804147341,0.03711906903975192,-0.011332208768369682,-0.006027115057525776,5.0
0.45802245059144425,-0.14067334697176143,-0.5596898804147341,0.038671402747145686,0.0016283701747046551,-0.017475504782895356,5.0
0.47208430546166624,-0.1601465484740667,-0.5708568480459952,0.035049293918800004,0.01663535667510011,0.01582889913048206,5.0
0.47208430546166624,-0.16404118877452775,-0.5652733764474388,0.04591562355941021,-0.0092858017310392,0.041847964055590554,5.0
0.47208430546166624,-0.1679358290749888,-0.604357750939779,0.05936916973453046,0.009131863684897702,0.026236524386491447,5.0
0.4755997691792207,-0.1601465484740667,-0.5708568480459952,0.06350872628758053,0.025503121023522844,0.010625086105791806,5.0
