acc_x,acc_y,acc_z,gyro_x,gyro_y,gyro_z,activity
-1.7425294956384594,0.13073167937620483,2.837353187901418,-0.40581181455036464,0.16451483284505997,0.014606637852938743,0.0
-1.7980251483143643,0.09210712969988862,2.81444797244222,-0.18786108459564677,0.4622182552602275,0.058422478457040766,0.0
-1.7980251483143643,0.09210712969988862,2.81444797244222,0.12023682052627392,0.1912820212535423,-0.08580465953033345,0.0
-1.7980251483143643,0.09210712969988862,2.81444797244222,0.12023682052627392,0.1912820212535423,-0.08580465953033345,0.0
-1.7147817039943538,0.14360653865868367,2.6403689764651324,0.25146370153077746,-0.06398561660250955,-0.10497409144726799,0.0
-1.7147817039943538,0.14360653865868367,2.6403689764651324,0.35131023371022235,0.09988183988196228,-0.10862541393307923,0.0
-1.7306376245839532,0.13931491263760842,2.6724359573515986,0.26401583271013845,0.06266891407075666,-0.07576353382792692,0.0
-1.7663133765228587,0.2852298968622166,2.690760129718958,0.03008965579739917,0.006523091954314341,-0.012778262698587122,0.0
-1.6513581604113425,0.13073167937620483,2.782380991555754,0.065463858533217,0.0039116585989786914,-0.0447273149656802,0.0
-1.7346016047313533,0.17364784568322283,2.7457326468210357,-0.02639495886582397,0.062016055234250175,-0.060245424396803554,0.0
-1.7306376245839532,0.16077300518149085,2.7136653451781565,0.10711413033815799,0.04765317277524925,0.08124322729299942,0.0
-1.8059530392214704,0.20368917148850887,2.7274084744536755,0.1339300627642595,0.10314613406449476,0.1716133975821683,0.0
-1.7583854162280588,0.22514724525164442,2.750313689912875,0.23491769904344376,0.41390674913531483,0.1524439656652337,0.0
-1.7663133765228587,0.233730478513048,2.7686378622802343,0.18813247270744685,0.49681976563231045,0.2555937702215289,0.0
-1.7504574559332593,0.22514724525164442,2.7686378622802343,0.13221839965576532,-0.10642140912438645,-0.08306617879954932,0.0
-1.7425294956384594,0.32385443714815937,2.7457326468210357,0.1670220538211562,0.0959646948256846,0.09767416734557556,0.0
-1.7663133765228587,0.18223107894462642,2.658692828076079,-0.2049776321739647,0.007828808631982166,0.14696699307009117,0.0
-1.7464934757858592,0.25518857105693044,2.6861790866271176,-0.517069387727202,-0.026119827973416797,0.09311001980509868,0.0
-1.8138809995162706,0.263771804318334,2.7777999484639144,-0.42064615392920396,0.20760348420344338,0.06663794848332884,0.0
-1.8059530392214704,0.17793947170429805,2.7777999484639144,-0.30140086597196264,0.5229340872415249,-0.028296374913104043,0.0
-1.6989258527924478,0.17364784568322283,2.7457326468210357,-0.26374444459833835,0.19650489194559428,-0.10040994947357829,0.0
-1.7900971880195644,0.11785682948409944,2.7182463882699963,-0.17188564111706797,-0.23242308494252692,0.05568398937607593,0.0
-1.7782052475773649,0.12644006274550304,2.6999222159026375,0.0004209692109742186,-0.3081546622007124,0.062073798159458404,0.0
-1.7782052475773649,0.12644006274550304,2.6999222159026375,0.19783185059634506,-0.4158762985594322,-0.0994971188521255,0.0
-1.7464934757858592,0.15218977192008726,2.8098669293503797,0.1807153030180271,-0.6260967005848198,-0.041075992479869004,0.0
-1.7227096642891533,0.13073167937620483,2.736570560637355,0.10140861679834712,-0.6848539799448817,0.01825795755535638,0.0
-1.7227096642891533,0.13073167937620483,2.736570560637355,0.10140861679834712,-0.6848539799448817,0.01825795755535638,0.0
-1.6989258527924478,0.13073167937620483,2.6724359573515986,0.011832002597085802,-0.396943400263505,0.028299087780777474,0.0
-1.6830699322028482,0.13073167937620483,2.6403689764651324,0.007267589460106335,-0.8474157267191019,0.20356244706586782,0.0
-1.7068537436995537,0.0792322798077832,2.576234373179375,0.08771537456036156,-1.294623703252837,0.5175759915748689,0.0
-1.754421436080659,0.06635742991567782,2.571653330087535,0.4705555495030052,-1.0041017200764797,0.5750842873256727,0.0
-1.8019890590740708,0.17793947170429805,2.7090843020863167,0.6240339326168827,-0.4922607107658403,0.5495250299249941,0.0
-1.7425294956384594,0.23802210453412323,2.828191101717739,0.552714989013148,-0.26898314793584516,0.5504378494128727,0.0
-1.6870339123502482,0.32385443714815937,2.9152309204626965,0.052341171824543724,-0.11817286021874206,0.18713150701329165,0.0
-1.5918985969757316,0.28093827084114115,2.7869620346475936,-0.2523334314364873,0.08029609071229005,0.1843930151489332,0.0
-1.5086551526557208,0.20368917148850887,2.736570560637355,-0.3521799636159321,-0.10903284447041245,0.2446398027640953,0.0
-1.44523160907271,0.16506461242181925,2.690760129718958,-0.29968920286346845,-0.40934769426884454,0.38795411013001674,0.0
-1.3659522142877927,0.22085563801131602,2.741151603729195,-0.1490635730400538,-0.5803966298059329,0.3541794105369858,0.0
-1.393700005931898,0.22085563801131602,2.658692828076079,-0.12738260906277887,-0.21806019053938397,0.48106276671675696,0.0
-1.2906367302625819,0.2938131301236199,2.6220448040977735,0.07116937555247055,0.8552390359542981,0.8023789673309549,0.0
-1.3818080654896987,0.40539518130261365,2.5395860284446563,-0.42920444163613364,0.7651445324419244,0.824286902245822,0.0
-1.5601868251842257,0.47835263585342414,2.658692828076079,-0.34019837752755544,0.7168330581680568,1.0734894280973772,0.0
-1.6473941802639427,0.6113927795763003,2.6037206317304133,-0.1308059213619966,0.5137940794559566,0.8635385410332728,0.0
-1.6791059520554483,0.3753538367165809,2.5075187268017776,-0.2740143954137621,0.09531183598917811,1.4632678473855152,0.0
-1.710817723846954,0.3066879706253521,2.5029376837099377,-0.30197141106294695,0.18736486823450338,1.890472355553941,0.0
-1.7583854162280588,0.11356521285339763,2.498356961374511,-0.20269542397448617,-0.1573443585580865,1.9634986271329768,0.0
-1.901088389289834,-0.06239108074334294,2.420479228813234,0.21266618997518452,-0.1442871977534792,1.8201844088356496,0.0
-1.964511932872845,-0.22118090312208963,2.447965487364273,0.6012118506220977,-0.5425308332140789,1.0762279310953098,0.0
-1.881268523246681,-0.30272162849579726,2.5075187268017776,0.7598252230614577,-0.5608108487852155,0.3094507212193729,0.0
-1.6751419719080487,-0.28555516197299,2.5533291577201758,0.9863342128875638,-0.40216627095555707,0.10406397612895806,0.0
-1.5324390335401201,-0.255513836167704,2.658692828076079,1.0416777269304904,-0.2552731203319703,0.06572511786187604,0.0
-1.469015489957109,-0.19972282935895405,2.7777999484639144,0.8522545855514828,-0.27028886560885823,0.05659681721413516,0.0
-1.488835321306415,-0.169681503553668,2.8785825757279784,0.7940583182180936,-0.2050030297347767,0.03195040783111931,0.0
-1.5245110732453204,-0.12676533724665,2.933555092830054,0.6925001229301544,-0.1912930021309016,-0.17434917414338383,0.0
-1.5641508053316255,-0.11818210398524638,2.9702031168083605,0.6531320941191184,-0.35842475279790587,-0.5495223257554257,0.0
-1.5205470930979206,-0.06668269737404477,2.9610410306246817,0.6793774466598093,-0.4335034632568236,-0.7868581537302628,0.0
-1.5205470930979206,-0.06668269737404477,2.9839462460838795,0.73643262381123,-0.15016291931927636,-0.5403939972737491,0.0
-1.7385655154910598,-0.04951623085123754,2.906068834279014,0.3096599688641668,-0.30489037598094115,-0.122317862121297,0.0
-2.0120795905601034,-0.010891677653531313,2.832772144809579,-0.303683074171441,-0.3159889682387903,-0.24554991808240528,0.0
-2.051719322646409,0.06635742991567782,2.7182463882699963,-0.5290509738155785,0.555577013141327,-1.1227795552191113,0.0
-1.7504574559332593,0.25948019707800557,2.5487481146283364,-0.5398914697219868,0.3316465835120643,-1.4249263239163745,0.0
-1.5641508053316255,0.34531252969204185,2.457127573547953,-0.4098056858583372,-0.34602045879256643,-1.0680097624662404,0.0
-1.2985646905573816,0.4568945808710353,2.356344625527477,-0.05606364458238825,0.04112458839156496,-0.6289385118867996,0.0
-1.1201860002505477,0.5641850060289538,2.5533291577201758,0.16759261282991114,0.4798454199576188,-0.4847113850329995,0.0
-1.116222020103148,0.6113927795763003,2.631206890281453,0.0021326244907224133,0.3460094619896846,-0.3751717995272577,0.0
-1.1043300796609483,0.5727682205096105,2.7777999484639144,0.00612648623022776,0.12077331468740879,-0.08671749015178626,0.0
-1.14793372250696,0.5298520729833393,2.855677360268778,0.12251902872575245,0.14166478153009399,0.1880443376347444,0.0
-1.24306910726917,0.47835263585342414,2.8648394464524563,0.10825523443789725,0.16059767982602102,0.47467298576731,0.0
-1.421447797576004,0.36247899621484886,2.910649877370854,-0.10798385328498243,-0.22524164570371663,0.41168768402064093,0.0
-1.4491955892201098,0.31527122266750235,2.910649877370854,-0.10056667663667734,-0.3055432268546864,0.46463183779775497,0.0
-1.544330904594626,0.263771804318334,2.8648394464524563,-0.021259993896440045,-0.010451225850712556,0.6545004734570464,0.0
-1.5879346168283315,0.1951059382271052,2.782380991555754,-0.1530574304302558,-0.2859574776850142,0.7302653816369061,0.0
-1.6315383290620367,0.13931491263760842,2.6724359573515986,-0.12795315415376315,-0.08161278926266229,0.6937521567787942,0.0
-1.6315383290620367,0.13931491263760842,2.6724359573515986,0.13335950375550457,0.14297049920310698,0.7092702662099175,0.0
-1.6949618726450477,0.11356521285339763,2.6174637610059337,0.2720035753260838,0.06985035729094745,0.6362438610279906,0.0
-1.7900971880195644,0.15218977192008726,2.5945585455467346,0.2623041974371856,0.10053469871846876,0.4390725803970767,0.0
-1.7227096642891533,0.10069036296129225,2.6724359573515986,-0.0868734343986918,-0.07377849118734565,0.3057994210007102,0.0
-1.7147817039943538,0.15218977192008726,2.658692828076079,-0.15020467713979305,-0.07573706769686514,0.1916956601205556,0.0
-1.7464934757858592,0.12644006274550304,2.6815980435352778,-0.37443147268419147,0.18148914666870622,-0.08489182890888067,0.0
-1.7782052475773649,0.09639874633059042,2.649531062648812,-0.19242550099460365,0.13448334229128384,-0.14696427776694834,0.0
-1.6791059520554483,0.10069036296129225,2.626625847189613,0.09684420039939015,-0.034606986875930223,0.20630093893022616,0.0
-1.6037905374179313,0.16077300518149085,2.585396459363054,0.01924917424369204,-0.16648438226917742,0.20082395520150936,0.0
-1.6315383290620367,0.18223107894462642,2.6220448040977735,-0.36587321281280316,-0.5111936090617673,0.32862015313630744,0.0
-1.6672140810009421,0.2165640119902408,2.649531062648812,-0.5678484853711714,-0.35516046657813466,-0.11410239766179604,0.0
-1.6830699322028482,0.09210712969988862,2.7136653451781565,-0.44346823592398893,-0.4393791848226209,-0.8963977392360049,0.0
-1.572078696238732,0.18223107894462642,2.6999222159026375,-0.18786108459564677,-0.3669119097097289,-0.42720308928219586,0.0
-1.4412676289253097,0.15218977192008726,2.649531062648812,-0.1947076952763115,-0.17236010383497458,-0.30762235580689873,0.0
-1.4610875296623094,0.233730478513048,2.6403689764651324,-0.18671998049590752,-0.310113246672993,-0.18439029984579045,0.0
-1.4491955892201098,0.21227240474991244,2.6403689764651324,-0.08002681675914167,-0.18150012754606548,-0.42172612782062746,0.0
-1.4254117777234037,0.2165640119902408,2.649531062648812,0.09227979095931853,0.374735218944925,-0.5285272103284369,0.0
-1.401627966226698,0.233730478513048,2.695341172810797,0.05405282449470991,0.43479820005247743,-0.36421783206982383,0.0
-1.354060273845593,0.2423137117744516,2.7136653451781565,-0.1513457812395323,0.17365484063062828,-0.021906563346328005,0.0
-1.397663986079298,0.21227240474991244,2.6128827179140934,-0.13194701154396515,0.031984568661854694,-0.07576353382792692,0.0
-1.469015489957109,0.20368917148850887,2.585396459363054,0.062040549713441945,0.05418175715893354,-0.2683706724851511,0.0
-1.516583112950521,0.16935623844289446,2.626625847189613,0.16987482102938967,-0.2578845556779961,-0.32861744896673906,0.0
-1.484871341159015,0.15648137916041563,2.6128827179140934,0.20581956537674914,-0.0039226422135371355,-0.1871288028437231,0.0
-1.4531595693675095,0.14360653865868367,2.644950019556972,-0.006996203088027522,0.05222318064941406,-0.09036881263759747,0.0
-1.4769433808642154,0.13931491263760842,2.667854914259758,-0.19014329279512512,-0.020896961262745487,-0.10314843020436239,0.0
-1.516583112950521,0.09639874633059042,2.658692828076079,-0.3584560431233832,-0.1227428720742875,-0.2720219949709623,0.0
-1.572078696238732,0.049190958697683924,2.6541117849842384,-0.34647445703500673,0.028067419624196368,-0.4847113850329995,0.0
-1.5086551526557208,0.10069036296129225,2.626625847189613,-0.24092239043909475,-0.08291850693567526,-0.32587896823595486,0.0
-1.421447797576004,0.08352389643848503,2.571653330087535,-0.13251757055272012,-0.29379178372309206,0.09767416734557556,0.0
-1.4412676289253097,0.06635742991567782,2.585396459363054,-0.060628060981345225,0.0757260788567446,0.15518245752959212,0.0
-1.488835321306415,0.049190958697683924,2.608301674822254,-0.04750537079322926,0.2343706726119257,0.08580738040026341,0.0
-1.5918985969757316,0.04489934206698212,2.5945585455467346,-0.26317389950735404,-0.17627725685401355,0.05203266689026472,0.0
-1.5800066565335316,0.027732875544174914,2.5945585455467346,-0.1735972903077915,-0.42893347528956194,-0.24554991808240528,0.0
-1.5601868251842257,0.027732875544174914,2.6174637610059337,0.12765399021569365,-0.09205852268400488,-0.3295302684546176,0.0
-1.53640301368752,0.02344125891347313,2.6128827179140934,0.2029668120862863,0.3205479912542152,-0.47832155954925576,0.0
-1.4373037181656034,0.11785682948409944,2.754894733004715,-0.13765253204266137,0.20629776653043036,-0.3185763232643323,0.0
-1.3659522142877927,0.16935623844289446,2.7686378622802343,-0.40124739815140753,0.5692870407452022,-0.09584579636631428,0.0
-1.397663986079298,0.10498197959199404,2.7136653451781565,-0.5319037271060414,0.8147617721653726,0.010955318150521103,0.0
-1.496763281601215,0.049190958697683924,2.6861790866271176,-0.6174864928331726,0.991033546543468,-0.15152841974063808,0.0
-1.6473941802639427,-0.09672401613655071,2.6037206317304133,-0.19984267068402334,1.0210650689482892,-0.34504837788574094,0.0
-1.6949618726450477,-0.31130486175720085,2.127293112448312,-0.17759114769799358,-0.9211886717284388,0.0602481369165528,0.0
-1.6909978924976479,-0.13534857050805357,2.218913813906902,-1.2536515900280238,-4.865759325295718,0.5522635329229268,0.0
-1.6870339123502482,-0.03664137919843713,2.5029376837099377,-1.1503817316315905,-5.399797391717875,1.230496250452962,0.0
-1.4571235495149095,-0.04951623085123754,2.6541117849842384,-0.8999095696287309,-5.237235772347835,0.35874355251067563,0.0
-1.310456561611888,-0.03234976227428616,2.7594757760965547,-0.6534312510983027,-4.643787097926195,-0.25193972129900066,0.0
-1.14793372250696,-0.04093299641603727,2.658692828076079,-0.6648422642601537,-3.422289321646364,0.11045379047912765,0.0
-1.017122655193538,-0.11818210398524638,2.34718286010021,-0.7521366930957791,-1.747707369501324,0.47467298576731,0.0
-0.9774829924949262,-0.0752659329830417,2.209751727723222,-0.6682655904771423,0.6972472771473394,0.6398951835138016,0.0
-1.1400057622121604,-0.05380784748193935,2.2051706846313825,-0.32992845454767306,2.741346837063854,1.1766392326536723,0.0
-1.2034293057951717,-0.09672401613655071,2.296791386089972,-0.2084009444731823,3.951093616126724,1.1182181619492872,0.0
-1.15189770265436,-0.31559648777827604,2.4113171426295543,-0.258609483108397,4.672501953631687,1.2478399543255454,0.0
-1.4531595693675095,-0.29413839523439367,2.736570560637355,-0.1907138378861094,5.5186063687232005,1.5518123619985655,0.0
-1.4531595693675095,-0.29413839523439367,2.736570560637355,-0.07603295241005431,6.085940753386672,1.685085521394932,0.0
-2.0834310944379144,0.17793947170429805,2.8648394464524563,-0.3544621718154106,5.991928698717197,2.6426441641508904,0.0
-2.2935215912301006,0.20368917148850887,2.5029376837099377,-0.956964691109069,6.343819555854868,4.299430818001059,0.0
-2.2657737822390716,-0.461511472002884,2.6770170004434384,-0.9101794926086134,6.369281026590337,2.4819861529123854,0.0
-1.9684759130202447,-0.2640970694291076,2.8098669293503797,0.020960829088509905,5.83850705528168,-0.4071208378773827,0.0
-1.9962237046643507,-0.0838491662444453,2.305953472273652,0.42262920514949837,8.237108875830847,-4.42357285567759,0.0
-1.7425294956384594,-0.4572198459818089,2.576234373179375,-1.3980011403439874,10.11146542491508,-6.161601468237782,0.0
-1.6037905374179313,-1.2769186881784669,1.6737708086254086,-0.10227833278628622,5.519912516385323,1.6494851605589955,0.0
-2.3093774771258535,-0.8649234165081066,1.6279605380852171,0.5686904185739559,-0.8049798784578959,5.596562051128785,0.0
-2.6225312495873556,-0.5344689265536945,1.6829328948090885,1.7274808872584255,-6.701597003957037,10.670984057777611,0.0
-2.943612947649811,-0.0752659329830417,2.896906748095336,-2.581895815716095,1.6412805336403484,11.34191426393892,0.0
-2.943612947649811,-0.0752659329830417,2.896906748095336,-2.6087119081965615,7.577721912799443,7.476992107032727,0.0
-2.5709996117526974,-0.04093299641603727,3.2359032953786566,-1.7032463548054133,11.431544989023287,2.3989186442952004,0.0
-3.2210909681724083,-0.5988432041853418,2.6037206317304133,-2.612705751668992,8.331773239906301,1.6595263975971448,0.0
-3.3796498271299362,-0.680383948339796,2.470870702823472,-4.024821024304619,1.8841438615655381,5.8585444951536125,0.0
-3.514424874590758,-0.8434653615257178,2.5533291577201758,-3.4651099713811493,0.8258603962742669,6.433627630798838,0.0
-3.764155068775403,-0.8091324284801034,2.626625847189613,-2.012485301397105,1.2528297727645847,6.549556462842461,0.0
-3.764155068775403,-0.8091324284801034,2.626625847189613,-0.6665539273686479,1.626264804288983,4.839826011489556,0.0
-3.8513624932428128,-0.9292977317012476,2.644950019556972,0.11624295617718661,1.3272556004987122,3.3528258309624546,0.0
-3.831542592505814,-0.8992563495537209,2.5441670715364966,0.07345158027250635,0.12664903625320592,3.4313294648117347,0.0
-3.7007315251923916,-1.0151300267537897,2.6174637610059337,0.02552524287788487,-1.148383451279563,3.3555645120975766,0.0
-3.7007315251923916,-1.0151300267537897,2.6174637610059337,0.03978903368629738,-1.3011522756923792,3.038812364388474,0.0
-3.7681190489228027,-0.6932587512800343,2.7319895175455158,0.06660496263295625,-0.5934537746850177,2.431780502133204,0.0
-3.7562271084806027,-0.5902599521431912,2.7274084744536755,0.047206206855159805,-0.6398067281886949,2.0210070119523746,0.0
-3.6135241701126746,-0.6245928851888057,2.8098669293503797,-0.13822309105141634,-1.081791834030378,1.855784769671586,0.0
-3.74433530681379,-0.35851263530454736,2.9472982221055766,-0.5216338041261589,-2.157049613145295,1.711557598283489,0.0
-3.7601910886280026,-0.31130486175720085,2.9839462460838795,-1.285031931894197,-3.421636247815304,1.5901512258324348,0.0
-3.6373079816093803,-0.3542210468449658,2.887744661911657,-2.1574053689685124,-3.8466471672375198,1.4833501433246252,0.0
-3.37172193622283,-0.3499294208238904,2.7869620346475936,-2.9578894008547323,-2.8543023727685544,0.5668687783318745,0.0
-3.268658660553513,-0.4014288203923122,2.846515274085099,-3.242594658014228,-1.995793631820656,-1.0607071174946179,0.0
-3.232982908614608,-0.7018420033221849,2.956459987532843,-2.6554969953548517,-1.189513470389098,-0.9447776619708348,0.0
-3.153703444441997,-0.800549176437953,2.906068834279014,-1.9793932964224374,-0.37801050196757807,-0.5513479647311827,0.0
-3.014964451527622,-0.9250061056801722,2.644950019556972,-1.4972771552679893,-0.2082673159545478,-0.3797359415009472,0.0
-3.0070364912328222,-0.8906731726345578,2.425060271905074,-1.3283939155198297,-0.9740701976716583,-0.49840381095406866,0.0
-2.9356850220488577,-0.9507557866836361,2.3242776446410107,-1.4476391478059882,-1.0308688925594394,-0.5595634291906836,0.0
-3.014964451527622,-1.0837958928450184,2.4433844442724335,-1.7962462345508814,0.3623309249395855,-0.03012203058922252,0.0
-2.943612947649811,-1.1739198890416231,2.585396459363054,-2.3000433675181453,1.173833957063196,0.1734390588250739,0.0
-2.9951445854844696,-1.264043810115241,2.535004985352817,-2.859183903186172,0.6019299666450043,0.46006769582406515,0.0
-3.0664960893622806,-1.332709751329457,2.2418188689878944,-3.0223618590377375,-1.1568706081913862,0.7056189437241063,0.0
-3.129919632945291,-1.3927923653785357,1.9394706664392922,-3.430306191955822,-2.2105840855153964,1.4450112794907564,0.0
-3.1338836130926917,-1.3885007393574604,1.72874316534928,-3.9860236240911906,-3.0325326679168376,1.7024293143361096,0.0
-2.983252679736117,-1.671747455764526,1.7470673377166392,-4.261029419855164,-5.4598603091233375,0.5933408552204315,0.0
-2.844513652127895,-1.9163695379819146,1.7058379498900809,-4.542311350797671,-6.823028476813359,-1.0205426146849916,0.0
-2.8009099745880364,-2.0322432903049705,1.81578282371603,-3.752097297562416,-5.812403985283708,-2.5522714399954056,0.0
-3.0070364912328222,-2.1094924084383497,1.8661741373480616,-1.6056820029899053,-3.3080391128481037,-3.345520793561347,0.0
-2.852441612422694,-2.2296576365365066,1.3943278215360058,0.19326743419738807,-3.420983428792604,-4.638087795646786,0.0
-2.4639723727408134,-2.3026151286488106,1.3485173906176078,1.04624219900053,-4.916682266766657,-7.814736665999249,0.0
-2.2023502386560603,-2.491446222838196,1.64170350698253,-0.6762533330930875,-7.501348720353232,-10.715710042925654,0.0
-1.9922597245169507,-2.9377742773081956,1.8661741373480616,-3.4109074918491094,-11.188693263070837,-11.963548934639347,0.0
-1.9209082553329866,-3.027898423750776,1.7424862946247994,-6.070819269442241,-11.071178704350714,-11.678746047951856,0.0
-1.3580242539929928,-2.9506491553714214,1.2477347633535447,-8.568694348379024,-6.657855581352521,-12.13150950178088,0.0
-1.215321246237371,-3.216729668186137,1.3393553044339277,-9.255068025962405,-3.4588492253844563,-12.723023299139324,0.0
-1.0290145956357377,-3.3111451401578407,1.3485173906176078,-8.132793333838249,-1.6980901934799661,-12.471081735878272,0.0
-0.846671925181504,-3.4613517504035243,1.1103036309765564,-6.076524887365332,-2.610133279393784,-9.488866400241843,0.0
-0.7792844014510929,-3.3368948962842926,0.9820347451614546,-5.8026601261122455,-6.100967320285694,-8.085847215834265,0.0
-0.3709952789212271,-3.3540614003685922,0.4597969553391607,-7.013370782622653,-7.71222200510341,-8.300362155803466,0.0
-0.1609047474351942,-2.6802773170275818,0.21700219270082155,-7.920547553753633,-5.229401434458712,-6.627144483965697,0.0
-0.2401842116078049,-2.5644037149505006,0.24906937406004534,-7.4623950301446005,0.4994312009783365,-3.3610386803209824,0.0
-0.40667110024782577,-2.216782758473281,0.07957118060748852,-6.890702001435175,-0.6704910696162162,-0.9602958159362552,0.0
-0.03802177919195874,-1.9549941721715915,-0.46099076216136625,-6.840493365375566,-4.1077905744359375,-2.353274386785843,0.0
0.10468122856366299,-1.8777450540382121,-0.6762993257640167,-6.972861385274235,-5.185006683214774,-6.338690497463882,0.0
-0.05784140237818436,-1.5258324715399179,-0.6350700381738373,-5.657739835856509,-4.070577596866783,-6.522168951365053,0.0
-0.11730110458918254,-1.367042609252084,-0.5434493667861612,-4.36087617471894,-2.3052484495908514,-5.049774238918388,0.0
0.29495199808808364,-1.3970839913996107,-0.428923527551566,-4.166317765659037,-0.7403469093830821,-5.022389208939061,0.0
0.09278928812146342,-1.289793491118705,-0.41976146141516224,-5.272047012006682,1.6824105527498832,-4.638087795646786,0.0
-0.21243648935139256,-0.684675499237884,-0.4930579955182118,-6.677886149463773,2.749833993975678,-3.97446050166289,0.0
-0.14901280699299463,-0.461511472002884,-0.5984217636045842,-7.461253995633714,1.3514114331887814,-3.391162035161053,0.0
0.3781953036327069,-0.461511472002884,-0.7404337887188435,-6.616837240182088,-3.3491690045534566,-3.4568857508370625,0.0
0.5803580135993271,-0.43576175343792645,-1.0244578790419134,-5.179046909576883,-5.766703595994369,-3.2743200718894725,0.0
0.39008724407490647,-0.23405576240456846,-0.6946234580368243,-2.722251522559627,-1.7934075039823012,-2.3140227479983926,0.0
0.3623393830431076,-0.2726803026905112,-0.7954062055845421,-0.6711183437676048,0.5725513269649734,-2.7019754392421795,0.0
0.28306005764588343,-0.47438631250461594,-1.1160785404059521,0.3918194083743095,0.7560045565074013,-2.2145242213936114,0.0
0.14432103003766147,-0.14393180376945722,-1.4367508752273614,0.9281380012252571,1.2828612314673158,-0.6134204024556762,0.0
0.29495199808808364,0.31527122266750235,-1.7894904715970985,-0.2049776321739647,0.3362165714793259,-0.4016438318815175,0.0
0.6913491801757496,0.25948019707800557,-1.5466956688642077,-0.9678051870154771,-0.3727876312755262,-4.2264017086495675,0.0
0.27909607749848336,-0.1653898869229662,-1.597087062685342,-0.4959589688409113,-0.5803966298059329,-4.0611794663687775,0.0
0.2394562760244849,-0.341346187562487,-1.688707683954829,0.2588808712201971,-0.6489467678253084,-2.845289835676695,0.0
0.1245011293006627,-0.2512222289273756,-1.688707683954829,1.0199968464598395,-0.515110778006329,-1.4559625427786214,0.0
0.15621297047986105,-0.01947491150183325,-1.853624834315546,0.1424883365534185,-0.6378481437164141,-2.6618110255011476,0.0
0.2592761767614846,0.08352389643848503,-1.9269215237849833,-1.2302589351067135,-0.3571190510504155,-2.837074326682897,0.0
0.15621297047986105,0.062065813284976006,-1.8811110928665848,-0.6414496650099261,-0.3812747881873493,-1.4559625427786214,0.0
0.15621297047986105,0.006274790043072553,-1.7803283854134186,-0.0851617782490829,-0.28922176390478527,1.1419517358399116,0.0
0.08089762523003731,0.07494066317708144,-1.8261387361427135,0.6873651892757546,0.14035906385708097,2.506632501756591,0.0
0.0055820024294398,0.1951059382271052,-1.8948542221421043,1.4507633170437926,-0.7063982817357894,2.132372325502468,0.0
0.2236003554348859,-0.1010156327672525,-1.8353008223263931,1.307554801238715,-0.6358895592441332,1.8859081245116571,0.0
0.17603287121686106,-0.2598054621887793,-1.7894904715970985,0.14705275295237547,-0.19978015904272473,0.5330941010059922,0.0
0.08089762523003731,-0.169681503553668,-1.8673679635910658,-0.8616826309996637,-0.4191405847792032,-1.1574671411014665,0.0
-0.08558926340998357,-0.04951623085123754,-1.945245535774136,-1.9896632750734036,-1.2208506945414097,-3.0725843375447885,0.0
0.10468122856366299,0.07494066317708144,-2.2750799968737767,-0.8257378727345335,-3.016211427924254,-2.0803382870436637,0.0
-0.1014451839995829,0.3410209036709663,-2.1468111110586747,-0.1553396386297343,-1.5022326380811535,-0.6937494526092255,0.0
-0.19261658861439315,0.349604155713117,-2.137649024874995,-0.408094022749843,-0.9224944371780195,-1.1392104841381132,0.0
-0.034057799044558676,0.3109795966464272,-2.2201076401499056,0.07345158027250635,-0.05223416550815394,-0.37334611601720347,0.0
0.7825204460151739,0.5041023544183817,-3.1912866907032624,1.477008669584483,-0.002616925349242092,1.2195422384612313,0.0
0.8935116125915957,0.014858025652069515,-2.788155700512391,-0.04122930172410612,0.3192422576556795,0.9100929138609396,0.0
-0.10937314429438272,-0.4486365939396583,-2.119324852507636,-0.8245967268814822,-1.0360917632514912,-0.7704271357426665,0.0
0.05314976419823841,0.08781551306918683,-2.1742972092315074,-0.3111002438608609,1.1816681675481382,-2.5212351320645645,0.0
-0.14504896562098177,0.16506461242181925,-1.940664492682296,0.23662936215193808,5.117098717776714,-2.842551332678762,0.0
-0.18468862831959365,0.40968676976219526,-2.206364510874386,0.2600219892377071,5.337111978461415,-5.699709196049812,0.0
-0.010273918160159526,0.8388485079553625,-1.7070318563221882,-0.24662789702002028,4.91340695189296,-2.5130196230707664,0.0
0.30287995838288284,0.5770598465306858,-1.8582058774073857,-0.6557134314622398,-0.5980237626522792,0.7476091300437865,0.0
0.06900568478783774,0.5770598465306858,-1.6978697701385088,-0.13023536235324165,0.5150997812034469,0.842543470140581,0.0
0.30287995838288284,0.4568945808710353,-1.904016308325784,-0.17930281080648763,0.30030935935975256,0.33866130110586246,0.0
0.3068439385302829,0.263771804318334,-1.9360834495904562,0.1287950943154329,0.647630037423891,0.6061205061879195,0.0
0.01350996272423962,0.349604155713117,-1.7849094285052587,-0.3715787193937286,0.27941790844258996,0.9283494817556986,0.0
-0.3432475566648147,-0.19543120333787878,-2.247593738322738,-0.6443024183003887,-0.263760293169316,0.2154292451447542,0.0
-0.24414819175520464,0.2423137117744516,-1.8444629085100726,-1.722074537656684,0.744253113375807,-0.23824727311078292,0.0
0.43369102569630374,0.25518857105693044,-1.7253559485004442,-0.43148664983561225,0.9936450137405392,2.3523642714675335,0.0
0.5090063709461303,0.2938131301236199,-1.7849094285052587,0.3182182565710964,1.0719879467171376,1.9908836571123036,0.0
0.21963637528748614,0.14360653865868367,-1.7849094285052587,0.22978273755350243,2.121784255096586,1.795538059991444,0.0
0.041257823756038835,0.10069036296129225,-1.3863594814062266,0.5726843177174701,2.5964123505401613,1.7654145270141843,0.0
0.830088207783971,-0.26838869545018285,-1.5283715766859514,-0.07032743887024344,1.4349772368574318,-0.37699743850301454,0.0
0.5407182121253258,0.049190958697683924,-1.5741818472261435,0.4511567937252088,1.7476964045494874,0.5458737074391832,0.0
0.5684660731571259,0.07494066317708144,-1.619992197955438,0.37584397881350146,1.596233345586252,0.6545004734570464,0.0
0.5684660731571259,0.07494066317708144,-1.619992197955438,-0.03267102793494713,1.249565550246904,0.6042948226778653,0.0
0.2315283157296857,0.062065813284976006,-1.7665852561378992,-0.9335721475299239,1.8625995597746305,0.41351336753069506,0.0
-0.17279668787739377,-0.12676533724665,-0.9969716605854263,-0.5490203025199007,2.7772541765876086,-0.046552970641798676,0.0
0.5962139341889261,0.3281460631692345,-1.1298216295869197,-0.3093885807523667,-0.1873758491118626,-0.021906563346328005,0.0
0.5962139341889261,0.3281460631692345,-1.1298216295869197,-0.21695921826234146,1.4088629470992626,-0.34596121964076804,0.0
0.3702673433379074,0.1951059382271052,-1.5283715766859514,-0.25918002819938124,0.6071528373370564,-0.40346951539157166,0.0
0.4812585099143308,0.0792322798077832,-1.2626716386829648,-0.3852719685905996,0.8376118394058614,-0.7421294198783527,0.0
0.4812585099143308,0.0792322798077832,-1.2626716386829648,0.06489330648334737,1.0883094415180838,-0.7658629937689772,0.0
0.3821592837801076,-0.015183294284233114,-1.2260233741373494,0.1550404677327795,0.9133434325895694,-0.4582393081444426,0.0
0.21567239514008546,0.16506461242181925,-0.9832285714044586,0.051770619774674106,0.8787419222174867,-0.3715204770414464,0.0
0.3821592837801076,0.3410209036709663,-0.9328372176778755,0.22921219246251814,0.6411014649843488,0.021909277605698215,0.0
0.520898311388329,0.14360653865868367,-0.9374182206751637,0.7187455311419275,0.5346855303731192,0.9237853397820092,0.0
0.47333082717030506,0.2723550375797376,-1.1893751095917342,0.822015389538361,0.2741950377505379,1.4094109186548196,0.0
0.6398174382595503,0.35818737019377367,-1.0107147497663944,0.8454079887885888,3.3054166169971033,3.008689009548404,0.0
0.6398174382595503,0.35818737019377367,-1.0107147497663944,0.16302819643095418,2.253661724145374,2.219091112071167,0.0
0.3068439385302829,0.5083939804394568,-1.001552703677266,0.29824892786677437,0.9231362912488829,1.6056692907292611,0.0
0.1245011293006627,0.5513101279657282,-0.8274734270383179,0.21494839817466307,0.26570788083871477,0.08854586669783468,0.0
0.1641409307746612,0.20368917148850887,-0.9740664852207789,0.07972765282107219,0.5412141028126616,-1.2286678627733392,0.0
0.12053714915326263,0.0792322798077832,-0.9694854822234906,-0.07660350445992394,0.07703179652975758,-1.4212749568962662,0.0
0.21567239514008546,0.15218977192008726,-0.9603233960398113,-0.05663419663225789,0.6737443908841507,-2.0000092814244117,0.0
0.24738423631928505,-0.015183294284233114,-0.7358527656742795,0.03294241430702594,0.9466391775120715,-2.3039815109602433,0.0
0.4891864702091297,0.08352389643848503,-0.8274734270383179,-0.13479977875219865,0.6528529081159429,-2.1990061564967855,0.0
0.6318894779647514,0.17364784568322283,-0.7312717225824397,-0.6106398960702786,0.3564552033737885,-1.884992689922804,0.0
0.5129703510935294,0.233730478513048,-0.7358527656742795,-0.5832533976765367,0.11555044399535683,-1.7973609502633352,0.0
0.43369102569630374,0.2895215041025448,-0.607583829740988,-0.4149406473482787,-1.3631737775701218,-1.604753856140408,0.0
0.5446821922727287,0.35818737019377367,-0.5526114329225651,-0.15705128782045782,-1.010630292516022,-1.036060679581818,0.0
0.576394033451928,0.2938131301236199,-0.6121648628091899,0.19269687518863315,-1.2685094134946675,-0.8361509404872685,0.0
0.4891864702091297,0.30239634460427695,-0.8824458238567408,0.059758341513963455,-0.8545971181813441,-0.002737131429393434,0.0
0.5605381128623271,0.36677062223592427,-0.9374182206751637,-0.12624150496303962,-0.7299011679989782,0.4454624058808204,0.0
0.49711443050392917,0.2294388712727196,-0.8320544701301577,0.1407766734449243,-0.3192532544585615,0.28297866659796445,0.0
0.49711443050392917,0.2294388712727196,-0.8320544701301577,0.12423068487536129,-0.2755117363009103,0.2482911252499065,0.0
0.3623393830431076,0.4268532362850026,-0.8824458238567408,0.1607459882314757,-0.2507031164391861,0.20264961644441495,0.0
0.43369102569630374,0.448311328828885,-0.9236751314941957,0.10768468238802763,-0.4987893150564278,0.4098620450448841,0.0
0.3425197598568813,0.21227240474991244,-1.2351853801319257,-0.07318019911959155,-0.4256691572187457,1.1583826647589135,0.0
0.4812585099143308,0.2423137117744516,-1.2260233741373494,-0.3436216759090025,0.372123783598899,2.223655343113451,0.0
0.45351092643330443,0.25948019707800557,-1.1114974973141123,-0.4759896958076719,1.2521769537418848,3.3920776478870964,0.0
-0.03802177919195874,0.31956281112708396,-0.708366567265068,-0.4480326523229458,1.173181010636315,4.207234847299307,0.0
0.5684660731571259,0.25518857105693044,-1.6108301117717585,-0.6266153256310865,0.820637525582215,4.370631539672933,0.0
-0.010273918160159526,0.11356521285339763,-0.8412165162192856,0.3136538401721394,1.21300539170045,4.710204130044701,0.0
-0.010273918160159526,0.11356521285339763,-0.8412165162192856,0.5350278963438457,1.2782912435000542,4.388888107567694,0.0
0.14432103003766147,-0.14393180376945722,-0.5892596974681803,0.7809356419477483,0.9570849188961754,4.183501273408686,0.0
0.8380161680787704,-0.3542210468449658,-0.8503786024029654,0.6069174128741059,1.1914610899095421,2.494765714811279,0.0
0.8380161680787704,-0.3542210468449658,-0.8503786024029654,0.49280705857126433,1.4676202264593243,2.6709419690837986,0.0
0.1799968513642605,-0.26838869545018285,-0.6625562365830489,0.3056661253917353,0.9420691895448101,3.258804666627918,0.0
0.671529279438749,-0.3542210468449658,-0.4930579955182118,0.1550404677327795,0.596054213228162,2.7275374008124267,0.0
0.8578360688157705,-0.5688018595993087,-0.5480303998543631,-0.02183054594630966,0.34470372839114893,2.052043141746027,0.0
0.8578360688157705,-0.5688018595993087,-0.5480303998543631,0.03807737927640986,0.6260857356329833,1.1821162386495376,0.0
0.66360131914395,-0.6546342297748384,-0.6121648628091899,-0.5524435730658064,1.3474942642442198,0.03925304793180298,0.0
0.9450433545077925,-0.6374677632520312,-0.6671372596276128,0.01240255421202509,1.0628479707826146,-0.12596918460710818,0.0
0.5684660731571259,-0.5559270190975769,-0.2823304618513764,0.08200986102055068,0.46939971042456013,-0.3067095363190202,0.0
0.42179908525410575,-0.5173024600308872,-0.4105993952787584,0.01240255421202509,0.17822484452341242,-0.17526201589841095,0.0
0.27909607749848336,-0.5044276195291554,-0.406018359704647,-0.16846232881785025,-0.48050926763424606,-0.23824727311078292,0.0
0.350447442600908,-0.47867793852569135,-0.34646492480620317,-0.24092239043909475,-0.9486087269361887,-0.06298391626116195,0.0
0.40197918451710446,-0.47438631250461594,-0.4793148963136061,-0.40638235964134867,-0.6861596816923722,-0.011865432077134305,0.0
0.4654028668755062,-0.49155277902742317,-0.5892596974681803,-0.3316400898206258,-0.244827394873389,-0.11410239766179604,0.0
0.4138711249593069,-0.5044276195291554,-0.6213269289455937,-0.2112536977636451,-0.002616925349242092,-0.28571444315917993,0.0
0.40594316466450736,-0.5258857120730378,-0.4976390310923231,-0.2757260306867149,-0.3682176433082646,-0.9639470938877696,0.0
0.350447442600908,-0.487261153006348,-0.4701528289242475,-0.34191004063604963,-0.6783253438032488,-1.1766365730184007,0.0
0.5248622915357287,-0.4014288203923122,-0.6213269289455937,-0.1650390165186325,-0.5777851626088619,-0.616158905453609,0.0
0.46936684702290593,-0.3799707278484298,-0.6762993257640167,-0.09257895489738799,-0.32578182689810375,-0.7238728519835936,0.0
0.40990714481190715,-0.47009468648354075,-0.6625562365830489,-0.024112754145788156,-0.1312300289861106,-1.5499839743189427,0.0
0.3821592837801076,-0.47438631250461594,-0.6671372596276128,-0.2762966036132406,0.21086777042321458,-3.4295010771321133,0.0
-0.0221658586023591,-0.6374677632520312,-0.6167458958773918,-0.43319831294410643,-0.17431868830725536,-4.871772434738705,0.0
0.19188879180646007,-0.19972282935895405,-0.4976390310923231,-0.03324157998481675,-0.08487708344519475,-2.2775096122088754,0.0
0.3583754028957075,0.053482580023572424,-0.5388683337179593,0.2560281179297343,0.08029609071229005,-2.187139369551473,0.0
0.576394033451928,-0.1053072493979543,-0.7725010302198948,0.42662307645747094,0.6965943944225489,-1.2934788034957654,0.0
0.6556733588491506,0.019149642282771308,-0.712947590309632,0.26629804090961684,0.5222812363677799,-0.2638065082443128,0.0
0.6517093787017514,-0.0752659329830417,-0.5480303998543631,0.1984023956873293,-0.04309414577844368,-0.20721105424853625,0.0
0.38612326392750734,-0.19972282935895405,-0.4976390310923231,-0.05149923514231662,-0.5908423711900368,-0.7320882719087977,0.0
0.3226998591198826,-0.169681503553668,-0.4976390310923231,0.0318013102072867,-0.6404596109134852,-0.5413068612959249,0.0
0.3583754028957075,0.032024492174876705,-0.5984217636045842,-0.16560956160961676,-0.6672267833964449,0.3505280880511745,0.0
0.43369102569630374,0.010566406673774379,-0.6900424349922603,0.08486261431101345,-0.7338183369435396,0.7658657424728427,0.0
0.6239615176699519,-0.12247372061594822,-0.6900424349922603,0.32791763445999467,-0.1801944098730525,0.9128313277902782,0.0
0.505042390798728,-0.1053072493979543,-0.7358527656742795,-0.007566753398175812,-0.41000057699363496,0.20173678582296217,0.0
0.5327902518305275,-0.1396401871387554,-0.7908251624927023,0.059758341513963455,-0.4759392796669844,0.3185790274339008,0.0
0.3940512242223062,-0.1825563534457734,-0.6671372596276128,0.09285034300918814,-1.3723138809088258,0.6234642545947997,0.0
0.40197918451710446,-0.1053072493979543,-0.6671372596276128,0.2138072940749238,-0.6789782265280392,0.828851044219512,0.0
0.4376550058437035,-0.09243239950584889,-0.7954062055845421,-0.0018612381186436002,-0.46418780468434484,0.5358325594696278,0.0
0.5526101525675282,-0.1653898869229662,-0.8687027346757726,-0.03324157998481675,-0.22981164959650088,0.32314319167473915,0.0
0.6120695772277539,-0.1653898869229662,-0.8870268669485805,-0.10798385328498243,-0.4517835106790054,0.1825673650396019,0.0
0.3425197598568813,-0.1525150370308608,-0.8274734270383179,-0.08858509054830066,-0.219365908212397,-0.25285256305402776,0.0
0.5645020930097262,-0.1739731201843698,-0.909932042313228,0.17044536612037392,0.865684777338402,-0.32131480399511647,0.0
0.4891864702091297,-0.1782647368150716,-0.7908251624927023,0.05062951567493486,0.6802729633236931,-0.4427211987133192,0.0
0.4257630654015049,-0.15680665366156263,-0.8045682516736703,-0.11540102297440216,0.5248926717138056,-0.39616687041994914,0.0
0.3464834624535079,-0.169681503553668,-0.7221096564460359,-0.12852371316251812,0.31010224987011126,-0.35600236761032306,0.0
0.42179908525410575,-0.11818210398524638,-0.6900424349922603,-0.08573233029895254,0.17561342510290912,-0.12596918460710818,0.0
0.6041418944837244,-0.12676533724665,-0.6121648628091899,-0.0012906860687739792,0.49224974581400355,0.00547833720519786,0.0
0.6318894779647514,-0.1010156327672525,-0.7725010302198948,-0.18158501900596616,0.7109573047512144,0.313102043705184,0.0
0.6318894779647514,-0.1010156327672525,-0.7725010302198948,0.3330525959499358,1.5466160421607134,0.037427388080594155,0.0
0.5605381128623271,-0.20401443659928242,-0.7954062055845421,0.29939004588428425,1.2789440625227542,-0.3185763232643323,0.0
0.44954694628590464,-0.06239108074334294,-0.6121648628091899,0.3878255649018781,0.7990931600892168,-0.006388453915204647,0.0
0.4257630654015049,0.010566406673774379,-0.5571924659907669,0.02951910374752955,0.35906663871981453,-0.1980827480340082,0.0
0.5129703510935294,-0.11818210398524638,-0.5800976313317765,0.023243035548267052,-0.03787127906777238,0.16065944125830892,0.0
0.30287995838288284,-0.11818210398524638,-0.3143976933287898,-0.2335052207496751,-0.5379608452468173,0.46371901830987644,0.0
0.3464834624535079,-0.05380784748193935,-0.4426666286356039,-0.20041321577500762,-0.7142325559228222,0.4792371277409999,0.0
0.4654028668755062,-0.11818210398524638,-0.5159631633651308,0.08828592661023117,-0.7651555610958514,0.07120209880719928,0.0
0.5248622915357287,-0.13534857050805357,-0.5709355651953727,0.13735337506347725,-0.7142325559228222,-0.05476844066808676,0.0
0.501078410651329,-0.13534857050805357,-0.7266906995378756,0.13963558326295572,-0.46875782450265174,-0.10040994947357829,0.0
0.4654028668755062,-0.14822342040015898,-0.6442321043102411,0.3028133442657314,-0.3022789406349151,-0.37699743850301454,0.0
0.5248622915357287,-0.13534857050805357,-0.6442321043102411,0.33761701234889285,0.015010250856827789,-0.349612542126579,0.0
0.417835105106706,-0.0795575496137435,-0.7175286334014719,0.21437783916590808,0.20499204885741737,-0.022819391184387243,0.0
0.35441142274830806,-0.0709743163523399,-0.653394170446645,0.038647931326279486,-0.15081578611854418,-0.09402013512340868,0.0
0.5486461724201285,-0.09672401613655071,-0.7495958749025231,0.14990550624283824,0.5359912321206095,-0.1834774803579119,0.0
0.5407182121253258,-0.09243239950584889,-0.6671372596276128,0.17101592512912886,0.7847303134626418,-0.25832954678274456,0.0
0.40594316466450736,-0.12676533724665,-0.6259079720374335,0.19326743419738807,0.6502415046209623,-0.03194769183212813,0.0
0.27513209735108396,-0.12676533724665,-0.5984217636045842,0.2035373571772706,0.34274517576991337,0.17617755068943228,0.0
0.6199975375225522,-0.1396401871387554,-0.5571924659907669,0.30224279917474706,0.8767833377452059,-0.1789133161170736,0.0
0.6001779143363253,-0.16109827029226442,-0.6167458958773918,0.3872549919753527,1.9030767598614653,-0.2893657656449912,0.0
0.46936684702290593,-0.0709743163523399,-0.502220064160525,0.5749664980814073,2.6192622903764686,-0.25832954678274456,0.0
0.3187358789724822,-0.04093299641603727,-0.5617734990589689,0.3028133442657314,1.897853825467323,0.08763303607638186,0.0
0.3702673433379074,-0.03664137919843713,-0.4105993952787584,-0.06462191837154724,1.258705526181427,0.32314319167473915,0.0
0.39008724407490647,-0.03664137919843713,-0.2823304618513764,-0.33620450621958287,0.2768064730965639,0.3057994210007102,0.0
0.5486461724201285,-0.0881407828751471,-0.3098166602605879,-0.6106398960702786,-0.35646616832562505,0.1487926543129968,0.0
0.47333082717030506,-0.13534857050805357,-0.21361495580470985,-0.3670143029947717,-0.42044628652669364,0.10862812923622202,0.0
0.5922499540415258,-0.14393180376945722,-0.2273580650329535,-0.024683302716215095,0.3577609051212789,0.0027398467325362393,0.0
0.5129703510935294,-0.13534857050805357,-0.4335045618727226,0.00783814064011529,0.9499034637318428,-0.07850202569228532,0.0
0.417835105106706,-0.09243239950584889,-0.3418838917380013,0.0888564786601008,0.5829970683490773,0.2154292451447542,0.0
0.3623393830431076,-0.0752659329830417,-0.2640063295785688,0.0917092389094489,-0.08618280111820774,0.17526472006797947,0.0
0.47333082717030506,-0.11389048735454461,-0.29607356105598215,0.16359874152193846,0.10902186359305319,-0.0711993807206629,0.0
0.5288262716831285,-0.13534857050805357,-0.406018359704647,0.06261110176331157,0.6156399942488794,-0.1661337096838829,0.0
0.3623393830431076,-0.10959887072384282,-0.27316839571497264,0.010120347534802773,0.41194816466303397,-0.1277948458500138,0.0
0.39008724407490647,-0.1053072493979543,-0.2090339327601458,-0.023542202095918535,-0.1312300289861106,0.1615722718797617,0.0
0.5367542319779267,-0.0752659329830417,-0.2090339327601458,0.14477054475289697,0.38256952498300295,0.05020700843075269,0.0
0.5129703510935294,-0.0709743163523399,-0.305235627192386,0.17215701531109742,0.8826590911620481,-0.13692314093096752,0.0
0.5129703510935294,-0.0709743163523399,-0.305235627192386,0.042641792195924164,0.4054195603724463,-0.07850202569228532,0.0
0.40197918451710446,-0.0881407828751471,-0.1952908235319022,-0.010990063957672205,-0.05158130667164745,-0.07393787258502131,0.0
0.417835105106706,-0.0881407828751471,-0.21819599889654961,-0.05264033924205586,-0.2050030297347767,0.009129656907615497,0.0
0.417835105106706,-0.0881407828751471,-0.21819599889654961,-0.046934818743359655,-0.2526617009114669,-0.09858428823067268,0.0
0.4812585099143308,-0.0838491662444453,-0.25942528648672897,0.0563350326941884,0.1273018950897124,-0.1305333377143722,0.0
0.39801520436970533,-0.0838491662444453,-0.3647890570790108,0.03465406871691347,-0.015021234720222527,0.040165878553255784,0.0
0.39801520436970533,-0.0838491662444453,-0.3647890570790108,-0.20554817726494898,-0.5242507857918972,0.2519424477357177,0.0
0.33855577970948186,0.001983173412370764,-0.33730285866979937,-0.10513108607674898,-0.4955250288366566,0.20264961644441495,0.0
0.4891864702091297,-0.1868479700764752,-0.25484426344216493,0.00783814064011529,-0.07312563235083915,-0.08306617879954932,0.0
0.4891864702091297,-0.1868479700764752,-0.25484426344216493,-0.06804523067076494,0.04895888646688159,-0.19990840927691378,0.0
0.45747490658070356,-0.09672401613655071,-0.30065459412418405,-0.24833956012851446,-0.8748357182247616,0.003652677353989041,0.0
0.38612326392750734,-0.09672401613655071,-0.26858735262313277,-0.29740699466398984,-1.4245424604251646,0.194434151984914,0.0
0.4812585099143308,-0.10959887072384282,-0.24110115421392128,-0.004713996628270375,-0.47006352625014214,-0.03103486121067531,0.0
0.5486461724201285,-0.0838491662444453,-0.41518042834696034,0.17329811941083667,0.5888727580638291,-0.1624823871980717,0.0
0.501078410651329,-0.0752659329830417,-0.41518042834696034,0.11339020288672381,0.35384376802776246,-0.13601031030951474,0.0
0.40594316466450736,-0.04951623085123754,-0.41976146141516224,-0.01213116805741145,-0.1586500762310995,0.08580738040026341,0.0
0.37423132348530685,-0.04522461304673907,-0.29607356105598215,-0.05834585278186675,-0.4034719727030475,0.13875151747701597,0.0
0.48522249006173057,-0.11818210398524638,-0.25026322035032517,-0.08858509054830066,-0.0039226422135371355,-0.1296205070929194,0.0
0.4772945297669317,-0.11818210398524638,-0.3693700951590317,-0.08173847290875053,0.03981887071855196,-0.3012325525903033,0.0
0.4812585099143308,-0.04951623085123754,-0.4014373266364451,-0.07203909501985231,-0.031342694684088096,-0.6444566213179229,0.0
0.39801520436970533,-0.0795575496137435,-0.30065459412418405,-0.02867716706530245,-0.2644131440430612,-0.36147932907189106,0.0
0.43369102569630374,-0.10959887072384282,-0.26858735262313277,0.18014474400927213,0.6626457667752567,0.2619835734381243,0.0
0.6120695772277539,-0.1310569538773518,-0.3143976933287898,0.14534108984388128,1.1026723518467494,0.49840655965793446,0.0
0.5684660731571259,-0.09672401613655071,-0.46099076216136625,-0.2740143954137621,1.0595836845628432,0.5969921777062428,0.0
0.501078410651329,-0.09672401613655071,-0.4701528289242475,-0.33335175292912,1.3292141849709929,0.24555262225197383,0.0
0.42179908525410575,-0.1310569538773518,-0.4701528289242475,-0.0691863347705042,1.5981919300585328,0.4189903289922634,0.0
0.48522249006173057,-0.12247372061594822,-0.09450809603146006,0.29140233110388025,0.6012770839202138,0.4326827994476297,0.0
0.45747490658070356,-0.12676533724665,-0.07160292066681256,0.18242695220875063,0.20107489583837845,0.10041265920993396,0.0
0.3425197598568813,-0.15680665366156263,-0.10825118521242805,-0.09200840284751838,-0.025466969136910288,0.04381719825567342,0.0
0.3702673433379074,-0.1396401871387554,-0.2365201311693573,-0.31224133404282933,0.25983215927291775,0.2263831903350393,0.0
0.6239615176699519,0.001983173412370764,-0.46099076216136625,0.15789323494101293,2.380969077822721,0.638982364025923,0.0
0.520898311388329,-0.1396401871387554,-0.13573738362163942,-0.21011259366390586,1.0171479000037278,0.29301979230037095,0.0
0.33855577970948186,-0.15680665366156263,0.09789531288029588,-0.11311881477492368,0.433492498304987,0.10497680675041084,0.0
0.35441142274830806,-0.16109827029226442,0.06124704833468072,0.1099668905875061,0.2963922222662361,0.022822107705264723,0.0
0.3345917995620818,-0.1739731201843698,-0.007468437664710184,0.3678562361975561,0.1194675970143958,-0.029209205534556835,0.0
0.40594316466450736,-0.14393180376945722,0.006274651516257844,0.4209175420410042,-0.028078402492245937,-0.10588692206872082,0.0
0.45351092643330443,-0.1396401871387554,-0.04869774530216507,0.31650659346260224,-0.24156309272809517,-0.2692834919730296,0.0
0.49315045035653005,-0.1396401871387554,-0.05327878839400481,0.25089315643979315,-0.3061960777284316,-0.349612542126579,0.0
0.4257630654015049,0.006274790043072553,-0.18154773435093433,0.11510185207744736,-0.8630842750931671,-0.28571444315917993,0.0
0.40990714481190715,-0.023766528425984222,-0.02121156694022943,0.28683791470492315,-1.1438134633123016,-0.17708765487416803,0.0
0.3583754028957075,-0.05809946411264115,-0.01663052384838965,0.1670220538211562,-1.3853710257879106,-0.0949329657448615,0.0
0.3821592837801076,-0.05809946411264115,-0.2273580650329535,-0.25347452161845585,-0.8389285061051884,0.09858699796702836,0.0
0.7864844261625736,-0.0066000598490328355,-1.0840113189521767,0.1424883365534185,1.0569722810678626,0.121407746802987,0.0
0.5129703510935294,-0.0752659329830417,-0.0761839637586523,-0.07203909501985231,-0.05810989105533174,0.13418736436975195,0.0
0.3425197598568813,-0.0709743163523399,-0.05327878839400481,-0.09314950694725763,-0.38715050975314635,0.0419915384044646,0.0
0.310807918677683,-0.04522461304673907,-0.06702187757497284,-0.23749906422210634,-0.7880055646342495,-0.024645052427292823,0.0
0.33062781941468206,-0.03664137919843713,-0.20445288966830594,-0.11368935986590796,-0.6241381161125389,-0.04929146250615707,0.0
0.4614388867281039,-0.0795575496137435,-0.27316839571497264,-0.053210884333040144,-0.5888837867177563,0.012780978001729922,0.0
0.5446821922727287,-0.1525150370308608,-0.2273580650329535,0.12080737257614356,-0.13580004084165612,0.05933530907849357,0.0
0.5486461724201285,-0.12676533724665,-0.14948049284988307,0.3707089894880188,0.241552111850736,-0.08124051755664372,0.0
0.501078410651329,-0.09243239950584889,-0.1678046251226907,0.36728569110657183,0.44981396125488793,0.00730399705640668,0.0
0.3702673433379074,-0.05809946411264115,-0.3143976933287898,-0.06291026918082372,0.007175950790820834,0.03468889760793254,0.0
0.4891864702091297,-0.10959887072384282,-0.30065459412418405,-0.05149923514231662,0.0548346120140594,-0.012778262698587122,0.0
0.44954694628590464,-0.05809946411264115,-0.2640063295785688,-0.0845912261992133,0.0874775379138615,0.042904367634220626,0.0
0.4654028668755062,-0.04951623085123754,-0.2640063295785688,0.01924917424369204,0.25917929247364996,0.09676133672412274,0.0
0.49315045035653005,-0.05809946411264115,-0.21361495580470985,0.11053744263737572,0.4524253647498688,0.07667907975252253,0.0
0.47333082717030506,-0.06668269737404477,-0.19070980048733818,0.10369081803894029,0.3864866939275646,0.05568398937607593,0.0
0.3464834624535079,-0.0838491662444453,-0.08992705293962033,0.152758259533301,0.13578905996429683,0.08489454977881061,0.0
0.3623393830431076,-0.1396401871387554,-0.09450809603146006,0.023243035548267052,-0.3055432268546864,0.09037152794074028,0.0
0.5565741327149274,-0.169681503553668,-0.22277702194111365,-0.06348082123069333,-0.15212150379155717,-0.0200809021034224,0.0
0.5724300533045282,-0.1396401871387554,-0.15864255898628687,0.0831509581614046,0.27288930415200247,0.010955318150521103,0.0
0.45747490658070356,-0.09672401613655071,-0.10825118521242805,0.09342088810017242,0.330993732638319,0.0419915384044646,0.0
0.3940512242223062,-0.10959887072384282,-0.06244087457768464,0.46370892490456966,0.4609125535127371,-0.1533540809835437,0.0
0.4257630654015049,-0.09672401613655071,-0.23193908807751748,0.5955063440411723,0.8513218670097364,-0.20447257351775208,0.0
0.588285973894126,-0.14822342040015898,-0.15864255898628687,0.46199726179607553,1.0419564880144065,-0.11501522828324887,0.0
0.31477189882508244,-0.0795575496137435,-0.2090339327601458,0.09113868685957928,0.4106424310644984,-0.01003977361762228,0.0
0.3068439385302829,-0.11818210398524638,0.010855694608097531,0.08714482251049192,-0.24809168109316002,0.1780032119323379,0.0
0.350447442600908,-0.06668269737404477,-0.1952908235319022,-0.05777530073199712,-0.11556142487271608,0.03468889760793254,0.0
0.5407182121253258,-0.11818210398524638,-0.18154773435093433,-0.11711267216512569,-0.03787127906777238,-0.03833750061551058,0.0
0.4812585099143308,-0.10959887072384282,-0.16322360207812672,-0.12338873775480619,-0.08487708344519475,-0.0702865500992101,0.0
0.44558296613850557,-0.1053072493979543,-0.12657531748523557,-0.14792246894031455,-0.123395730910794,-0.041075992479869004,0.0
0.4257630654015049,-0.0881407828751471,-0.039535699213037144,0.010120347534802773,-0.029384120165258935,-0.011865432077134305,0.0
0.4297270455489046,-0.0881407828751471,-0.02121156694022943,0.12080737257614356,0.07768465536626408,0.08489454977881061,0.0
0.40197918451710446,-0.11389048735454461,-0.05327878839400481,0.283414588487935,0.08094894954879654,0.12414623866734538,0.0
0.417835105106706,-0.09243239950584889,-0.11283222830426778,0.25716920811170285,0.09857613017171059,0.0821560579144522,0.0
0.42179908525410575,-0.1310569538773518,-0.13115636057707541,0.26515695072764844,-0.011104084687219047,0.014606637852938743,0.0
0.417835105106706,-0.15680665366156263,-0.14031842671347922,0.2845557065054447,-0.15016291931927636,-0.09036881263759747,0.0
0.5327902518305275,-0.1010156327672525,-0.2456821973057611,0.13221839965576532,0.1586390953537402,-0.04016316185841618,0.0
0.45351092643330443,-0.03234976227428616,-0.22277702194111365,0.30452500737422544,-0.263760293169316,-0.117753709014033,0.0
0.39008724407490647,0.001983173412370764,-0.10367014212058799,0.2623041974371856,-0.692035371407124,-0.1195793702569386,0.0
0.39801520436970533,-0.04522461304673907,-0.14948049284988307,0.09855585654899901,-0.8604728715981866,-0.046552970641798676,0.0
0.39801520436970533,-0.04522461304673907,-0.14948049284988307,-0.03894709700407029,-0.5869252022454754,0.16704924447490427,0.0
0.48522249006173057,-0.11818210398524638,-0.0990891391232998,0.11795461232679548,-0.2089201827538156,0.11410510739815172,0.0
0.4614388867281039,-0.1739731201843698,-0.14489944975804328,0.16302819643095418,-0.1475514839732504,0.01825795755535638,0.0
0.4654028668755062,-0.1396401871387554,-0.2640063295785688,0.08200986102055068,-0.18672299823811744,-0.13692314093096752,0.0
0.46936684702290593,-0.12676533724665,-0.26858735262313277,0.20410791618602556,-0.2526617009114669,-0.22729330565334924,0.0
0.4614388867281039,-0.06668269737404477,-0.2640063295785688,0.12537178201621518,-0.12078429556476802,-0.1277948458500138,0.0
0.4654028668755062,-0.01947491150183325,-0.2365201311693573,0.04150068983590626,0.03655458051740014,-0.06298391626116195,0.0
0.4654028668755062,-0.01947491150183325,-0.2273580650329535,-0.03552378470485257,0.07311465147347994,0.021909277605698215,0.0
0.4376550058437035,-0.04522461304673907,-0.20445288966830594,-0.19299604608558793,0.1827948643417192,0.09493568104800428,0.0
0.501078410651329,-0.06668269737404477,-0.20445288966830594,-0.29398369628254284,0.8780890394926962,0.25833225095231305,0.0
0.501078410651329,-0.1782647368150716,0.015436697605385727,-0.05492254048264901,0.38061094051072225,0.23003451282085047,0.0
0.520898311388329,-0.01947491150183325,-0.29607356105598215,0.14933496115185393,1.0106193275641853,0.17891604255379068,0.0
0.33062781941468206,-0.010891677653531313,-0.12199429444067168,-0.037805992904331044,0.009134526304995156,0.09858699796702836,0.0
0.3226998591198826,-0.06668269737404477,-0.14489944975804328,-0.316235205350802,-0.6626567954291834,0.04838134718784708,0.0
0.4297270455489046,-0.11818210398524638,-0.17238566821453052,-0.3453333390174967,-0.5810494488286329,0.01734512762975197,0.0
0.49315045035653005,-0.14393180376945722,-0.18154773435093433,-0.14963411813103808,-0.17366582150798757,-0.08032768693519093,0.0
0.49711443050392917,-0.11818210398524638,-0.14948049284988307,0.3849727837758741,0.3486208973357106,-0.00730128175326388,0.0
0.2989159782354831,-0.11818210398524638,-0.13115636057707541,0.3353348041494144,-0.49095500901834993,-0.025557883048745636,0.0
0.3702673433379074,-0.06239108074334294,-0.06244087457768464,0.11567240412731697,-0.8989914872127405,1.3576515714027105e-06,0.0
0.3702673433379074,-0.06239108074334294,-0.06244087457768464,0.15789323494101293,-0.9714587941766775,-0.056594101910992345,0.0
0.501078410651329,-0.11818210398524638,-0.1678046251226907,0.46085617161410697,-0.47267496159616795,-0.13783597155242036,0.0
0.5526101525675282,-0.0881407828751471,-0.3281407925333955,0.46599113310404816,-0.2043501788610315,-0.1624823871980717,0.0
0.4772945297669317,-0.05380784748193935,-0.406018359704647,0.36500348290709334,-0.14885720164626337,-0.020993732724875185,0.0
0.4772945297669317,-0.05380784748193935,-0.406018359704647,0.05062951567493486,-0.45765923224480265,0.10680246799331644,0.0
0.417835105106706,-0.04951623085123754,-0.21819599889654961,0.0226724843682581,-0.38192767091213975,0.11227945172203325,0.0
0.4416189859911058,-0.05809946411264115,-0.18154773435093433,0.16759261282991114,-0.29575033634432774,0.04655568872833504,0.0
0.44954694628590464,-0.04522461304673907,-0.2273580650329535,0.17101592512912886,-0.20043302584199252,0.03286323775672372,0.0
0.4416189859911058,-0.0752659329830417,-0.3693700951590317,0.04549455070555093,-0.2931389009983017,-0.002737131429393434,0.0
0.4654028668755062,-0.09672401613655071,-0.34646492480620317,0.03750682722654024,-0.11882571905524854,-0.012778262698587122,0.0
0.49711443050392917,-0.06668269737404477,-0.31897872639699176,-0.009848961597654303,0.062016055234250175,0.009129656907615497,0.0
0.4772945297669317,-0.05809946411264115,-0.32355975946519366,-0.10398998197700975,0.04047172955505847,0.05568398937607593,0.0
0.47333082717030506,-0.04522461304673907,-0.3418838917380013,-0.18786108459564677,0.260485010146663,0.09037152794074028,0.0
0.505042390798728,-0.04951623085123754,-0.3510459578744051,-0.4640081097192952,0.38779239567505497,0.20538810830877338,0.0
0.505042390798728,-0.04951623085123754,-0.33272182560159747,-0.6346030125759491,0.5764684959095348,0.2446398027640953,0.0
0.5090063709461303,-0.04951623085123754,-0.20445288966830594,-0.41379952933076863,0.8167203566376535,0.23551149654956727,0.0
0.49315045035653005,-0.05380784748193935,-0.18154773435093433,-0.11026606148446091,0.8702547653056635,0.20812660017313178,0.0
0.5169343312409298,-0.0881407828751471,-0.21361495580470985,0.00612648623022776,0.6104171235568273,0.1734390588250739,0.0
0.4654028668755062,-0.0881407828751471,-0.199871866623742,0.09456199219991165,1.1516367088454074,0.1268847305317038,0.0
0.40197918451710446,-0.09672401613655071,-0.11283222830426778,0.05747613679392765,0.5594941820858886,-0.04016316185841618,0.0
0.39008724407490647,-0.06668269737404477,-0.09450809603146006,-0.1017077807364166,0.44720252590886195,0.04381719825567342,0.0
0.3187358789724822,-0.0752659329830417,-0.01663052384838965,-0.048075922843098896,-0.016326951397890352,0.04564285810688224,0.0
0.39801520436970533,-0.0709743163523399,-0.007468437664710184,-0.024112754145788156,0.06593320427190848,0.021909277605698215,0.0
0.44954694628590464,-0.09672401613655071,-0.057859831485844906,0.0066970374102367156,0.05614032968707236,0.00547833720519786,0.0
0.44558296613850557,-0.09672401613655071,-0.13573738362163942,-0.005855098988288273,0.05614032968707236,0.040165878553255784,0.0
0.45351092643330443,-0.0752659329830417,-0.15864255898628687,-0.004713996628270375,0.07180893380046693,0.0027398467325362393,0.0
0.44558296613850557,-0.0881407828751471,-0.13573738362163942,-0.0007201340189043581,0.06528034543540198,0.022822107705264723,0.0
0.44558296613850557,-0.0795575496137435,-0.0853460098477806,-0.0035728925285311293,0.04504173742922328,0.010955318150521103,0.0
0.4614388867281039,-0.09672401613655071,-0.11283222830426778,-0.009848961597654303,0.04177744722807146,0.01734512762975197,0.0
0.45747490658070356,-0.1010156327672525,-0.13115636057707541,0.0021326244907224133,0.062016055234250175,0.04107870778301179,0.0
0.44558296613850557,-0.1053072493979543,-0.14031842671347922,-0.004143444578400757,0.06071034154261783,0.04746851795809105,0.0
0.4416189859911058,-0.09672401613655071,-0.12199429444067168,-0.01041951190780257,0.06266891407075666,0.0419915384044646,0.0
0.44558296613850557,-0.11818210398524638,-0.11741325134883158,-0.006996203088027522,0.05026460413989458,0.03560172822938534,0.0
0.44954694628590464,-0.11389048735454461,-0.12657531748523557,0.001562072440852792,0.04765317277524925,0.04838134718784708,0.0
0.4376550058437035,-0.1053072493979543,-0.12657531748523557,0.010120347534802773,0.03524886284438717,0.03651455745914136,0.0
0.4376550058437035,-0.1010156327672525,-0.14489944975804328,0.004985382130488516,0.03981887071855196,0.05020700843075269,0.0
0.4416189859911058,-0.1053072493979543,-0.16322360207812672,0.0066970374102367156,0.01762168421216344,0.04473002748542944,0.0
0.45747490658070356,-0.1053072493979543,-0.16322360207812672,0.02780744933764202,0.02219169407701858,0.01917078748096079,0.0
0.45747490658070356,-0.1010156327672525,-0.15406151589444703,0.024954690828015248,0.02937313729720936,0.04107870778301179,0.0
0.45351092643330443,-0.1053072493979543,-0.14948049284988307,0.004414830950479565,0.02545598626886072,0.05568398937607593,0.0
0.45747490658070356,-0.10959887072384282,-0.17238566821453052,0.018678622628752754,0.02349740975934124,0.062073798159458404,0.0
0.4614388867281039,-0.11818210398524638,-0.14948049284988307,0.016966967566469725,0.030678852979532014,0.05659681721413516,0.0
0.4614388867281039,-0.12676533724665,-0.16322360207812672,0.009549795919863486,0.031984568661854694,0.05933530907849357,0.0
0.45351092643330443,-0.1310569538773518,-0.1678046251226907,0.0272368972877724,0.012398817501492137,0.07211492664525852,0.0
0.44558296613850557,-0.12676533724665,-0.16322360207812672,0.021531381138379525,0.004564516937812605,0.10315115107429237,0.0
0.44558296613850557,-0.1396401871387554,-0.12657531748523557,0.022101932318388477,0.0039116585989786914,0.09584850610266996,0.0
0.4614388867281039,-0.1310569538773518,-0.17238566821453052,0.01924917424369204,0.01762168421216344,0.11136662110058047,0.0
0.44558296613850557,-0.11389048735454461,-0.15864255898628687,0.024384139648006297,0.011745959660330806,0.13418736436975195,0.0
0.4376550058437035,-0.12676533724665,-0.1678046251226907,0.023813587598136673,0.008481667468488661,0.1277975611531566,0.0
0.4376550058437035,-0.12676533724665,-0.17238566821453052,0.03750682722654024,-0.03656556139475939,0.1524439656652337,0.0
0.417835105106706,-0.12676533724665,-0.14031842671347922,0.02837800138751164,-0.03395412803942374,0.15883378001540333,0.0
0.4257630654015049,-0.12676533724665,-0.1952908235319022,0.05804668884379726,-0.041135569268924206,0.12962322239606222,0.0
0.4416189859911058,-0.1396401871387554,-0.18154773435093433,0.07288103170207941,-0.02285553578157464,0.0839817191573578,0.0
0.44558296613850557,-0.12676533724665,-0.14948049284988307,0.05690558474405801,-0.019591243589732497,0.05750964783558794,0.0
0.4376550058437035,-0.11389048735454461,-0.14031842671347922,0.0563350326941884,-0.024814110300403803,0.0821560579144522,0.0
0.4257630654015049,-0.10959887072384282,-0.15406151589444703,0.05005896362506525,-0.028731261328752443,0.023734937717850183,0.0
0.4376550058437035,-0.10959887072384282,-0.14948049284988307,0.04834731095489903,-0.03003697900176544,0.008216827677859485,0.0
0.45351092643330443,-0.12247372061594822,-0.12199429444067168,0.06489330648334737,-0.03982985557729186,0.0045655079754418435,0.0
0.47333082717030506,-0.09672401613655071,-0.16322360207812672,0.06489330648334737,-0.002616925349242092,0.003652677353989041,0.0
0.4772945297669317,-0.11818210398524638,-0.11741325134883158,0.058617240893666885,0.02088597640400559,-0.012778262698587122,0.0
0.47333082717030506,-0.1525150370308608,-0.06244087457768464,0.06945772288230435,0.05679318852357887,-0.0200809021034224,0.0
0.46936684702290593,-0.1525150370308608,-0.08992705293962033,0.06432275443347778,0.06266891407075666,0.009129656907615497,0.0
0.45351092643330443,-0.1396401871387554,-0.06244087457768464,0.0745926843722456,0.06593320427190848,-0.00547562329375185,0.0
0.47333082717030506,-0.12676533724665,-0.05327878839400481,0.05062951567493486,0.07703179652975758,0.022822107705264723,0.0
0.4654028668755062,-0.13534857050805357,-0.06244087457768464,0.0443534466058117,0.10053469871846876,0.08580738040026341,0.0
0.4297270455489046,-0.12676533724665,-0.12199429444067168,0.062040549713441945,0.07703179652975758,0.05568398937607593,0.0
0.417835105106706,-0.11818210398524638,-0.09450809603146006,0.05005896362506525,0.028720278460702874,0.053858328133170326,0.0
0.4138711249593069,-0.11389048735454461,-0.0853460098477806,0.028948552567520595,0.033290286334867664,0.053858328133170326,0.0
0.4376550058437035,-0.11389048735454461,-0.10825118521242805,0.008979244304924198,0.013051676337998632,0.04381719825567342,0.0
0.4257630654015049,-0.1310569538773518,-0.09450809603146006,-0.0007201340189043581,0.010440242982662981,0.03560172822938534,0.0
0.40990714481190715,-0.0881407828751471,-0.0853460098477806,-0.0024317884287918872,-0.0039226422135371355,0.00639116782665066,0.0
0.40990714481190715,-0.0752659329830417,-0.04411674230487688,-0.025824406815954336,-0.03721842023126588,0.01734512762975197,0.0
0.4376550058437035,-0.09672401613655071,-0.07160292066681256,-0.05378143638290978,-0.03721842023126588,0.011868147380277123,0.0
0.4654028668755062,-0.1310569538773518,-0.09450809603146006,-0.04065874967423649,-0.013062660201393371,-0.0018243035913342012,0.0
0.44558296613850557,-0.15680665366156263,-0.039535699213037144,-0.018407237126534606,-0.005228358891204962,-0.021906563346328005,0.0
0.417835105106706,-0.14822342040015898,0.042922916061873,-0.017266133026795357,0.01958026072168293,-0.05750693253244517,0.0
0.44558296613850557,-0.12676533724665,0.07499013751564838,-0.03381213203468638,0.06397463174376965,-0.02738354429165125,0.0
0.4654028668755062,-0.1010156327672525,0.006274651516257844,-0.0868734343986918,0.06332177290726317,-0.029209205534556835,0.0
0.47333082717030506,-0.0838491662444453,0.0016936084244180652,-0.15762184682921276,0.10184041639148175,-0.04381448434422741,0.0
0.44558296613850557,-0.06668269737404477,0.010855694608097531,-0.20383652807422542,0.10379899290100124,-0.05385561561342108,0.0
0.4257630654015049,-0.0752659329830417,0.0016936084244180652,-0.23464631093164368,0.03655458051740014,-0.036511844939392135,0.0
0.40594316466450736,-0.11389048735454461,-0.01663052384838965,-0.2837137733026603,-0.0039226422135371355,0.0310375779055149,0.0
0.39008724407490647,-0.1868479700764752,0.006274651516257844,-0.3071063725528881,-0.025466969136910288,0.03377606768232813,0.0
0.40990714481190715,-0.22118090312208963,0.015436697605385727,-0.27743769379520916,-0.048969871325621486,0.0821560579144522,0.0
0.38612326392750734,-0.255513836167704,0.010855694608097531,-0.21239480186338439,-0.09597567570304386,0.03286323775672372,0.0
0.3702673433379074,-0.24263899566597202,-0.02121156694022943,-0.11825377626486493,-0.2565788380049831,-0.004562792672299038,0.0
0.3821592837801076,-0.20830606262035764,-0.06244087457768464,-0.05264033924205586,-0.36364762348995794,0.042904367634220626,0.0
0.40594316466450736,-0.22976413638349322,-0.06702187757497284,0.002703175670731367,-0.396943400263505,0.1232334080458926,0.0
0.4257630654015049,-0.2726803026905112,-0.06702187757497284,0.0608994456137027,-0.46353495381059967,0.1889571682561972,0.0
0.4297270455489046,-0.26838869545018285,-0.06244087457768464,0.18014474400927213,-0.5275150720116683,0.25285526722359625,0.0
0.4297270455489046,-0.26838869545018285,-0.06244087457768464,0.2845557065054447,-0.567339421224758,0.31766620794602235,0.0
0.4812585099143308,-0.46580306046246556,-0.10825118521242805,0.40094824117222344,-0.629360986804591,0.42446733498812894,0.0
0.5288262716831285,-0.5087192455502304,-0.12657531748523557,0.566978755465462,-0.6398067281886949,0.5267042755222485,0.0
0.5288262716831285,-0.5087192455502304,-0.12657531748523557,0.6109112563465373,-0.5059707383697153,0.610684648161609,0.0
0.6675652992913498,-0.461511472002884,-0.20445288966830594,0.6297394391978081,-0.3904148278239628,0.6070333256757977,0.0
0.6358534581121512,-0.43576175343792645,-0.26858735262313277,0.6731013671523578,-0.16713724906844524,0.5732586038156186,0.0
0.6358534581121512,-0.43576175343792645,-0.26858735262313277,0.7261627008313475,-0.04701129481610199,0.4354212579112654,0.0
0.4376550058437035,-0.1825563534457734,-0.25942528648672897,0.6422915982127105,-0.05158130667164745,0.3477895850532421,0.0
0.3583754028957075,-0.1825563534457734,-0.30065459412418405,0.4557212101241656,0.0039116585989786914,0.2482911252499065,0.0
0.3583754028957075,-0.1825563534457734,-0.30065459412418405,0.11167854673711496,-0.004575500552371049,0.19899830509217808,0.0
0.3345917995620818,0.0363161088055785,-0.27316839571497264,-0.040088201103809534,0.030678852979532014,0.17526472006797947,0.0
0.3821592837801076,-0.01947491150183325,-0.2823304618513764,-0.13822309105141634,0.042430306064577955,0.01734512762975197,0.0
0.44954694628590464,-0.1396401871387554,-0.2823304618513764,-0.1599040550286913,0.02741456078768988,-0.04929146250615707,0.0
0.520898311388329,-0.22976413638349322,-0.25484426344216493,-0.15077522223077733,0.0763789376932511,-0.1350974796880619,0.0
0.5565741327149274,-0.2640970694291076,-0.30065459412418405,-0.12738260906277887,0.17496055830364127,-0.22820614740837636,0.0
0.5129703510935294,-0.21688929588176123,-0.30065459412418405,-0.1616157042194148,0.18148914666870622,-0.2966683883494652,0.0
0.4416189859911058,-0.12247372061594822,-0.30065459412418405,-0.2517628585099616,0.12534331858019293,-0.22272916367965956,0.0
0.39008724407490647,-0.06668269737404477,-0.29149252798778025,-0.31338245206033927,0.01892740188517643,-0.05750693253244517,0.0
0.3702673433379074,-0.0838491662444453,-0.26858735262313277,-0.3088180356613824,-0.0790013618793976,0.07485341850961692,0.0
0.40197918451710446,-0.1310569538773518,-0.3143976933287898,-0.29170148808306445,-0.13188288782261712,0.15883378001540333,0.0
0.45351092643330443,-0.212597669860686,-0.28691149491957835,-0.23122301255019653,-0.12078429556476802,0.15518245752959212,0.0
0.4891864702091297,-0.28126353595191483,-0.355626990942607,-0.18957273378637013,-0.09205852268400488,0.11958208556008139,0.0
0.5169343312409298,-0.3198880950186045,-0.34646492480620317,-0.17416783539877578,-0.06529133029414187,0.03834021731035018,0.0
0.48522249006173057,-0.26838869545018285,-0.3647890570790108,-0.1690328739088345,-0.10642140912438645,-0.036511844939392135,0.0
0.40594316466450736,-0.1868479700764752,-0.4105993952787584,-0.2203825166437884,-0.18998728445788862,-0.022819391184387243,0.0
0.3623393830431076,-0.1396401871387554,-0.4105993952787584,-0.33848671441906136,-0.28399889321273336,0.05477115875462313,0.0
0.350447442600908,-0.1053072493979543,-0.4014373266364451,-0.4845479556790602,-0.32708756049663945,0.1688749057178099,0.0
0.39008724407490647,-0.0881407828751471,-0.428923527551566,-0.5570079894647635,-0.33818615275448854,0.19352132136346123,0.0
0.39801520436970533,-0.11818210398524638,-0.406018359704647,-0.6648422642601537,-0.3434090234465404,0.1880443376347444,0.0
0.42179908525410575,-0.14822342040015898,-0.4105993952787584,-0.7110569455051664,-0.3140303837665095,0.19899830509217808,0.0
0.4614388867281039,-0.14822342040015898,-0.4105993952787584,-0.7595538627851988,-0.23960452418133696,0.13875151747701597,0.0
0.4654028668755062,-0.1739731201843698,-0.37853216129543554,-0.8188912203005568,-0.19064015125715641,0.08580738040026341,0.0
0.45747490658070356,-0.169681503553668,-0.4014373266364451,-0.8497010449112868,-0.20173874351500554,0.05750964783558794,0.0
0.4416189859911058,-0.1825563534457734,-0.39227526050004125,-0.8850752302498915,-0.23634023796156572,0.0602481369165528,0.0
0.4376550058437035,-0.1739731201843698,-0.4105993952787584,-0.8793697236689659,-0.22981164959650088,0.07759191037397532,0.0
0.4416189859911058,-0.1911395960975504,-0.4426666286356039,-0.8725230712349891,-0.20239159438875068,0.08945869731928746,0.0
0.4138711249593069,-0.1782647368150716,-0.46099076216136625,-0.8542654056391612,-0.26571886171607423,0.0009141882730242047,0.0
0.40594316466450736,-0.16109827029226442,-0.4838959293818079,-0.8599709678911693,-0.40543055717532833,0.027386257855173065,0.0
0.4257630654015049,-0.1310569538773518,-0.4838959293818079,-0.8765169703785032,-0.4831207029802721,-0.002737131429393434,0.0
0.4654028668755062,-0.1053072493979543,-0.5251252295015347,-0.9147439090075705,-0.4818150012327817,-0.019168074265363162,0.0
0.47333082717030506,-0.09243239950584889,-0.5388683337179593,-0.9255843492428958,-0.5007478995287087,-0.04198882310132179,0.0
0.47333082717030506,-0.0752659329830417,-0.5571924659907669,-0.944412643436332,-0.5216393504458712,-0.07758919507083249,0.0
0.47333082717030506,-0.0752659329830417,-0.5571924659907669,-0.9535414762342459,-0.5562408608179542,-0.1022355995829096,0.0
0.4772945297669317,-0.06668269737404477,-0.5342872956379384,-0.9666641525045913,-0.5536293936208828,-0.13418464906660912,0.0
0.4772945297669317,-0.06668269737404477,-0.5342872956379384,-0.974081322194011,-0.5177222133523548,-0.0967586269877671,0.0
0.5169343312409298,-0.0795575496137435,-0.5709355651953727,-0.9529708476366376,-0.412612012339661,-0.11410239766179604,0.0
0.5248622915357287,-0.09672401613655071,-0.5709355651953727,-0.8947745803032484,-0.3212118389308421,-0.12596918460710818,0.0
0.520898311388329,-0.16109827029226442,-0.5571924659907669,-0.7800937087449639,-0.2311173672695139,-0.18439029984579045,0.0
0.520898311388329,-0.1911395960975504,-0.5663545321271708,-0.623191999414098,-0.060721322419977075,-0.25650388553983894,0.0
0.5367542319779267,-0.20401443659928242,-0.5617734990589689,-0.4862596187875544,0.03981887071855196,-0.3067095363190202,0.0
0.501078410651329,-0.16109827029226442,-0.5342872956379384,-0.3578854701968578,0.15537480913396906,-0.29484272710655957,0.0
0.49315045035653005,-0.12676533724665,-0.4838959293818079,-0.24776901503753018,0.17887771132268024,-0.2774989564325306,0.0
0.47333082717030506,-0.04522461304673907,-0.5113821302969289,-0.17416783539877578,0.2030334643851366,-0.25650388553983894,0.0
0.4772945297669317,0.001983173412370764,-0.5159631633651308,-0.16732122471811098,0.21935492733503775,-0.17343635465550533,0.0
0.4654028668755062,0.062065813284976006,-0.5663545321271708,-0.19698990347579004,0.19911632729162027,-0.1022355995829096,0.0
0.46936684702290593,0.09210712969988862,-0.5938407305363823,-0.2785787839771777,0.21347920576924054,-0.0447273149656802,0.0
0.46936684702290593,0.11356521285339763,-0.607583829740988,-0.3453333390174967,0.21739635878827956,0.00730399705640668,0.0
0.44558296613850557,0.062065813284976006,-0.5846786643999784,-0.34818609230795955,0.1958520251463265,0.05111983905220549,0.0
0.4614388867281039,0.04060772543628033,-0.603002796672786,-0.36587321281280316,0.21347920576924054,0.09128435856219308,0.0
0.4772945297669317,0.02344125891347313,-0.603002796672786,-0.35160941852494787,0.23175923726589967,0.17617755068943228,0.0
0.47333082717030506,0.032024492174876705,-0.6121648628091899,-0.3327812078381357,0.22000779413430538,0.2720246991405308,0.0
0.44558296613850557,0.006274790043072553,-0.607583829740988,-0.3367750791461085,0.18932343678126154,0.33866130110586246,0.0
0.44558296613850557,0.001983173412370764,-0.6213269289455937,-0.31566466025981776,0.17039055441085713,0.42994429644969695,0.0
0.4257630654015049,-0.04522461304673907,-0.6213269289455937,-0.31566466025981776,0.14427621687611997,0.4828884502268111,0.0
0.4257630654015049,-0.06668269737404477,-0.657975193491209,-0.2882781618660759,0.11032758126606618,0.5303555980080598,0.0
0.40990714481190715,-0.0752659329830417,-0.6992045011286642,-0.2757260306867149,-0.0032697837502850776,0.5696072813298073,0.0
0.40990714481190715,-0.0752659329830417,-0.6992045011286642,-0.2808609921766563,-0.01567409355672902,0.6590646154307362,0.0
0.47333082717030506,-0.22976413638349322,-0.7495958749025231,-0.2688794060882795,0.06528034543540198,0.7320910206126632,0.0
0.505042390798728,-0.33705456154141156,-0.7312717225824397,-0.15248687142150086,0.11555044399535683,0.6435465059996128,0.0
0.5922499540415258,-0.5258857120730378,-0.6992045011286642,0.06489330648334737,0.2552621394546109,0.44181108339500913,0.0
0.6239615176699519,-0.7018420033221849,-0.657975193491209,0.28569679668741327,0.3349108697318355,0.23551149654956727,0.0
0.6199975375225522,-0.6975503773011097,-0.6671372596276128,0.5316045701268574,0.390403831021081,0.09493568104800428,0.0
0.5526101525675282,-0.5688018595993087,-0.6488131273548052,0.7027701015811196,0.4746225811166122,0.023734937717850183,0.0
0.40990714481190715,-0.31130486175720085,-0.5480303998543631,0.7826473050562426,0.4380624862722484,0.06846360972623444,0.0
0.39801520436970533,-0.22976413638349322,-0.4930579955182118,0.7780828886572856,0.43936821987078406,0.1533567962866865,0.0
0.40197918451710446,-0.1396401871387554,-0.44724766201704447,0.7518375361165951,0.44981396125488793,0.2145164033897271,0.0
0.44558296613850557,-0.15680665366156263,-0.4380855949409246,0.7250216106493789,0.47070541217205053,0.19899830509217808,0.0
0.45747490658070356,-0.1782647368150716,-0.4380855949409246,0.6508498580840989,0.5549241304165368,0.08489454977881061,0.0
0.40594316466450736,-0.1653898869229662,-0.428923527551566,0.5390217398162771,0.5914842252609004,0.01643229770414756,0.0
0.38612326392750734,-0.1868479700764752,-0.4105993952787584,0.4328991281293809,0.5549241304165368,-0.03103486121067531,0.0
0.38612326392750734,-0.1868479700764752,-0.4105993952787584,0.3918194083743095,0.5607998838333791,0.0310375779055149,0.0
0.4138711249593069,-0.26838869545018285,-0.4014373266364451,0.38839610999286234,0.6554643116109238,0.022822107705264723,0.0
0.42179908525410575,-0.3499294208238904,-0.4243424944833641,0.38839610999286234,0.6887601202355162,0.0602481369165528,0.0
0.44558296613850557,-0.46580306046246556,-0.4564097287799257,0.41178870924309025,0.80692749797834,0.18986999887765005,0.0
0.4297270455489046,-0.5130108715713056,-0.41976146141516224,0.476831601174915,0.8689490635581729,0.2309473545758775,0.0
0.3781953036327069,-0.5645102711397272,-0.33272182560159747,0.564126002174999,0.8095389014733209,0.17526472006797947,0.0
0.1839608315116609,-0.5130108715713056,-0.034954656121197365,0.5161996578214922,0.641754347709139,0.0821560579144522,0.0
0.1839608315116609,-0.47438631250461594,0.11163840206126391,0.35245135172773223,0.5131411967311661,0.053858328133170326,0.0
0.29495199808808364,-0.3670958873466976,0.26281250333556494,0.16131653332246,0.5026954871981074,0.10315115107429237,0.0
0.48522249006173057,-0.2726803026905112,0.3040418109730199,0.016396415951530435,0.4478553767826072,0.11958208556008139,0.0
0.6477453985543516,-0.2383473696448968,0.3040418109730199,-0.15762184682921276,0.48898545959423256,0.18713150701329165,0.0
0.7944123864573726,-0.2726803026905112,0.33610903242679563,-0.258609483108397,0.7351130737391934,0.2811530053550588,0.0
0.7587365651307741,-0.37567910182735437,0.3727572969724108,-0.24149293553007903,0.7024701478393913,0.24281414152118974,0.0
0.5090063709461303,-0.41001203487296894,0.39108146933977006,-0.1872905255868918,0.507265475165369,0.11319227677669891,0.0
0.13639306974286228,-0.3241797210396796,0.3269469462431159,-0.15077522223077733,0.25917929247364996,-0.15791823409080769,0.0
0.029365883313838947,-0.26838869545018285,0.3269469462431159,-0.15819239192019707,-0.08748851879122074,-0.40894647685313973,0.0
-0.05784140237818436,-0.2512222289273756,0.28571771879476404,-0.19356660509434293,-0.4191405847792032,-0.5476966422453715,0.0
0.017473942871639375,-0.20830606262035764,0.2994607678811801,-0.2084009444731823,-0.821301373258842,-0.4710189145776332,0.0
0.12846510944806214,-0.255513836167704,0.19867806042801384,-0.20783038546442734,-0.8781000681466231,-0.26289368875643426,0.0
0.4257630654015049,-0.4014288203923122,0.0887332266966164,-0.16732122471811098,-0.604552398793912,-0.05933259377535075,0.0
0.6120695772277539,-0.5258857120730378,-0.039535699213037144,0.05804668884379726,-0.7710312508106033,0.1268847305317038,0.0
0.8736917118545957,-0.5773851116414593,-0.16322360207812672,0.3296292697329475,-0.4237106045975101,0.2446398027640953,0.0
0.8142322871943732,-0.5730934856203842,-0.15864255898628687,0.35872743123518364,-0.15277435466530234,0.0821560579144522,0.0
0.520898311388329,-0.5645102711397272,-0.02121156694022943,0.36329181979859915,-0.17823584132629436,-0.03286052245358091,0.0
0.33855577970948186,-0.5301773380941129,0.06124704833468072,0.3222121000435277,-0.22720021425047485,-0.0529427849919683,0.0
0.27513209735108396,-0.45292821996073374,0.03834187297003322,0.24918149333129885,-0.3512432976335732,0.05477115875462313,0.0
0.350447442600908,-0.3628042613256225,-0.025792610032069115,0.19326743419738807,-0.45439494602503144,0.09037152794074028,0.0
0.47333082717030506,-0.26838869545018285,-0.11741325134883158,0.1099668905875061,-0.5640751350049867,0.1177564298839629,0.0
0.4891864702091297,-0.1868479700764752,-0.2777494187595366,-0.009848961597654303,-0.610428088508664,0.14970548493444957,0.0
0.3940512242223062,-0.1396401871387554,-0.4105993952787584,-0.2146770100628629,-0.5562408608179542,0.1460541624486384,0.0
0.326663839267282,-0.16109827029226442,-0.4335045618727226,-0.4925356982950056,-0.5973709436295793,0.1825673650396019,0.0
0.13639306974286228,-0.34563779480281526,-0.5342872956379384,-0.5164988704717591,-0.8532914164338538,0.21269074214682152,0.0
0.10864520871106306,-0.38855397989058005,-0.5938407305363823,-0.4748485499546206,-1.0550246615474184,0.2619835734381243,0.0
0.19188879180646007,-0.3928455683501616,-0.653394170446645,-0.3835603054821054,-1.1039890822481666,0.3085379017314943,0.0
0.6477453985543516,-0.341346187562487,-0.5938407305363823,-0.1108366065754452,-0.6300138695293813,0.26015791219521867,0.0
0.6913491801757496,-0.3241797210396796,-0.5755165982635746,0.07858654872133293,-0.4335034632568236,0.023734937717850183,0.0
0.6913491801757496,-0.3070132545168725,-0.4426666286356039,0.22978273755350243,-0.37866335284132324,-0.31127367829271,0.0
0.6239615176699519,-0.20830606262035764,-0.3876942274318394,0.38839610999286234,-0.4432963537671823,-0.7238728519835936,0.0
0.520898311388329,-0.0752659329830417,-0.428923527551566,0.4705555495030052,-0.5653808367524772,-0.9192184491044536,0.0
0.44954694628590464,0.07494066317708144,-0.5159631633651308,0.3872549919753527,-0.6698381868914258,-0.7366525029510818,0.0
0.4654028668755062,0.15648137916041563,-0.6350700381738373,0.2925434212858489,-0.6600453282321123,-0.43359291476593986,0.0
0.5129703510935294,0.14360653865868367,-0.6304889950819975,0.24575818103208127,-0.48442643657880746,-0.09219447388050309,0.0
0.5526101525675282,0.001983173412370764,-0.6121648628091899,0.19212633009764885,-0.24025739098060478,0.11958208556008139,0.0
0.576394033451928,-0.0752659329830417,-0.5800976313317765,0.07402213232237598,0.009787384146156484,0.14422850120573277,0.0
0.5684660731571259,-0.15680665366156263,-0.5251252295015347,-0.048646474892968514,0.2422049786500036,0.0821560579144522,0.0
0.5843219937467269,-0.3198880950186045,-0.34646492480620317,0.02780744933764202,0.2963922222662361,-0.2017340705198194,0.0
0.5367542319779267,-0.3799707278484298,-0.30065459412418405,0.09399144015004204,0.22000779413430538,-0.42172612782062746,0.0
0.4614388867281039,-0.14393180376945722,-0.4426666286356039,-0.014413374517168598,0.17430770742989612,-0.5120962814094352,0.0
0.3425197598568813,0.032024492174876705,-0.5755165982635746,-0.1690328739088345,0.14297049920310698,-0.4381570567396294,0.0
0.35441142274830806,0.049190958697683924,-0.6946234580368243,-0.3607382513228618,-0.032648412357101086,-0.29758123010449233,0.0
0.47333082717030506,-0.002308443218331036,-0.6900424349922603,-0.457732030211844,-0.034606986875930223,-0.17708765487416803,0.0
0.48522249006173057,-0.12676533724665,-0.603002796672786,-0.4600142105757812,0.03459600400788066,0.0027398467325362393,0.0
0.4416189859911058,-0.31559648777827604,-0.502220064160525,-0.316235205350802,0.11881473817788929,0.23003451282085047,0.0
0.3702673433379074,-0.45292821996073374,-0.502220064160525,-0.1211065295553277,0.12273189119692829,0.2738503603834364,0.0
0.3345917995620818,-0.49155277902742317,-0.4243424944833641,-0.017836685076664992,0.06658606310841497,0.2555937702215289,0.0
0.35441142274830806,-0.45292821996073374,-0.4793148963136061,0.05062951567493486,0.009134526304995156,0.16431076374412015,0.0
0.48522249006173057,-0.28555516197299,-0.6167458958773918,0.06432275443347778,-0.005881217478875165,0.130536053017515,0.0
0.5288262716831285,-0.22118090312208963,-0.6259079720374335,0.05348227592428297,0.04438887859271677,0.13692585623411038,0.0
0.520898311388329,-0.22118090312208963,-0.6304889950819975,0.03465406871691347,0.1612505306997662,0.1780032119323379,0.0
0.505042390798728,-0.27697192871158643,-0.5800976313317765,0.05462337654457954,0.1860591505614904,0.16978773633926267,0.0
0.4812585099143308,-0.2898467692133184,-0.5709355651953727,0.042641792195924164,0.2089092018764564,0.1688749057178099,0.0
0.48522249006173057,-0.23405576240456846,-0.5113821302969289,0.01924917424369204,0.21674349198901174,0.09037152794074028,0.0
0.49315045035653005,-0.1825563534457734,-0.4884769624500098,0.0032737277206009866,0.2213135118073184,0.015519467778543152,0.0
0.48522249006173057,-0.19972282935895405,-0.44724766201704447,0.0066970374102367156,0.2056448997311626,-0.03468618369648653,0.0
0.4376550058437035,-0.21688929588176123,-0.406018359704647,0.03008965579739917,0.18214199754245142,-0.05841976315389795,0.0
0.43369102569630374,-0.22976413638349322,-0.428923527551566,0.07801599667146333,0.15733337768072725,-0.061158255018256356,0.0
0.4614388867281039,-0.22547252914316487,-0.428923527551566,0.09627364834952053,0.15733337768072725,-0.046552970641798676,0.0
0.4772945297669317,-0.20830606262035764,-0.4243424944833641,0.09285034300918814,0.21152063722248235,0.01643229770414756,0.0
0.4614388867281039,-0.212597669860686,-0.4380855949409246,0.11624295617718661,0.2089092018764564,0.014606637852938743,0.0
0.4654028668755062,-0.212597669860686,-0.41976146141516224,0.13735337506347725,0.22980066871914168,-0.016429582401004762,0.0
0.45351092643330443,-0.22976413638349322,-0.4014373266364451,0.148764402143099,0.23828782563096476,-0.015516751779551937,0.0
0.4614388867281039,-0.22547252914316487,-0.46099076216136625,0.1521877144423167,0.24024639417772298,-0.029209205534556835,0.0
0.4654028668755062,-0.2598054621887793,-0.4838959293818079,0.1647398456216777,0.22849495104612869,-0.010952601455681518,0.0
0.44558296613850557,-0.26838869545018285,-0.428923527551566,0.16416930053069345,0.21152063722248235,0.03468889760793254,0.0
0.42179908525410575,-0.2640970694291076,-0.41976146141516224,0.14990550624283824,0.16582053459255036,0.0629866287809112,0.0
0.42179908525410575,-0.23405576240456846,-0.4335045618727226,0.152758259533301,0.0966175536621911,0.09311001980509868,0.0
0.417835105106706,-0.20401443659928242,-0.4014373266364451,0.15161715543356175,0.04961174530338807,0.1150179380196045,0.0
0.40594316466450736,-0.19972282935895405,-0.3602080240108089,0.15561102674153443,-0.06202704009299005,0.17617755068943228,0.0
0.40990714481190715,-0.21688929588176123,-0.3693700951590317,0.11795461232679548,-0.08030707158964931,0.24555262225197383,0.0
0.40990714481190715,-0.20830606262035764,-0.3143976933287898,0.09570309629965089,-0.10511569145137348,0.2711118796526523,0.0
0.417835105106706,-0.22976413638349322,-0.3418838917380013,0.06146999766357232,-0.09336424035701786,0.3085379017314943,0.0
0.43369102569630374,-0.24693060290630045,-0.3418838917380013,0.04207124188577588,-0.06790276564016785,0.31766620794602235,0.0
0.4416189859911058,-0.26838869545018285,-0.3693700951590317,0.024384139648006297,-0.05223416550815394,0.3313586561342402,0.0
0.4416189859911058,-0.2726803026905112,-0.38311319436363744,0.023813587598136673,-0.07377849118734565,0.36422053623939254,0.0
0.47333082717030506,-0.26838869545018285,-0.3876942274318394,0.004985382130488516,-0.08291850693567526,0.32953299489133464,0.0
0.47333082717030506,-0.28126353595191483,-0.4380855949409246,-0.03152992383520789,-0.049622730162127975,0.31766620794602235,0.0
0.48522249006173057,-0.2898467692133184,-0.41976146141516224,-0.04636426669349002,-0.014368376879061194,0.3048865792456831,0.0
0.49315045035653005,-0.31130486175720085,-0.428923527551566,-0.05092868309244701,0.0006473666559728364,0.2674605571668411,0.0
0.501078410651329,-0.298430002474722,-0.41518042834696034,-0.06291026918082372,0.018274543048669933,0.1825673650396019,0.0
0.501078410651329,-0.298430002474722,-0.41518042834696034,-0.06462191837154724,0.013051676337998632,0.1150179380196045,0.0
0.501078410651329,-0.2512222289273756,-0.38311319436363744,-0.05720474868212749,0.02676170195118337,0.04473002748542944,0.0
0.48522249006173057,-0.28126353595191483,-0.4014373266364451,-0.04750537079322926,0.02349740975934124,-0.01003977361762228,0.0
0.48522249006173057,-0.28126353595191483,-0.4014373266364451,-0.04179985377397572,0.026108845105367224,-0.036511844939392135,0.0
0.4416189859911058,-0.28126353595191483,-0.32355975946519366,0.00783814064011529,0.011093100823824314,-0.05750693253244517,0.0
0.45747490658070356,-0.28126353595191483,-0.34646492480620317,0.015255312558552985,0.015010250856827789,-0.046552970641798676,0.0
0.45747490658070356,-0.28126353595191483,-0.34646492480620317,0.051770619774674106,0.0548346120140594,-0.06298391626116195,0.0
0.45747490658070356,-0.2598054621887793,-0.33730285866979937,0.06261110176331157,0.048306031611755736,-0.047465801263251464,0.0
0.43369102569630374,-0.22547252914316487,-0.355626990942607,0.0700282714527313,0.03394314517137417,-0.028296374913104043,0.0
0.43369102569630374,-0.22547252914316487,-0.355626990942607,0.05519392859444915,-0.007186934156542989,-0.00912694299616949,0.0
0.4416189859911058,-0.2512222289273756,-0.33272182560159747,0.04549455070555093,-0.006534075817709076,0.0009141882730242047,0.0
0.4614388867281039,-0.2726803026905112,-0.3510459578744051,0.03921848337614912,-0.020896961262745487,0.03012474797991049,0.0
0.45351092643330443,-0.2598054621887793,-0.3510459578744051,0.05005896362506525,-0.010451225850712556,0.014606637852938743,0.0
0.45351092643330443,-0.28126353595191483,-0.3693700951590317,0.04321234424579378,-0.0006583501461131355,-0.0018243035913342012,0.0
0.44954694628590464,-0.2598054621887793,-0.34646492480620317,0.05120006772480447,-0.007839792495376904,0.0027398467325362393,0.0
0.44558296613850557,-0.28126353595191483,-0.3647890570790108,0.04321234424579378,-0.014368376879061194,0.0027398467325362393,0.0
0.44558296613850557,-0.28555516197299,-0.3693700951590317,0.04150068983590626,-0.015021234720222527,-0.025557883048745636,0.0
0.44558296613850557,-0.28126353595191483,-0.4105993952787584,0.04834731095489903,-0.010451225850712556,-0.029209205534556835,0.0
0.45747490658070356,-0.2898467692133184,-0.38311319436363744,0.05062951567493486,-0.011104084687219047,-0.03468618369648653,0.0
0.47333082717030506,-0.31130486175720085,-0.4243424944833641,0.043782896295663405,-0.0032697837502850776,-0.022819391184387243,0.0
0.4654028668755062,-0.341346187562487,-0.39227526050004125,0.059758341513963455,0.01892740188517643,-0.02373222180584003,0.0
0.4654028668755062,-0.33705456154141156,-0.41976146141516224,0.07059882350260092,0.03133171181603852,-0.0392503312369634,0.0
0.4654028668755062,-0.3241797210396796,-0.4014373266364451,0.07630434052185446,0.02219169407701858,-0.04837863188470429,0.0
0.47333082717030506,-0.31559648777827604,-0.41518042834696034,0.09113868685957928,0.020233119558189423,-0.07667636444937971,0.0
0.4654028668755062,-0.33705456154141156,-0.4105993952787584,0.09056813480970967,0.04634745510223625,-0.060245424396803554,0.0
0.46936684702290593,-0.3241797210396796,-0.39227526050004125,0.10597302623841875,0.05744604736008536,-0.08854315139469186,0.0
0.4772945297669317,-0.298430002474722,-0.4105993952787584,0.10026751269860787,0.09008896529712616,-0.117753709014033,0.0
0.4654028668755062,-0.29413839523439367,-0.3876942274318394,0.11339020288672381,0.10706328708353371,-0.1241435233642026,0.0
0.44954694628590464,-0.27697192871158643,-0.37395112822723364,0.11053744263737572,0.08160180838530305,-0.11866653963548578,0.0
0.45351092643330443,-0.24693060290630045,-0.34646492480620317,0.11167854673711496,0.0763789376932511,-0.1241435233642026,0.0
0.4416189859911058,-0.24693060290630045,-0.3281407925333955,0.07744544462159371,0.06136319639774367,-0.1022355995829096,0.0
0.43369102569630374,-0.2383473696448968,-0.3693700951590317,0.06774606673269548,0.042430306064577955,-0.08854315139469186,0.0
0.44954694628590464,-0.22547252914316487,-0.355626990942607,0.048917859525326,0.01892740188517643,-0.0821533481780965,0.0
0.44558296613850557,-0.22976413638349322,-0.3602080240108089,0.023813587598136673,0.02284455291352507,-0.061158255018256356,0.0
0.44558296613850557,-0.24693060290630045,-0.3876942274318394,0.04093013778603664,0.0032588002601447764,-0.06572240255873323,0.0
0.44558296613850557,-0.22976413638349322,-0.3876942274318394,0.03750682722654024,-0.029384120165258935,-0.022819391184387243,0.0
0.44558296613850557,-0.22547252914316487,-0.39227526050004125,0.036365724866522335,-0.006534075817709076,-0.024645052427292823,0.0
0.44558296613850557,-0.2640970694291076,-0.37853216129543554,0.0272368972877724,-0.027425543655739456,0.01369380723148594,0.0
0.45351092643330443,-0.2598054621887793,-0.37853216129543554,0.0226724843682581,-0.03982985557729186,0.01917078748096079,0.0
0.4376550058437035,-0.23405576240456846,-0.39227526050004125,0.026666346107763444,-0.054192738036292785,0.04746851795809105,0.0
0.43369102569630374,-0.22547252914316487,-0.3602080240108089,0.021531381138379525,-0.08095993042615579,0.06481228724042322,0.0
0.4376550058437035,-0.22976413638349322,-0.3693700951590317,0.020960829088509905,-0.08095993042615579,0.0602481369165528,0.0
0.4376550058437035,-0.22118090312208963,-0.3876942274318394,0.02552524287788487,-0.0998928287220828,0.08489454977881061,0.0
0.45351092643330443,-0.21688929588176123,-0.4014373266364451,0.00783814064011529,-0.08552994228170126,0.10954095985767484,0.0
0.4654028668755062,-0.2383473696448968,-0.37853216129543554,0.018678622628752754,-0.08944709530074021,0.1150179380196045,0.0
0.45351092643330443,-0.2512222289273756,-0.39227526050004125,0.018108071013813464,-0.09009995413724671,0.09767416734557556,0.0
0.45351092643330443,-0.2383473696448968,-0.41976146141516224,0.009549795919863486,-0.07769564420638461,0.11410510739815172,0.0
0.45747490658070356,-0.24263899566597202,-0.39227526050004125,0.023243035548267052,-0.08487708344519475,0.10041265920993396,0.0
0.47333082717030506,-0.255513836167704,-0.3876942274318394,0.018108071013813464,-0.0796542127531428,0.13510019499120474,0.0
0.47333082717030506,-0.2383473696448968,-0.41976146141516224,0.010120347534802773,-0.060721322419977075,0.07211492664525852,0.0
0.48522249006173057,-0.26838869545018285,-0.4380855949409246,0.021531381138379525,-0.021549818108561655,0.07120209880719928,0.0
0.4654028668755062,-0.26838869545018285,-0.4335045618727226,0.012973105826964378,-0.005228358891204962,0.0310375779055149,0.0
0.46936684702290593,-0.2640970694291076,-0.37853216129543554,0.016966967566469725,0.009134526304995156,-0.01825524364391037,0.0
0.47333082717030506,-0.2512222289273756,-0.3968562935682432,0.008979244304924198,0.02088597640400559,-0.020993732724875185,0.0
0.47333082717030506,-0.22547252914316487,-0.41976146141516224,-0.03381213203468638,0.011745959660330806,-0.025557883048745636,0.0
0.44558296613850557,-0.22547252914316487,-0.4014373266364451,-0.02981826768559903,-0.007186934156542989,-0.07302504196356849,0.0
0.45351092643330443,-0.21688929588176123,-0.4014373266364451,-0.04408205849401155,0.0013002249948067487,-0.04381448434422741,0.0
0.44954694628590464,-0.20830606262035764,-0.3968562935682432,-0.049217026942838124,0.013704535174505126,-0.06572240255873323,0.0
0.4297270455489046,-0.19972282935895405,-0.3968562935682432,-0.04122930172410612,0.009134526304995156,-0.0711993807206629,0.0
0.4654028668755062,-0.20830606262035764,-0.39227526050004125,-0.045793714643620406,0.0006473666559728364,-0.05568127128953954,0.0
0.47333082717030506,-0.19972282935895405,-0.4335045618727226,-0.05549309253251864,0.04961174530338807,-0.047465801263251464,0.0
0.47333082717030506,-0.21688929588176123,-0.4335045618727226,-0.05834585278186675,0.08421324373132902,-0.01825524364391037,0.0
0.46936684702290593,-0.24263899566597202,-0.428923527551566,-0.05149923514231662,0.10902186359305319,-0.03012203058922252,0.0
0.46936684702290593,-0.255513836167704,-0.41976146141516224,-0.03552378470485257,0.10902186359305319,-0.03286052245358091,0.0
0.44558296613850557,-0.24693060290630045,-0.37853216129543554,-0.009848961597654303,0.06397463174376965,-0.060245424396803554,0.0
0.4416189859911058,-0.24693060290630045,-0.39227526050004125,0.005555934180358138,0.02088597640400559,-0.015516751779551937,0.0
0.4376550058437035,-0.2512222289273756,-0.38311319436363744,0.03579517281665272,-0.044399863451456675,-0.00912694299616949,0.0
0.43369102569630374,-0.255513836167704,-0.37853216129543554,0.04663565480529017,-0.06398561660250955,0.03560172822938534,0.0
0.4297270455489046,-0.28126353595191483,-0.4105993952787584,0.08771537456036156,-0.08944709530074021,0.062073798159458404,0.0
0.4614388867281039,-0.3284713282800081,-0.4564097287799257,0.1287950943154329,-0.050928447835140965,0.049294177809299886,0.0
0.4654028668755062,-0.3499294208238904,-0.502220064160525,0.14305888164440278,-0.050928447835140965,-0.0018243035913342012,0.0
0.45351092643330443,-0.31559648777827604,-0.4747338632454041,0.152758259533301,-0.03656556139475939,-0.0009114729698813993,0.0
0.46936684702290593,-0.28126353595191483,-0.502220064160525,0.14020612835394,-0.044399863451456675,0.058422478457040766,0.0
0.4654028668755062,-0.24263899566597202,-0.5159631633651308,0.14534108984388128,-0.041788428105430694,0.07485341850961692,0.0
0.45351092643330443,-0.19972282935895405,-0.4793148963136061,0.0979853044991294,-0.08879423646423373,0.07028926818574646,0.0
0.45747490658070356,-0.15680665366156263,-0.4838959293818079,0.05690558474405801,-0.10315712290461529,0.08306888853590498,0.0
0.44558296613850557,-0.14822342040015898,-0.4884769624500098,0.007267589460106335,-0.13775860938841428,0.07211492664525852,0.0
0.47333082717030506,-0.14822342040015898,-0.4838959293818079,-0.028106615015432837,-0.09401709919352437,0.11227945172203325,0.0
0.46936684702290593,-0.15680665366156263,-0.4701528289242475,-0.05206978719218623,-0.0359127025582529,0.130536053017515,0.0
0.4654028668755062,-0.169681503553668,-0.4838959293818079,-0.08002681675914167,-5.491682861077371e-06,0.12232057742443977,0.0
0.47333082717030506,-0.169681503553668,-0.4335045618727226,-0.06633357452115608,0.03524886284438717,0.10588963737186362,0.0
0.47333082717030506,-0.1868479700764752,-0.4564097287799257,-0.07146854296998269,0.06528034543540198,0.121407746802987,0.0
0.48522249006173057,-0.19972282935895405,-0.4335045618727226,-0.07660350445992394,0.08225466722180953,0.12962322239606222,0.0
0.4772945297669317,-0.1911395960975504,-0.4335045618727226,-0.08858509054830066,0.09857613017171059,0.06116096753800558,0.0
0.46936684702290593,-0.19543120333787878,-0.4335045618727226,-0.09143785079764875,0.0979232713352041,0.04107870778301179,0.0
0.48522249006173057,-0.19972282935895405,-0.4335045618727226,-0.10341943688602545,0.10184041639148175,-0.004562792672299038,0.0
0.49315045035653005,-0.21688929588176123,-0.4380855949409246,-0.11483046396564721,0.13187190694525788,-0.07667636444937971,0.0
0.5169343312409298,-0.26838869545018285,-0.4380855949409246,-0.1188243352736199,0.1481933698951589,-0.14422578590258991,0.0
0.5129703510935294,-0.298430002474722,-0.41518042834696034,-0.09486116309686647,0.21347920576924054,-0.15244125036209089,0.0
0.4654028668755062,-0.3284713282800081,-0.38311319436363744,-0.009278409547784671,0.11098044010257266,-0.1570054034693549,0.0
0.4376550058437035,-0.28126353595191483,-0.3876942274318394,-0.0012906860687739792,0.09074182413363265,-0.19351860606031848,0.0
0.44558296613850557,-0.255513836167704,-0.4014373266364451,-0.02867716706530245,0.0757260788567446,-0.17800049662919507,0.0
0.4416189859911058,-0.212597669860686,-0.3647890570790108,-0.05092868309244701,0.11228614981282435,-0.1606567259551661,0.0
0.47333082717030506,-0.169681503553668,-0.34646492480620317,-0.019548337746831186,0.25852644159990473,-0.09584579636631428,0.0
0.4376550058437035,-0.16109827029226442,-0.33272182560159747,0.00612648623022776,0.1501519384419171,-0.019168074265363162,0.0
0.501078410651329,-0.1739731201843698,-0.3693700951590317,0.0066970374102367156,0.1978106096186073,0.023734937717850183,0.0
0.47333082717030506,-0.169681503553668,-0.3418838917380013,0.015825864227858564,0.21674349198901174,1.3576515714027105e-06,0.0
0.44558296613850557,-0.1653898869229662,-0.37395112822723364,-0.010990063957672205,0.17822484452341242,-0.06572240255873323,0.0
0.44558296613850557,-0.1868479700764752,-0.44724766201704447,0.004985382130488516,0.16190339749903399,-0.06846089442309163,0.0
0.4654028668755062,-0.22976413638349322,-0.4930579955182118,0.022101932318388477,0.16712625226556335,-0.04929146250615707,0.0
0.501078410651329,-0.2726803026905112,-0.4701528289242475,0.05291172387441335,0.23502353941119353,-0.06754806380163883,0.0
0.48522249006173057,-0.2898467692133184,-0.4564097287799257,0.10426137008880988,0.30487937917805935,-0.09767145760921989,0.0
0.48522249006173057,-0.2898467692133184,-0.4564097287799257,0.14419998574414203,0.3479680464619654,-0.1305333377143722,0.0
0.4654028668755062,-0.2726803026905112,-0.41518042834696034,0.18242695220875063,0.38844524654880014,-0.1661337096838829,0.0
0.44954694628590464,-0.2383473696448968,-0.41518042834696034,0.2069606694764884,0.433492498304987,-0.23824727311078292,0.0
0.44954694628590464,-0.2383473696448968,-0.41518042834696034,0.21894225556486493,0.4478553767826072,-0.26106802751352864,0.0
0.4257630654015049,-0.1782647368150716,-0.3693700951590317,0.23320604985272025,0.4537310983484044,-0.24920124056821658,0.0
0.417835105106706,-0.1911395960975504,-0.3510459578744051,0.2543164548212402,0.433492498304987,-0.29392990761868104,0.0
0.417835105106706,-0.1911395960975504,-0.3510459578744051,0.27656796388949934,0.45830111816671104,-0.3633049680476482,0.0
0.3940512242223062,-0.19972282935895405,-0.34646492480620317,0.27827962699799363,0.4870268751219517,-0.3879514059604483,0.0
0.350447442600908,-0.15680665366156263,-0.406018359704647,0.2697213671266053,0.4902911613417227,-0.48288570152294524,0.0
0.350447442600908,-0.15680665366156263,-0.406018359704647,0.21723060637414157,0.520322651895499,-0.6691030592307228,0.0
0.3583754028957075,-0.1868479700764752,-0.4655717958560456,0.21152508587544527,0.6104171235568273,-0.7895965676596013,0.0
0.3226998591198826,-0.37138751336777276,-0.502220064160525,0.25716920811170285,0.6920244064552874,-0.9429520229950777,0.0
0.3226998591198826,-0.37138751336777276,-0.502220064160525,0.3724206525965131,0.7429473479262262,-1.0935689753326217,0.0
0.2592761767614846,-0.414303660894044,-0.4380855949409246,0.5304634799448886,0.6384899977872776,-1.2460115666459224,0.0
0.31477189882508244,-0.35851263530454736,-0.31897872639699176,0.6822301999502718,0.5940956287558812,-1.2569655786376532,0.0
0.3623393830431076,-0.2898467692133184,-0.26858735262313277,0.7940583182180936,0.5242397889890152,-1.2231908567774736,0.0
0.44954694628590464,-0.1053072493979543,-0.11741325134883158,0.7826473050562426,0.38256952498300295,-1.0543173365451712,0.0
0.6437814184069526,0.22514724525164442,0.14370566360959086,0.6091995932380431,0.31271368521613724,-0.8544075083820274,0.0
0.7270250015023486,0.31956281112708396,0.19409701733617404,0.4003776960812392,0.4426325060905553,-0.5486094617332501,0.0
0.8538720886683707,0.4139783957832704,0.2444884111573087,0.1984023956873293,0.5307683932796029,-0.24737557932531093,0.0
0.8102683070469735,0.3753538367165809,0.3132038971566997,0.04834731095489903,0.4106424310644984,0.09767416734557556,0.0
0.6913491801757496,0.2508969638166021,0.3452711186104751,-0.0030023404786615085,0.43936821987078406,0.2784145023571261,0.0
0.5724300533045282,0.08352389643848503,0.3865004262479304,-0.01213116805741145,0.3577609051212789,0.3149277049480897,0.0
0.3940512242223062,-0.06239108074334294,0.3727572969724108,0.05690558474405801,0.22980066871914168,0.36695901697017647,0.0
0.17206889106946036,-0.09672401613655071,0.3452711186104751,0.12423068487536129,-0.026119827973416797,0.43450843842338677,0.0
0.009545982576839869,-0.04522461304673907,0.33610903242679563,0.19726129158759012,-0.34471472519403074,0.41716469001650636,0.0
-0.08955324355738332,0.04060772543628033,0.3177849402485394,0.2503226113488089,-0.664615316199374,0.25468092846650187,0.0
-0.09748120385218315,0.12214844611480123,0.2673935464274047,0.24746984414057532,-1.0152002804832834,0.1287103917746094,0.0
-0.010273918160159526,0.10069036296129225,0.17577288506336633,0.09570309629965089,-1.2907065343082753,0.42629297396388577,0.0
0.5684660731571259,-0.1782647368150716,-0.18154773435093433,0.048917859525326,-0.6809368110003201,1.0798792981154182,0.0
1.0758544218212176,-0.31130486175720085,-0.6350700381738373,0.33818755743987716,-0.39237338044519837,1.3153893980459042,0.0
1.1313498663340416,-0.2898467692133184,-0.7725010302198948,0.6291689219423652,-0.045705581124469666,1.004114345401261,0.0
0.7666645254255736,-0.11818210398524638,-0.603002796672786,0.6867946163492289,0.26766646531099564,0.5267042755222485,0.0
0.26720413705628415,-0.09243239950584889,-0.2273580650329535,0.47797271919242496,0.43936821987078406,-0.0200809021034224,0.0
-0.04594973948675856,-0.0881407828751471,0.07499013751564838,-0.004143444578400757,0.5418669855374522,-0.39160272844625926,0.0
-0.073697322967784,0.032024492174876705,0.17577288506336633,-0.37500201777517567,0.4073781448447272,-0.5905996480529303,0.0
0.07296966493523749,0.16506461242181925,0.12996253433407162,-0.5815417345680424,-0.08422422460868825,-0.6864468076376032,0.0
0.350447442600908,0.3109795966464272,0.020017740697225506,-0.6579956674972597,-0.7690726663383225,-0.5130091008973136,0.0
0.6992771404705491,0.31527122266750235,0.010855694608097531,-0.48340686549709155,-0.7547098197117473,-0.3094480170498044,0.0
0.8102683070469735,0.11785682948409944,-0.05327878839400481,-0.3459038841084811,-0.42828059256477174,-0.16887219041466706,0.0
0.7230610213549482,-0.09672401613655071,-0.06702187757497284,-0.3053947372799352,-0.1312300289861106,-0.11410239766179604,0.0
0.6358534581121512,-0.1739731201843698,-0.08076500685049236,-0.3544621718154106,0.19324058980030048,-0.2674578307301241,0.0
0.6239615176699519,-0.169681503553668,-0.10825118521242805,-0.38698360386355246,0.38779239567505497,-0.39616687041994914,0.0
0.6001779143363253,-0.14393180376945722,-0.04411674230487688,-0.3521799636159321,0.3864866939275646,-0.38156158047670435,0.0
0.5129703510935294,-0.09243239950584889,-0.04869774530216507,-0.3207996217497591,0.3029207947057786,-0.18804162233160163,0.0
0.3940512242223062,-0.010891677653531313,-0.034954656121197365,-0.34019837752755544,0.22718923337311567,-0.015516751779551937,0.0
0.3464834624535079,-0.002308443218331036,-0.04411674230487688,-0.35160941852494787,0.0861718202408485,0.11227945172203325,0.0
0.326663839267282,-0.04093299641603727,-0.025792610032069115,-0.3048241643534096,-0.033301271193607575,0.09949982858848114,0.0
0.3623393830431076,-0.0881407828751471,-0.08076500685049236,-0.19927211167526837,-0.057457032218825255,0.09037152794074028,0.0
0.417835105106706,-0.1053072493979543,-0.12199429444067168,-0.13651142794292212,-0.03982985557729186,0.026473427755606557,0.0
0.4138711249593069,-0.0752659329830417,-0.12199429444067168,-0.12624150496303962,-0.04635843996097616,-0.022819391184387243,0.0
0.3940512242223062,-0.05809946411264115,-0.11283222830426778,-0.10627219017648823,-0.10054568755858931,-0.04198882310132179,0.0
0.4297270455489046,-0.05380784748193935,-0.14948049284988307,-0.07831516060953282,-0.10576855028787996,-0.0702865500992101,0.0
0.4654028668755062,-0.05809946411264115,-0.15406151589444703,-0.04522316259375079,-0.054845596872799274,-0.0721122113421157,0.0
0.49315045035653005,-0.0881407828751471,-0.12657531748523557,-0.038376544954200675,0.01762168421216344,-0.0949329657448615,0.0
0.4812585099143308,-0.0709743163523399,-0.09450809603146006,-0.02639495886582397,0.08290752605831603,-0.131446168335825,0.0
0.4614388867281039,-0.05380784748193935,-0.0761839637586523,-0.03324157998481675,0.09400611831616512,-0.18804162233160163,0.0
0.4138711249593069,-0.010891677653531313,-0.08992705293962033,-0.030959371785338273,0.05091746297640107,-0.2053853930056306,0.0
0.40594316466450736,0.006274790043072553,-0.06702187757497284,-0.03495323265498296,0.033290286334867664,-0.14057446341677876,0.0
0.40594316466450736,0.001983173412370764,-0.08992705293962033,-0.04065874967423649,-0.018285526912064667,-0.10132276896145681,0.0
0.43369102569630374,0.019149642282771308,-0.08076500685049236,-0.02639495886582397,-0.03721842023126588,-0.04016316185841618,0.0
0.45351092643330443,0.001983173412370764,-0.10825118521242805,-0.02981826768559903,-0.018285526912064667,-0.024645052427292823,0.0
0.4376550058437035,-0.002308443218331036,-0.12199429444067168,-0.02525385476608473,-0.0039226422135371355,-0.010952601455681518,0.0
0.4138711249593069,-0.002308443218331036,-0.09450809603146006,-0.010990063957672205,-0.002616925349242092,0.010955318150521103,0.0
0.40990714481190715,-0.002308443218331036,-0.15864255898628687,-0.0052845469384186616,-0.03395412803942374,0.023734937717850183,0.0
0.38612326392750734,-0.04093299641603727,-0.11283222830426778,0.020390277473570615,-0.06855562447667435,0.028299087780777474,0.0
0.3821592837801076,-0.03664137919843713,-0.10825118521242805,0.05005896362506525,-0.12861859364008466,0.08306888853590498,0.0
0.39801520436970533,-0.03664137919843713,-0.12657531748523557,0.07858654872133293,-0.16126151157712548,0.12962322239606222,0.0
0.39801520436970533,-0.04522461304673907,-0.09450809603146006,0.11167854673711496,-0.19521015514994053,0.16431076374412015,0.0
0.42179908525410575,-0.04522461304673907,-0.12199429444067168,0.1464821939436205,-0.20761446508080267,0.21269074214682152,0.0
0.4376550058437035,-0.023766528425984222,-0.14948049284988307,0.13164785456478104,-0.18998728445788862,0.24190129976616262,0.0
0.43369102569630374,-0.023766528425984222,-0.17238566821453052,0.14990550624283824,-0.16256722925013847,0.3076250822436158,0.0
0.44954694628590464,-0.015183294284233114,-0.13573738362163942,0.17101592512912886,-0.12992431131309765,0.29940959551696633,0.0
0.4654028668755062,-0.023766528425984222,-0.15864255898628687,0.1550404677327795,-0.11360285632595789,0.313102043705184,0.0
0.501078410651329,0.006274790043072553,-0.16322360207812672,0.1339300627642595,-0.08095993042615579,0.31127638246227846,0.0
0.5288262716831285,0.049190958697683924,-0.20445288966830594,0.05918778946409384,-0.04701129481610199,0.2555937702215289,0.0
0.5248622915357287,0.062065813284976006,-0.21361495580470985,-0.029247719115172065,-0.03656556139475939,0.1780032119323379,0.0
0.48522249006173057,0.032024492174876705,-0.1678046251226907,-0.05834585278186675,-0.04635843996097616,0.1834801845274804,0.0
0.4614388867281039,-0.01947491150183325,-0.20445288966830594,-0.03438268408455599,-0.08683565995471423,0.1716133975821683,0.0
0.46936684702290593,-0.06668269737404477,-0.1678046251226907,0.020960829088509905,-0.08357136577218177,0.10771529861476924,0.0
0.49315045035653005,-0.0838491662444453,-0.12657531748523557,0.06318165381318118,-0.020896961262745487,0.05111983905220549,0.0
0.4812585099143308,-0.0752659329830417,-0.13573738362163942,0.10369081803894029,0.03459600400788066,-0.010952601455681518,0.0
0.45351092643330443,-0.05809946411264115,-0.16322360207812672,0.1282245422655633,0.05548747085056588,-0.012778262698587122,0.0
0.46936684702290593,-0.01947491150183325,-0.15864255898628687,0.18813247270744685,0.06005748270611135,-0.00547562329375185,0.0
0.4257630654015049,0.032024492174876705,-0.14948049284988307,0.21266618997518452,0.0019530835824769519,0.0100424875290683,0.0
0.40197918451710446,0.001983173412370764,-0.14031842671347922,0.2029668120862863,-0.08161278926266229,0.15426962690813928,0.0
0.417835105106706,-0.03664137919843713,-0.15406151589444703,0.22236556786408276,-0.12992431131309765,0.2574194314644345,0.0
0.44558296613850557,-0.03234976227428616,-0.20445288966830594,0.2628747425281699,-0.10903284447041245,0.24281414152118974,0.0
0.45747490658070356,-0.04522461304673907,-0.21819599889654961,0.29368453930335864,-0.07377849118734565,0.1780032119323379,0.0
0.4654028668755062,-0.06668269737404477,-0.1952908235319022,0.306807215573704,-0.03787127906777238,0.13601302561265755,0.0
0.44558296613850557,-0.04522461304673907,-0.18154773435093433,0.3313409328414418,0.007175950790820834,0.06755077910478165,0.0
0.4416189859911058,0.010566406673774379,-0.15864255898628687,0.31593604837161793,0.03394314517137417,0.03195040783111931,0.0
0.4257630654015049,0.0363161088055785,-0.13115636057707541,0.25317536463927165,0.04438887859271677,0.06116096753800558,0.0
0.4416189859911058,0.05777419665427421,-0.1952908235319022,0.1750097825193309,0.05940462386960484,-0.012778262698587122,0.0
0.44954694628590464,0.07064904654637964,-0.17238566821453052,0.11624295617718661,0.07115607496396043,-0.04929146250615707,0.0
0.45351092643330443,0.0792322798077832,-0.14031842671347922,0.0917092389094489,0.05679318852357887,-0.05111712374906267,0.0
0.4654028668755062,0.049190958697683924,-0.16322360207812672,0.06146999766357232,0.03981887071855196,-0.03742467556084494,0.0
0.48522249006173057,0.027732875544174914,-0.14948049284988307,0.04663565480529017,0.07246179263697343,-0.04198882310132179,0.0
0.45351092643330443,-0.010891677653531313,-0.18154773435093433,0.03522462076678309,0.09074182413363265,-0.0702865500992101,0.0
0.45351092643330443,-0.01947491150183325,-0.1678046251226907,0.03921848337614912,0.10184041639148175,-0.06207108563970918,0.0
0.44558296613850557,-0.01947491150183325,-0.13573738362163942,0.021531381138379525,0.09008896529712616,-0.08763032077323908,0.0
0.44558296613850557,-0.023766528425984222,-0.17238566821453052,0.020960829088509905,0.0966175536621911,-0.1077125833116264,0.0
0.43369102569630374,-0.03234976227428616,-0.1952908235319022,0.043782896295663405,0.06854463961793446,-0.09402013512340868,0.0
0.4416189859911058,-0.01947491150183325,-0.18154773435093433,0.05747613679392765,0.05614032968707236,-0.06846089442309163,0.0
0.4416189859911058,-0.01947491150183325,-0.18154773435093433,0.038647931326279486,0.08486610256783553,-0.06937371947775729,0.0
0.43369102569630374,-0.03664137919843713,-0.18612875739549836,0.05120006772480447,0.09074182413363265,-0.06207108563970918,0.0
0.43369102569630374,-0.03664137919843713,-0.18612875739549836,0.028948552567520595,0.08160180838530305,-0.08397899828742784,0.0
0.4376550058437035,-0.04093299641603727,-0.1678046251226907,0.03465406871691347,0.10836900475654669,-0.09402013512340868,0.0
0.45747490658070356,-0.03664137919843713,-0.1678046251226907,0.031230759897138412,0.09531183598917811,-0.045640145587132995,0.0
0.44954694628590464,-0.01947491150183325,-0.1678046251226907,0.012973105826964378,0.07833751420277059,-0.04381448434422741,0.0
0.4654028668755062,0.001983173412370764,-0.17696669125909456,-0.0064256510381579075,0.05222318064941406,-0.028296374913104043,0.0
0.46936684702290593,-0.023766528425984222,-0.19070980048733818,-0.0064256510381579075,0.04634745510223625,-0.04381448434422741,0.0
0.4654028668755062,-0.03664137919843713,-0.19070980048733818,0.011261450764681347,0.0750732279829994,-0.05841976315389795,0.0
0.45747490658070356,-0.04522461304673907,-0.17238566821453052,0.016966967566469725,0.0979232713352041,-0.08580465953033345,0.0
0.45351092643330443,-0.03664137919843713,-0.15406151589444703,0.01069089914974206,0.0979232713352041,-0.12049220087839138,0.0
0.4376550058437035,-0.03664137919843713,-0.15864255898628687,0.021531381138379525,0.08682467907735501,-0.12596918460710818,0.0
0.42179908525410575,0.006274790043072553,-0.11741325134883158,0.004414830950479565,0.05287603948592055,-0.12140503149984418,0.0
0.40990714481190715,0.04060772543628033,-0.11741325134883158,0.008979244304924198,0.04047172955505847,-0.1022355995829096,0.0
0.4376550058437035,0.04060772543628033,-0.13115636057707541,0.011261450764681347,0.01631596852984078,-0.09128164325905026,0.0
0.43369102569630374,0.02344125891347313,-0.10825118521242805,0.016966967566469725,-0.005228358891204962,-0.08124051755664372,0.0
0.4376550058437035,0.0363161088055785,-0.09450809603146006,0.012973105826964378,0.01892740188517643,-0.09128164325905026,0.0
0.4416189859911058,0.04060772543628033,-0.08992705293962033,0.024954690828015248,-0.005228358891204962,-0.07758919507083249,0.0
0.44558296613850557,0.014858025652069515,-0.04869774530216507,0.0226724843682581,0.007175950790820834,-0.08489182890888067,0.0
0.44558296613850557,0.006274790043072553,-0.06244087457768464,0.03294241430702594,0.01696882736634727,-0.09219447388050309,0.0
0.44558296613850557,0.04060772543628033,-0.12657531748523557,0.03237186225715632,0.0032588002601447764,-0.09767145760921989,0.0
0.44558296613850557,0.014858025652069515,-0.09450809603146006,0.03066020784726879,0.051570321812907556,-0.09767145760921989,0.0
0.4376550058437035,0.019149642282771308,-0.09450809603146006,0.04834731095489903,0.048306031611755736,-0.09128164325905026,0.0
0.4297270455489046,0.010566406673774379,-0.06702187757497284,0.05747613679392765,0.03786029420903249,-0.07393787258502131,0.0
0.43369102569630374,0.02344125891347313,-0.10367014212058799,0.05804668884379726,0.03459600400788066,-0.08489182890888067,0.0
0.417835105106706,0.010566406673774379,-0.12657531748523557,0.04093013778603664,0.01958026072168293,-0.08124051755664372,0.0
0.417835105106706,-0.010891677653531313,-0.08992705293962033,0.055764480644318784,0.0013002249948067487,-0.06207108563970918,0.0
0.44558296613850557,-0.010891677653531313,-0.11741325134883158,0.08486261431101345,0.011745959660330806,-0.01003977361762228,0.0
0.4614388867281039,-0.01947491150183325,-0.12657531748523557,0.08714482251049192,0.00587023411315301,0.00547833720519786,0.0
0.45351092643330443,-0.01947491150183325,-0.17238566821453052,0.07858654872133293,0.007175950790820834,0.027386257855173065,0.0
0.45351092643330443,0.006274790043072553,-0.15406151589444703,0.0700282714527313,-5.491682861077371e-06,0.020083617754489396,0.0
0.44558296613850557,0.014858025652069515,-0.11741325134883158,0.05918778946409384,0.0013002249948067487,0.05659681721413516,0.0
0.44558296613850557,0.014858025652069515,-0.09450809603146006,0.04321234424579378,-0.018285526912064667,0.06663794848332884,0.0
0.44558296613850557,0.019149642282771308,-0.05327878839400481,0.04834731095489903,-0.014368376879061194,0.07302775726671132,0.0
0.44558296613850557,0.001983173412370764,-0.12199429444067168,0.05462337654457954,-0.02220267694506815,0.05020700843075269,0.0
0.45351092643330443,-0.0066000598490328355,-0.12657531748523557,0.05348227592428297,-0.020244102426238992,0.05933530907849357,0.0
0.44558296613850557,-0.002308443218331036,-0.14489944975804328,0.055764480644318784,-0.020896961262745487,0.07667907975252253,0.0
0.4416189859911058,-0.0066000598490328355,-0.09450809603146006,0.06432275443347778,-0.004575500552371049,0.0821560579144522,0.0
0.4297270455489046,0.006274790043072553,-0.14948049284988307,0.065463858533217,-0.028731261328752443,0.09584850610266996,0.0
