acc_x,acc_y,acc_z,gyro_x,gyro_y,gyro_z,activity
-1.4896256979912466,0.055489148832586294,2.718628732005904,0.01951040959477355,0.24090010565197534,0.4214190874607159,0.0
-1.5962633655638931,0.04401327261450905,2.753711183364657,-0.029739893682512564,0.31920450264315825,-0.4923875047001291,0.0
-1.4220884753437018,0.09756732257213388,2.7086051744748327,0.0039576722602108075,0.4601524335997521,-1.3698236618387774,0.0
-1.4220884753437018,0.09756732257213388,2.7086051744748327,0.06357646709387199,0.7068112854863502,-1.3743699551265172,0.0
-0.9564371734631278,0.1625972487478358,2.653475608053937,0.12267681838041711,0.7828784124327881,-0.6906062203106129,0.0
-0.9564371734631278,0.1625972487478358,2.653475608053937,-0.056697959082889604,0.4735760265807791,0.3905042398719184,0.0
-0.9280005201839423,0.20467545596744255,2.6484638292884006,-0.21689104613619972,0.13407053605587826,0.9142381493104356,0.0
-1.0097560072494507,0.23527777022894225,2.6985816169437604,-0.2231121347469256,-0.00967397051839098,0.8787770084338986,0.0
-1.105730007619439,0.2620547868377397,2.718628732005904,-0.1526064395868184,0.004868274539659245,0.43051167403619517,0.0
-1.105730007619439,0.2620547868377397,2.718628732005904,-0.1655670461284134,-0.05553797744275152,0.42596538074845564,0.0
-1.130612125904948,0.19319956300933552,2.813852177635337,-0.18267504613100882,-0.024216217281906316,0.4814302387071311,0.0
-1.1874855569065763,0.1625972487478358,2.8489346289940882,-0.2231121347469256,-0.07902929244699013,0.4450598480450739,0.0
-1.2585773767694268,0.1434707939643836,2.818863956400872,-0.33146279563385594,-0.2283669656057957,0.06771682867054991,0.0
-1.2905686272639174,0.1625972487478358,2.8389110714630164,-0.3801946806564223,-0.16348618888308136,-0.4232837225180948,0.0
-1.3225599399800374,0.13582023213903835,2.818863956400872,-0.3459786838127811,-0.05386002490919296,-0.6978803073150525,0.0
-1.4185338781283965,0.1893742988366925,2.7687465196612644,-0.3501260677891327,0.004868274539659245,-0.7869878509393651,0.0
-1.5216170107073663,0.1013926202248361,2.758722962130192,-0.3812315171658616,0.1486127777029983,-1.398010715710875,0.0
-1.4363068019832945,0.2238018772708353,2.7136169532403684,-0.2936178330685824,0.48252510675975807,-2.133602264983235,0.0
-1.4363068019832945,0.2238018772708353,2.7136169532403684,-0.28324934151220726,1.059181058302952,-2.5564083392255403,0.0
-1.2799048978396304,0.18172370353128803,2.6584873868194734,-0.5196507845969822,0.5334229525246781,-2.5964156846695374,0.0
-1.2123676751920853,0.06696502505066354,2.553240383658969,-0.3724183056660419,0.2716625483016344,-1.9426575920170508,0.0
-1.1803763624759658,0.0363626940491341,2.558252162424505,-0.29932049710148956,0.060799989843510725,-0.9942991974854679,0.0
-1.1803763624759658,0.055489148832586294,2.518157932300217,-0.2345174691358391,0.21908674318129526,-0.10322410503342608,0.0
-1.201703883546169,0.1013926202248361,2.6033581713143286,-0.22259371016910684,0.12008760509808403,0.1359113499770293,0.0
-1.2585773767694268,0.13582023213903835,2.6133813779296493,-0.17489868062527705,0.2839675199040096,0.2177447622367627,0.0
-1.304787016125139,0.12816963683363358,2.673522723116081,-0.19200668220864728,0.3896784681214551,0.19865031712021416,0.0
-1.304787016125139,0.12816963683363358,2.673522723116081,-0.20237516428037367,0.5306263717906078,0.04862236137393147,0.0
-1.2408043906928996,0.08226618218141363,2.8389110714630164,-0.2770282592245805,0.5194400488543255,-0.02320919927600451,0.0
-1.1803763624759658,0.04783857026721135,2.8489346289940882,-0.28013880669149305,0.47413536455754646,0.3168541422220746,0.0
-1.130612125904948,0.07461560361603853,2.863969965290696,-0.30813370860130923,0.5009825505196003,0.7451157373575693,0.0
-1.1590488414057623,0.1013926202248361,2.863969965290696,-0.21222522493583088,0.7845563717882071,1.1179124079941793,0.0
-1.1803763624759658,0.14729609161708582,2.85895818652516,-0.22155686101346933,0.6900317465070439,1.3406812226948206,0.0
-1.2159222724073908,0.1625972487478358,2.83389929269748,-0.1743802576282331,0.38240734729789516,1.3706867761379584,0.0
-1.301232418909834,0.17024784405324034,2.8739935228217686,-0.1816381969753713,0.047935693908088856,1.0424438329533654,0.0
-1.336778328841259,0.1740731417059425,2.8790053015873043,-0.2324437708245641,-0.21773995335883947,0.43869501082615464,0.0
-1.3154508077710554,0.21232601779278776,2.8689817440562315,-0.11113250181526409,-0.34246765602545287,0.35140603331309184,0.0
-1.0737386326816905,0.23910303440158528,2.88401708035284,-0.09817189369289434,-0.10867310007427677,1.077904973829902,0.0
-0.9173367285380262,0.2620547868377397,2.813852177635337,-0.29724679879021454,-0.006877384667925162,2.1599246394378135,0.0
-1.063074965479032,0.23910303440158528,2.793805062573193,-0.33457334310076836,-0.03372460815021107,2.2699452386500645,0.0
-1.063074965479032,0.23910303440158528,2.793805062573193,-0.14171953056611108,-0.10363924929546148,2.2081155434724695,0.0
-1.4576343852751268,0.07079030596333623,2.783781505042121,0.19007197555826047,-0.20319769806799856,1.579816622255101,0.0
-1.5322807401316536,0.021061536918384163,2.8288875139319445,0.20821681681261953,-0.5203305017891727,1.076086474258862,0.0
-1.6495821993502164,-0.06692011658342784,2.88401708035284,0.11956628355970285,-0.7390235190476238,0.49143211942827014,0.0
-1.7953203740695935,-0.07074540586611533,2.8940406378839123,-0.005892375749048071,-0.8044636064596639,-0.10140558328231623,0.0
-1.802429568500204,-0.09752243084492769,2.863969965290696,-0.053587411615977056,-0.5147373403210316,-1.057038098088443,0.0
-1.7348923769634736,-0.08222127371417776,2.843922850228552,-0.03647940687105724,-0.34582357473629083,-1.749894508200106,0.0
-1.5962633655638931,-0.055444248735365416,2.788793283807656,-0.06084534938234049,-0.21941788542681673,-1.9981224943358662,0.0
-1.461188982490432,-0.0401430916046155,2.763734740895728,-0.06343747227143426,0.3253570020880666,-1.82354458366988,0.0
-1.3616604471267677,-0.021016636821163264,2.673522723116081,-0.2091146837920175,0.6324221178953311,-1.1761511951558934,0.0
-1.3616604471267677,-0.021016636821163264,2.673522723116081,-0.2666597676682054,0.8399287576426168,-0.5269393957911463,0.0
-1.4576343852751268,-0.032492513039240535,2.6885580594126886,-0.18526716585855302,0.7957426947244893,-0.6460524928585966,0.0
-1.4896256979912466,0.055489148832586294,2.693569838178224,-0.26199395279093574,0.46966082446805685,-1.205247543173651,0.0
-1.464743517484109,0.009585677440336607,2.6835462806471524,-0.2666597676682054,0.592710595066693,-0.8633657201258387,0.0
-1.347442058265546,0.009585677440336607,2.7486994045991207,-0.3428681363458685,0.5815242175555277,-0.3750929072037189,0.0
-1.2870140922702409,-0.0363177939519132,2.7436876258335845,-0.4403318810986048,0.6782860855939943,0.17137250194360143,0.0
-1.3545512526961572,0.021061536918384163,2.758722962130192,-0.5279455778420824,0.9014536429419349,0.4896135754970903,0.0
-1.4114246836977857,0.03253741313646141,2.778769726276585,-0.4849163821448197,0.7269466886016114,0.36959122864412014,0.0
-1.4896256979912466,0.04783857026721135,2.863969965290696,-0.5170586680309875,0.4567965148889143,-0.05321479014801018,0.0
-1.578490441708995,0.0784408845287111,2.8990524166494476,-0.5383140693984576,0.5966257971794152,-0.9006453605734157,0.0
-1.6175908866340967,0.11669377735558611,2.9341348680081993,-0.5761590572561275,1.057503098947533,-1.411649595574094,0.0
-1.6247000810647072,0.1013926202248361,2.964205189685664,-0.6912492250085034,1.2767553996078682,-2.0699539815143204,0.0
-1.5713812472783844,0.15494668692249058,2.9742287472167357,-0.7379073737811996,1.3684834441549611,-2.828277085945658,0.0
-1.475407309130025,0.15494668692249058,2.889028859118376,-0.618151416443951,1.1995697058576618,-3.0674124855059395,0.0
-1.4682981146994143,-0.0363177939519132,2.8940406378839123,-0.33405492484604876,1.2297727559556704,-1.2388901844791482,0.0
-1.692237272601438,-0.09752243084492769,2.803828620104264,-0.2842861906678448,0.6374559413867047,-1.3852810412730363,0.0
-1.923285609378665,0.10904321553024054,2.929123089242664,0.14859803462515644,1.689531545494903,-3.5884187786683164,0.0
-1.7953203740695935,0.15494668692249058,3.0644407649963847,0.32071489329139713,1.6660402236688039,-3.7011669941567074,0.0
-1.5145078162767558,0.005760379787634266,3.049405428699774,0.15326384950242616,0.9344533283488969,-2.277265416780703,0.0
-1.4149792809130912,-0.013366058255788316,2.94415807462352,-0.06084534938234049,0.08764720991486645,-0.7278859051183301,0.0
-1.4576343852751268,-0.0018901987777406816,2.9090759741805203,0.043876345782957675,-0.6864477139272847,0.2141077409146129,0.0
-1.4718527119147196,0.009585677440336607,2.863969965290696,0.19577465223736593,-1.359306195532178,0.6969249220431936,0.0
-1.4789619063453303,0.017236256005711516,2.803828620104264,0.32641756997050286,-1.7575399906223261,1.1588291363041157,0.0
-1.4540797880598215,0.0401879917018364,2.793805062573193,0.5426004355510486,-1.84814946836565,1.6107315585641782,0.0
-1.4291976697743127,0.055489148832586294,2.793805062573193,0.7665597014143717,-1.404610879828957,1.9789819359130483,0.0
-1.464743517484109,0.06313972739796128,2.693569838178224,0.6540616502279907,-1.2032567395265796,1.847139164407759,0.0
-1.560717455632468,0.12816963683363358,2.6634991655850087,0.2102905151238944,-1.762573868688583,1.4379720587489526,0.0
-1.5749358444936896,0.1013926202248361,2.6634991655850087,0.07550022606060429,-1.4616612796136685,1.2242959193440703,0.0
-1.5464991289928753,0.06313972739796128,2.753711183364657,0.039210530905687935,-1.2144430624628617,1.1451902564408967,0.0
-1.5322807401316536,0.04783857026721135,2.8088403988698003,-0.0629190476936155,-1.3453233464367083,0.9515177897580126,0.0
-1.4896256979912466,0.0019350988749615812,2.889028859118376,-0.5497193974642717,-2.2128240763474194,1.016075278652307,0.0
-1.4185338781283965,-0.10517300941030264,2.788793283807656,-1.4139326185785124,-2.6283967483936417,1.2988552002392244,0.0
-1.3225599399800374,-0.10517300941030264,2.9090759741805203,-1.548722882349406,-2.3957208820397216,1.1370068752907974,0.0
-1.31189621055575,-0.12047416654105256,2.8739935228217686,-1.8100087178156792,-1.581355131501467,0.9260585296026145,0.0
-1.5536082612018571,-0.3729432843084706,2.618393156695185,-1.9873097337367187,-1.6691679739358376,0.7787583786630666,0.0
-1.461188982490432,-0.4264973342660954,2.217451908199562,-2.0583338186976006,-1.7457943842841601,0.35140603331309184,0.0
-1.347442058265546,-0.44944906996222017,2.0420400023215546,-1.2698106744682862,-0.2636039483449443,-0.29053172340735567,0.0
-1.2301405990469834,-0.3193892259808311,1.7714044753562395,-0.9758641095687285,0.2347476198507878,-1.2798069127890845,0.0
-1.329669134410648,-0.4685755247456725,1.911733929875495,-1.0930279503399825,-0.7054644956638941,-1.959024354317249,0.0
-1.2834594950549356,-0.437973193744143,1.911733929875495,-1.6944001065161873,-2.4550084154319696,-3.0446809303469617,0.0
-1.2976778216945282,-0.4532743676149225,1.856604538912475,-1.4170431786916233,-0.9331065931013243,-4.910483315422726,0.0
-1.1803763624759658,-0.7095687746650282,3.194746661984568,-0.3693077708453276,5.410109146748226,-4.981405597175802,0.0
-0.9848739511855709,-0.7707734031880278,2.9040641954149837,-1.135020309527806,4.8625375147746235,-5.111429780389773,0.0
-1.0239743961106724,-0.9123090815374202,2.4179227079052494,-1.8986592763609933,-0.8833273141401726,-5.896121261681606,0.0
-1.0310835905412834,-0.870230941277932,2.2274754657306337,-1.113764984037526,-2.8493270084093965,-5.565150613500594,0.0
-0.9493281034757746,-0.8358033293637298,2.347757805187746,-1.004377492964256,-3.5881849154030983,-5.005955563185539,0.0
-0.8035898665347689,-0.7516469484045756,2.673522723116081,-1.9002144552479616,-3.9427919855518847,-5.043235114912835,0.0
-0.5085589198807093,-0.3538168295250185,3.0243465348720973,-3.0179372633000785,-2.39683944884349,-5.657895244987266,0.0
-0.30239277916602714,-0.3538168295250185,2.924111310477128,-3.3600972570288885,-2.166400934396638,-6.979050221435179,0.0
-0.316611043583991,-0.32703980454620607,2.633428492991793,-3.9930931037897657,-2.8297509978457858,-7.270013701612753,0.0
-0.29883818195072187,-0.29261220100201873,2.4028873716086414,-4.268376358595451,-3.121155114190072,-6.488049481715941,0.0
-0.17442752830154828,-0.3729432843084706,2.197404793137418,-3.055263782318235,-4.430516800731354,-5.0650574646464355,0.0
-0.1602091394403271,-0.4417984913968453,1.9518281599997829,-1.6575919804603532,-6.357364255573824,-3.7011669941567074,0.0
-0.33438402966051806,-0.08604656299686525,1.6811926330344678,-0.5326113927193519,-6.93346065084072,-2.988307000043326,0.0
-0.33438402966051806,-0.08604656299686525,1.6811926330344678,0.14445063800260646,-5.162662870303381,-3.9403025711575457,0.0
-0.67562461567029,0.08226618218141363,1.851592760146939,0.3989969349879387,-3.6983702945602652,-4.930486899424445,0.0
-0.5974237258200867,-0.017191355908490618,2.0420400023215546,0.3430071058759097,-2.770463464453537,-4.624975422678553,0.0
-0.3379386268758234,-0.19315467102056652,2.3978755928431053,-0.09557977396535013,-3.373407209407134,-3.976672917459465,0.0
-0.23485555651848242,-0.20463053965331787,2.5281814898312893,-0.5792695667844451,-4.379618954966434,-3.855741143380413,0.0
-0.060680666298291164,0.07079030596333623,2.5281814898312893,-0.7907866933649113,-4.456804430417108,-4.430393750570289,0.0
-0.07845352793156032,0.26588008449044226,2.247522405334902,-2.036560100244997,-3.5747614588592764,-5.419668873411807,0.0
0.15970386327761277,0.28118124162119196,2.6234049354607207,-2.5695002374415226,-2.7245993876051084,-5.844293358504872,0.0
0.355206461232894,0.20850072014008558,2.4830754809414652,-2.2055663229209372,-2.045029014003656,-4.494042034039202,0.0
0.41918896222187496,0.23910303440158528,1.9468163812342467,-1.4834014234828374,-2.088096455543131,-3.348373996242094,0.0
0.4476257399443185,0.24675362970699005,1.485733787552192,-0.9364638669468995,-2.54226186531469,-2.2163449270284885,0.0
0.4369619482984032,0.7325654271984037,0.8592626700653259,-0.06499274600489055,-3.1323416554258854,-2.0654077769468606,0.0
0.4725079204514561,0.8702758078950933,0.5635683370012687,0.1351190082480672,-3.6072018608643552,-1.788992648218723,0.0
0.4653987260208461,0.8320228983281888,0.5685801157668048,0.01639986212786096,-2.807937635375105,-1.7089777798901695,0.0
0.4973898520720797,0.8626252125896889,0.4783682734450331,-0.20030146913064822,-2.543939933819875,-1.3961922161398352,0.0
0.47961711488206954,0.5910296818888928,0.2778975614682837,-0.23037007251328903,-3.200578159847346,-1.5998665635438585,0.0
0.3765337956382111,0.31560885353539425,0.22276817050526368,-0.0541058361937958,-3.635167559055295,-2.009942874628045,0.0
0.17747684935413954,0.296482398751942,0.23279164030739774,-0.0971350476988064,-2.790598758419033,-2.381830251118995,0.0
0.2236866131531098,0.42654221762328665,0.03232092833064827,-0.2257042576360194,-2.8364628352674615,-2.8337326733790578,0.0
0.3623156556635049,0.5259997557131909,-0.16313800488056485,-0.43877662633444603,-3.3420853742058245,-3.027404962621382,0.0
0.32321508629514517,0.4188916892780006,-0.20824392604145087,-0.5720116353411808,-3.5999307400407963,-2.7619011862006038,0.0
0.262786933634954,0.20085015831474004,-0.022808506496840648,-0.3610129776002275,-4.202874484994393,-2.691888109872909,0.0
0.145485474416391,0.5336503510185953,-0.39869112435159737,-0.29569153137985743,-4.931105570753227,-2.977395825176526,0.0
0.08861216785802006,0.6981378152842014,-0.834714955799379,-0.37293674921315817,-5.2135607160683,-2.4563897094547085,0.0
-0.10333570843869826,0.5795537889307858,-1.215609308555203,-0.30087576451184667,-5.367932103568714,-0.3960059184315171,0.0
0.03173861241313389,1.2030760340790079,-1.0151385965784536,-0.762273360554177,-3.0243934098762537,0.8951436820138173,0.0
0.308996697433924,0.8626252125896889,-1.2757505660126967,-0.8405554022507186,-4.03675727285628,1.1906532780385728,0.0
0.17392225213883453,0.7975953533741056,-1.3809977007666074,-0.5336482545211878,-3.469609848618599,2.7591272126374244,0.0
0.3978613789300432,0.4035904986671914,-1.9974451729934637,0.4124759613650282,-8.740054752093975,5.163211503720026,0.0
0.14193087720108571,0.7784688651105939,-0.5540559316166368,-0.686064991876514,-0.22612969556105106,2.8946069832847936,0.0
-0.09622651400808738,0.6216319961503924,-1.571444855212285,-1.073846297868581,-0.6993119962189859,3.227396397197686,0.0
-0.060680666298291164,0.7975953533741056,-1.5965037490399652,-1.1427967098105833,-0.09133427087122582,3.3074110880856797,0.0
0.3978613789300432,0.9888597672883905,-1.9824098366968559,-1.5238385026141055,-0.2977223097054412,1.9116966533020538,0.0
0.5222720325792173,0.8281976676356054,-2.012480421561134,-1.3071371934864433,-0.22724834422714424,1.3497738092703,0.0
0.12415814001107417,0.36151232492764396,-1.7418449823247566,-1.172865322677873,0.18273112541977443,1.862596543842018,0.0
-0.07489893071625503,0.2582294891850375,-1.626574333904243,-1.4880672636525039,0.8841148205607441,2.545450984512262,0.0
0.22013201593780482,0.31560885353539425,-1.5965037490399652,-1.3377241993160558,-0.11202900514139388,1.849866958124459,0.0
0.5471542130863527,0.42654221762328665,-1.8019862397822504,-1.1744206027344282,-0.26136667830019955,2.032628249940544,0.0
0.3445426695869778,0.33473527483878723,-1.8069979308188482,-1.128799290471171,-0.3117052133757938,2.501806639926185,0.0
0.17747684935413954,0.10904321553024054,-1.7017508399294066,-1.388529845880889,-0.5141780023442644,3.9357100093030475,0.0
0.017520472438427644,0.2505789273596922,-1.6616566975340568,-1.7011396197047324,-1.0108516794031812,4.549460579070979,0.0
-0.25973761258236244,0.23527777022894225,-1.651633140002985,-1.8867354288708722,-0.7104983191552678,5.782417660921356,0.0
-0.09978111122339267,0.013410958353009214,-1.3960329493342776,-1.5461308163682046,-0.0801479274693625,5.708767408011024,0.0
1.6988412219801496,0.4800963178010003,-2.9797517932729423,-2.648300621515593,-3.3873901676523706,3.92207121816011,0.0
0.8741764102349046,0.08226618218141363,-2.1929041062046775,-1.9940492469252646,-1.744116424928741,3.5074483476273426,0.0
0.5933639768853244,-0.0363177939519132,-2.102692263882905,-1.7343187926851327,-0.8615139516694925,2.5490881610949008,0.0
0.543599615871048,-0.18932938147631606,-2.012480421561134,-1.545093929273972,0.4830844447365254,1.4343349708865933,0.0
0.4227435594371797,-0.2275822769188205,-1.957351030598114,-1.3703849793341334,1.2487895922671628,1.006982692076828,0.0
0.3871975872841273,-0.18550409167050266,-1.7769273459545702,-1.122578170244949,1.7320395944827285,1.0224400715110868,0.0
0.476062517666762,-0.08987185227955274,-1.8019862397822504,-0.7710865467616,1.744344593372545,0.8442250729827414,0.0
0.4085251705759602,-0.08987185227955274,-1.7618920973869006,-0.5917117566520951,1.5250922927122097,0.2586614905466993,0.0
0.28411451692678635,-0.25435930399013656,-1.6466213612374485,-0.6502937023301189,1.117350024891432,0.3304930442653634,0.0
0.3054421002186184,-0.17785351205887587,-1.561421297681213,-0.5803064538786776,0.45232197479942476,0.3004874464620859,0.0
0.28411451692678635,-0.11282358797567761,-1.5263389340513993,-0.16815916585595758,-0.05218207237563441,0.5059802934371489,0.0
0.42985275386779315,-0.013366058255788316,-1.4661977643228432,0.19421937218081048,-0.4442633748427347,-0.30780766895286443,0.0
0.5507088103016609,-0.1816788023878152,-1.576456633977821,0.4757237472127181,-0.9180049589025537,-1.0624936855218423,0.0
0.3267696835104513,-0.17020293349350088,-1.6817037248672628,0.2740566939339074,-1.5662536064524626,-1.0934085331106398,0.0
0.4547349343749285,-0.0363177939519132,-1.7167861762260144,-0.7451653305168605,-2.550092487839666,-1.7471667144834064,0.0
0.37297919842290556,0.02871211548375915,-1.7719155671890345,-0.7881945262141232,-2.555126256756158,-1.688064813022511,0.0
0.39430678171473815,0.08226618218141363,-1.9373039155359697,-0.8094499528739898,-2.8638692500565166,-2.533676784066562,0.0
0.29833290578800753,0.07461560361603853,-2.1127158214139774,-0.8960267878156315,-2.4438220924956893,-1.6944296058812909,0.0
-0.1282178889458359,-0.1166488772583651,-1.9974451729934637,-0.11216935097090161,-1.3313403881914725,-0.6687840036574348,0.0
-0.07489893071625503,0.11286847970288362,-2.182880548673605,-0.3464971020675007,-0.7507691799606733,-0.3469058533316211,0.0
-0.14954534779441064,0.2697053486630853,-2.142786494007193,-0.7938972028932288,0.07925745406893404,0.22229107770457227,0.0
-0.3201656407992966,0.08991676074678835,-1.8069979308188482,-0.3221311658793166,1.6794637893623894,0.6241840963589396,0.0
-0.3948120578774522,-0.20845582945913127,-1.3559388508033965,0.5659295352297935,3.917851091113704,1.942611589611131,0.0
0.06372998735088242,-0.13577532785680987,-1.7518685398558285,0.7790019418668152,4.080612166241447,2.008078283930806,0.0
0.04240240405905007,-0.05926953801805289,-1.987421615462392,0.9184580458073749,2.368542417394938,2.0653615971003814,0.0
0.24501419644494218,0.1319949344863358,-2.012480421561134,0.7732992146029163,2.153764711398976,2.4008786272894143,0.0
-0.060680666298291164,0.10904321553024054,-2.273092390995377,0.6286588775303674,3.1655695092766525,2.956436678462388,0.0
1.10167013424142,0.055489148832586294,-2.8745046146545628,0.3839626285542939,1.1777563433869815,3.315594646676338,0.0
0.9203861740338751,-0.08987185227955274,-2.0625981214875555,-0.3967842418542259,1.2968909118728955,2.259943269208646,0.0
0.5471542130863527,-0.3882444414392206,-1.7017508399294066,-0.7591628004410663,1.5390751418076793,1.2106569507605716,0.0
0.6040277685312397,-0.437973193744143,-1.6666684762995927,-0.8078946728174344,2.0139353472461505,0.22592812120679195,0.0
0.6395734917977809,-0.43414791283147036,-1.606527218842099,-0.7207993943286766,2.341695286007768,-0.2887132016562458,0.0
0.6146913112906427,-0.334690383111581,-1.5413742703480071,-0.5409061859644521,2.5536765749943102,-0.38145774442263836,0.0
0.4547349343749285,-0.1816788023878152,-1.3409035145067887,-0.6751780820654194,2.529625860616559,-0.29871506019731503,0.0
0.41563436500657025,-0.20463053965331787,-1.170503431258786,-0.7150967176495711,2.2863229547282407,-0.021390678911149038,0.0
0.5187174353639126,-0.14342590642218486,-1.1253975100979003,-0.4164843631651404,2.3579153778605413,-0.12050005057893466,0.0
0.4262981566524878,-0.19315467102056652,-0.9449738473865913,-0.500469106833184,2.173900223664003,-0.0959500180289867,0.0
0.15970386327761277,-0.3040880688500812,-0.7044089765653162,-0.26095710363529817,1.982054446942489,-0.09504075715343177,0.0
0.16681305770822336,-0.31556393669814364,-0.6593030636290181,-0.255254439602391,1.520058414645953,-0.32417434253278316,0.0
0.09216676507332565,-0.25435930399013656,-0.664314831428437,-0.35116291694477025,1.2560607130907229,-0.21779089772310173,0.0
0.6502372834436957,-0.16637764421081344,-0.5039382481393908,-0.03440570855978221,2.1694255198498644,0.7005619655454131,0.0
0.7248835760785928,-0.0401430916046155,-0.2583616040356381,-0.12461153135390303,-0.2764682579240869,1.8489577526990786,0.0
1.1301069119638634,-0.23523285757669915,-0.43878526674694723,-0.28169407410185016,-1.3028151882991168,1.3061292872436636,0.0
0.6609010750896115,-0.42267203661339303,-0.8096561058361682,-0.1702328641672326,-0.244027855919009,1.551629657103283,0.0
0.3871975872841273,-0.3232145152635186,-0.6593030636290181,-0.06758486257088517,-0.5701097261754413,1.2279329184861498,0.0
0.5542634075169661,-0.2773110438712688,-1.1554680949621783,0.2185853083689945,1.0653336123227435,1.3797793627134374,0.0
0.7710933398775639,-0.4035455985699706,-1.0351856677761289,0.12941633156896173,2.5223547397929997,0.7187471830565115,0.0
0.5151628381486051,-0.3040880688500812,-0.5590676994160555,0.39484953836538866,1.9512918951430631,0.8824140075759781,0.0
0.5116082409333003,-0.5183042937906245,-0.5340088604189619,0.10764253723916885,1.682819708073227,0.7760305849463668,0.0
0.7142200333191933,-0.38441914378651826,-0.8998679262257053,-0.3739735857225973,2.8389281373188022,-0.5305764392933661,0.0
0.21302282150719365,-0.2849616224366438,-0.07292620642326243,0.3684099291583263,1.3421955961696748,-0.12777412649333908,0.0
0.35876105844819955,-0.3385156723942685,-0.26838513963447574,0.006549801472403763,1.2448743901544408,-0.3214465709961533,0.0
0.41207976779126493,-0.3117386474154562,-0.43878526674694723,-0.22622268221383815,0.18217180108672787,-0.28962245144176585,0.0
0.5009444492873845,-0.3117386474154562,-0.10299679128754041,-0.40248691853333135,-0.3855350975649287,-0.014116596065472761,0.0
0.49028065764146966,-0.3652927057430957,-0.12805564125075106,-0.23399904455802034,-0.8469717100223725,-0.128683387368894,0.0
0.48317171209737486,-0.3576421271777207,-0.22327921847359006,-0.1982277708193732,-0.9929535190452233,0.004068608622772785,0.0
0.4476257399443185,-0.3040880688500812,-0.44880880234578474,0.013807732915668048,-1.3710519110201105,0.033164937579532754,0.0
0.42985275386779315,-0.36146740809039335,-0.4989264803399721,-0.2288147987798328,-0.4705512774029042,-0.08049259423458796,0.0
0.4618441288055414,-0.3499915486123458,-0.5089500159388096,-0.16764074285891362,-0.493483315827119,-0.25597983231633853,0.0
0.5720363935934915,-0.36146740809039335,-0.6041736137231181,-0.17697237893655207,0.00934281207095108,-0.27507429961295693,0.0
0.4867263093126796,-0.3385156723942685,-0.7495148922431434,-0.07950862153761741,0.5032198478517866,-0.030483282121680805,0.0
0.508053643717995,-0.31556393669814364,-0.6793501375682224,-0.4958032919559143,1.525651576114094,-0.0323018011002819,0.0
0.44407114272901316,-0.33086509382889356,-0.29845574643098816,-0.17749080351437083,1.818733760963564,-0.10595188766009085,0.0
0.36942485009411546,-0.29261220100201873,0.142579797985626,-0.06032692480452173,1.1688072632080027,-0.13686673524888832,0.0
0.3907521844994326,-0.2773110438712688,-0.022808506496840648,-0.03544255771541972,-0.10363924929546148,-0.10595188766009085,0.0
0.39430678171473815,-0.3232145152635186,-0.30847930396206014,0.2569487144813843,-0.7876841220552406,-0.04684996679163445,0.0
0.3978613789300432,-0.33086509382889356,-0.20824392604145087,-0.0043371083386909695,-1.0572749305037288,-0.014116596065472761,0.0
0.5862547824547144,-0.3079133581327687,-0.7344795888448872,-0.6741411949711869,-0.17858774121952725,-0.177783441378755,0.0
0.5862547824547144,-0.3079133581327687,-0.7344795888448872,-0.11009565265962658,0.2353069305401136,0.012251951304313204,0.0
0.4618441288055414,-0.2696604653058939,-0.21826748357252299,-0.12461153135390303,0.23754420058485817,-0.1214093114544896,0.0
0.4973898520720797,-0.3079133581327687,-0.3285263751597351,0.07964762268315444,0.2850861685701027,-0.017753638181438082,0.0
0.4973898520720797,-0.3079133581327687,-0.3285263751597351,0.0926082308055241,0.44840677268670276,0.027709375098711943,0.0
0.2592323364196487,-0.3385156723942685,-0.1932086336093121,-0.25162546755765974,-0.34806084478103544,0.23956702325008083,0.0
0.39430678171473815,-0.23905814685938662,-0.24833806843680095,-0.12409310677608427,-0.024775534793092493,0.8078547266808241,0.0
0.3409880723716728,-0.33086509382889356,-0.00777321406470146,0.09468192911679918,-0.42133139099340317,0.7569361176497487,0.0
0.39430678171473815,-0.3882444414392206,-0.29845574643098816,0.009660348939316306,-1.3223913080124936,0.6714656618877953,0.0
0.308996697433924,-0.430322615178768,-0.569091235014893,-0.36827090904349175,-1.0930712512196448,-0.45783561360911207,0.0
0.3871975872841273,-0.48005138422372007,-0.5089500159388096,-0.5217244829082571,-0.2842986894369727,-1.8826464851307754,0.0
0.22013201593780482,-0.2773110438712688,-0.5841265411546785,-0.3402760071336756,0.3510855939589103,-3.9639433317419046,0.0
0.3196604890798399,-0.21993169835344553,-0.6392559910605786,0.03869210000476998,1.1274177810239456,-3.1983462290264075,0.0
0.5009444492873845,0.04401327261450905,-0.569091235014893,-0.1147614706984458,1.563685139587313,-2.118144885548976,0.0
0.5009444492873845,0.04401327261450905,-0.569091235014893,0.1045319771260581,1.3902968066256411,0.6723749116733153,0.0
0.20235902986127718,-0.17020293349350088,0.17766224934437802,0.2678356242924791,0.7509973484044776,1.5107129287933463,0.0
0.7071108388885821,-0.33086509382889356,-0.34356166759187406,0.00862349978367877,-0.2775868793027385,0.7323860629197305,0.0
0.7071108388885821,-0.33086509382889356,-0.34356166759187406,-0.0883218330374371,0.23418829551774117,0.09044833392437056,0.0
1.0341330360371335,-0.2887869117193313,-0.36862051755508496,-0.20133831512473616,0.0971556007831712,0.04407605976866561,0.0
1.0270238416065227,-0.2467087254247616,-0.3886675887527599,-0.17334340847259558,0.09603696576079884,-0.177783441378755,0.0
1.0270238416065227,-0.2467087254247616,-0.3886675887527599,-0.10698510835426361,0.6961842459519523,-0.4723837876179909,0.0
0.6253551029365574,-0.20463053965331787,-0.12304386248521512,-0.025074078805242896,0.3919157381662,-0.16323527845991118,0.0
0.44407114272901316,-0.1816788023878152,-0.14810271244842607,-0.09246922965998719,0.06415589149969762,-0.128683387368894,0.0
0.3800883928535167,-0.1816788023878152,-0.1881968548437758,-0.27080716429075546,-0.059453193199194426,-0.27507429961295693,0.0
0.47961711488206954,-0.18932938147631606,-0.22327921847359006,-0.09869031827071308,0.3052215716853639,-0.37327440763267883,0.0
0.5613726019475762,-0.20463053965331787,-0.14810271244842607,-0.16090122729920675,-0.3469421961149425,-0.3696373641304594,0.0
0.3267696835104513,-0.20463053965331787,-0.0829497200898654,-0.29724679879021454,-0.6215669099171287,-0.25234278881411887,0.0
0.3871975872841273,-0.13960061713949737,-0.19822041237484797,-0.44188716115516036,-0.6864477139272847,-0.10322410503342608,0.0
0.4334073510830984,-0.14342590642218486,-0.34356166759187406,-0.35323661525604527,-0.23899400514019362,-0.20233347392870293,0.0
0.5791455880241043,-0.18550409167050266,-0.3285263751597351,-0.20859625921419872,-0.16740140463952427,-0.19233161538763374,0.0
0.5364904214404386,-0.16637764421081344,-0.27840867523331325,-0.18889613474173475,-0.2591294082554548,-0.06139813248298702,0.0
0.44051654551370845,-0.16637764421081344,-0.2934439895976867,-0.12772207724004078,-0.18362160564206323,-0.05139626839690032,0.0
0.5151628381486051,-0.17402822277618837,-0.27840867523331325,-0.04840316583778949,0.09659628327198501,-0.049577746645790476,0.0
0.5187174353639126,-0.18550409167050266,-0.2834204539988492,0.040765798316045064,0.275577777701798,-0.12413709408115438,0.0
0.41563436500657025,-0.15872706355293476,-0.2934439895976867,0.13200847342735292,-0.05330070739800679,-0.15141489816773213,0.0
0.4369619482984032,-0.1319500385741224,-0.30847930396206014,0.0008471374394966033,-0.18585887568680803,-0.12686486561778418,0.0
0.45828953159023605,-0.14342590642218486,-0.3285263751597351,-0.06240062311579676,-0.08462246755885199,-0.10686114853564575,0.0
0.508053643717995,-0.15872706355293476,-0.3285263751597351,-0.09920874284853184,0.12512146269875968,-0.15050563729217722,0.0
0.5329358242251332,-0.1549017742702473,-0.35358520319071146,-0.26510450025784826,0.30857749039620186,-0.15505194166995184,0.0
0.4476257399443185,-0.16637764421081344,-0.30847930396206014,-0.26562291851256786,-0.004080798817459323,-0.030483282121680805,0.0
0.4049705733606549,-0.16255235492812592,-0.27840867523331325,-0.2257042576360194,-0.2887732295264623,0.020435293639290038,0.0
0.4262981566524878,-0.1472511957048723,-0.19822041237484797,-0.0909139559265309,-0.39000963765441826,-0.03684810270554777,0.0
0.47961711488206954,-0.1472511957048723,-0.203232147275915,-0.14275637932655488,-0.27534960925799373,-0.039575885332212554,0.0
0.4973898520720797,-0.15872706355293476,-0.34356166759187406,-0.255254439602391,-0.1925706721773214,-0.08776668123902734,0.0
0.4689533232361514,-0.17402822277618837,-0.35358520319071146,-0.3024310445684021,-0.1422321371017271,-0.16141675670880135,0.0
0.4618441288055414,-0.17402822277618837,-0.3285263751597351,-0.18111977239755256,0.07590154900181695,-0.025936980516414916,0.0
0.5471542130863527,-0.17785351205887587,-0.31349106079536165,-0.15882753056870652,0.2705439269229828,0.22774664295790178,0.0
0.5507088103016609,-0.18932938147631606,-0.26838513963447574,-0.2796203757905752,0.1452568726358812,0.4314209238217151,0.0
0.5329358242251332,-0.19315467102056652,-0.3185028395608976,-0.34701553296841864,0.13518917107825063,0.5750840756191834,0.0
0.4973898520720797,-0.2275822769188205,-0.36862051755508496,-0.1147614706984458,-0.12992715185563103,0.16955398019249157,0.0
0.41563436500657025,-0.1549017742702473,-0.42374995238257385,-0.14586692461990208,0.025003692151373682,0.12227244793374042,0.0
0.5720363935934915,-0.23905814685938662,-0.3585969819562475,-0.426334436466796,0.41820364072636945,0.3104893271832249,0.0
0.5613726019475762,-0.21993169835344553,-0.3936793455860614,0.1895535573035409,1.8869703745347925,0.25593369682999956,0.0
0.3907521844994326,-0.21993169835344553,-0.27339691840001173,-0.28273092325748767,1.0586217749010678,-0.11504448532560513,0.0
0.3445426695869778,-0.2122811187418187,-0.1781733411771729,-0.25058861840202223,0.8354542175531274,0.00043156763313913644,0.0
0.47961711488206954,-0.2122811187418187,-0.09297327762093716,-0.005892375749048071,0.7196755677780512,-0.16232601758435627,0.0
0.35876105844819955,-0.22375698763613303,-0.07292620642326243,0.08794241592825455,0.4875589848260149,-0.24052240852193982,0.0
0.4049705733606549,-0.2275822769188205,-0.10299679128754041,0.022620957061686046,0.26103553605467805,-0.14505007203884768,0.0
0.3765337956382111,-0.2275822769188205,-0.05789087012665445,-0.04114523439452522,-0.18138433559731845,-0.0032054735297763074,0.0
0.3658702528788105,-0.10899829869299012,-0.09297327762093716,0.03402628512750044,-0.14167281276868054,0.07044460575219721,0.0
0.41918896222187496,-0.1816788023878152,-0.1681497836461011,0.3487097825550151,-0.6674309321906752,-0.37872995070593857,0.0
0.4689533232361514,-0.19315467102056652,-0.34356166759187406,-0.06706644431616557,0.017173252004570812,-0.15596120254550674,0.0
0.44407114272901316,-0.15872706355293476,-0.1180320837196793,-0.07691649864852362,-0.2546548681659654,-0.021390678911149038,0.0
0.4618441288055414,-0.0936971415622402,-0.4788794091422972,-0.1567538338382063,0.3728989564295904,-0.010479555335761807,0.0
0.41918896222187496,-0.12429945582374005,-0.10299679128754041,-0.1059482591986261,-0.11706285592020917,-0.08231111598569782,0.0
0.3800883928535167,-0.1549017742702473,0.027309193429581245,-0.16815916585595758,-0.6114992083594982,-0.128683387368894,0.0
0.41918896222187496,-0.1472511957048723,-0.16313800488056485,-0.19148825763082852,-0.5757028876435824,-0.13050190912000387,0.0
0.4689533232361514,-0.1510764849875598,-0.2934439895976867,0.0381736817500504,-0.23396015436137843,-0.03593884182999285,0.0
0.5791455880241043,-0.18550409167050266,-0.27339691840001173,0.14134010318189222,0.22132401322604003,-0.13686673524888832,0.0
0.6395734917977809,-0.20463053965331787,-0.2633733828011744,0.36789148561121,0.5043384692304382,-0.24234093027304965,0.0
0.4973898520720797,-0.1549017742702473,-0.32351459639419916,0.10401355887133848,0.34996694529281713,-0.18960382167093404,0.0
0.6857832555967491,-0.1816788023878152,-0.23330277600466182,0.5047554729857752,0.7946240733458377,-0.14959637641662232,0.0
0.5044990465026903,-0.10517300941030264,-0.664314831428437,0.28183304363189127,1.2666877526251208,-0.10413336590898101,0.0
0.44407114272901316,-0.15872706355293476,0.27288578270274777,1.0351034430315127,0.0009530553722861426,-0.34508733158051125,0.0
0.42985275386779315,-0.05926953801805289,-0.3936793455860614,-0.06602959516052805,0.15308731779248777,0.029527896849821798,0.0
0.476062517666762,-0.12812474929143491,-0.19822041237484797,-0.13186947070104124,-0.05609729495393771,-0.00866103497090633,0.0
0.5400450186557433,-0.13577532785680987,-0.2433262896712647,-0.2894704364460323,0.055206818142579064,-0.13686673524888832,0.0
0.5222720325792173,-0.12812474929143491,-0.17316156241163702,-0.08054547069325492,0.24313737569672011,-0.13868525699999817,0.0
0.42985275386779315,-0.1510764849875598,-0.12805564125075106,-0.009002923215960615,0.16930751879502678,-0.14141303962666293,0.0
0.3623156556635049,-0.1510764849875598,-0.06290264889219038,0.03609998343877549,-0.006318067156738964,0.0022500882579173077,0.0
0.4867263093126796,-0.16255235492812592,-0.363608738789549,-0.25266231671329725,0.5071350499645086,-0.06321664868907936,0.0
0.4867263093126796,-0.14342590642218486,-0.10299679128754041,-0.10024559200416937,0.2045444878904545,-0.08412963773680764,0.0
0.4334073510830984,-0.1319500385741224,-0.022808506496840648,-0.06395589684925303,0.11505375431926872,-0.14414081116329278,0.0
0.39430678171473815,-0.1549017742702473,-0.05789087012665445,-0.02403722964960538,-0.031487338105466334,-0.1177722679522699,0.0
0.3871975872841273,-0.11282358797567761,-0.042855577694515264,-0.1386089854703607,-0.3726707879857862,-0.033211061975836814,0.0
0.41563436500657025,-0.1166488772583651,-0.022808506496840648,-0.1743802576282331,-0.35365400624917664,0.07317238837886197,0.0
0.5720363935934915,-0.14342590642218486,-0.22327921847359006,-0.35271819700132573,0.34381447313535035,0.04407605976866561,0.0
0.4867263093126796,-0.12047416654105256,-0.2383145547701977,-0.21740947071401845,0.09156243249316975,-0.0641259095646343,0.0
0.3836429900688217,-0.1166488772583651,-0.153114491213962,-0.16245650024227562,-0.04938548481970348,0.01861677327443456,0.0
0.41207976779126493,-0.07839598443149028,-0.09297327762093716,-0.2894704364460323,-0.25129897674256896,0.04771310049837656,0.0
0.4085251705759602,-0.12812474929143491,-0.1881968548437758,-0.16090122729920675,-0.2887732295264623,0.04862236137393147,0.0
0.5791455880241043,-0.23140756620150799,-0.37864405315392247,0.4005522150444942,0.47525398593619805,-0.1686908437132407,0.0
0.36942485009411546,-0.08222127371417776,0.16763869181330585,-0.40922643172187617,-0.7043458742852426,0.024072334369000987,0.0
0.4973898520720797,-0.1166488772583651,-0.20824392604145087,-0.29050728560166983,-0.002962165500552056,-0.1323204308711137,0.0
0.44407114272901316,-0.13577532785680987,-0.1881968548437758,-0.28324934151220726,-0.04323299901851583,-0.07230925189961111,0.0
0.4547349343749285,-0.1472511957048723,-0.24833806843680095,-0.24644122810257132,0.05912203730995217,-0.07867407802849559,0.0
0.4689533232361514,-0.1319500385741224,-0.16313800488056485,-0.04166365264924481,0.19671405637756864,-0.15141489816773213,0.0
0.4227435594371797,-0.1166488772583651,-0.19822041237484797,-0.11216935097090161,0.15364662848181357,-0.09776853978009652,0.0
0.4618441288055414,-0.17785351205887587,-0.153114491213962,-0.016779285560142805,0.16147707363842018,-0.07685555627738574,0.0
0.4653987260208461,-0.15872706355293476,-0.1180320837196793,0.10971621025804724,0.26998458894621546,-0.10413336590898101,0.0
0.44407114272901316,-0.10517300941030264,-0.153114491213962,0.16311392280408177,0.2353069305401136,-0.11231670269894038,0.0
0.45828953159023605,-0.11282358797567761,-0.153114491213962,0.18799827724698545,0.16147707363842018,-0.1214093114544896,0.0
0.41207976779126493,-0.024841934473865564,-0.022808506496840648,0.13771112481406184,0.04066457137906373,-0.08958519744511972,0.0
0.4867263093126796,-0.08987185227955274,-0.12805564125075106,0.22221428673682506,0.24034079496264954,-0.18323900663208453,0.0
0.5151628381486051,-0.08987185227955274,-0.1781733411771729,0.34093343285703126,0.3029843016406191,-0.22233719101084135,0.0
0.2912237113573972,-0.055444248735365416,-0.21826748357252299,0.4243997076855619,-0.6170923698276392,-0.24779649552637922,0.0
0.44407114272901316,-0.024841934473865564,-0.2433262896712647,-0.014705599895066113,-0.47894107417999887,0.06135200808668293,0.0
0.4973898520720797,-0.06309482730074037,-0.25334984720233683,-0.3200574675680415,-0.19480794222206618,0.09317611100601784,0.0
0.4334073510830984,-0.13577532785680987,-0.14810271244842607,-0.3413128562893131,-0.19592657724443857,-0.01684437730588316,0.0
0.44407114272901316,-0.1510764849875598,-0.15812626997949783,-0.1842303167029155,-0.12601193609918812,0.0077056496990473315,0.0
0.4867263093126796,-0.08987185227955274,-0.23330277600466182,0.023139375316405655,0.05856271979876598,0.03225567670397781,0.0
0.4618441288055414,-0.07074540586611533,-0.2383145547701977,-0.006410806649965998,-0.1467066635474958,0.0849927742160585,0.0
0.47961711488206954,-0.04779367016999047,-0.23330277600466182,-0.07276910834907274,0.01269871500623682,0.103177980637122,0.0
0.3978613789300432,-0.07457069514880282,-0.153114491213962,-0.0655111705827093,-0.16572345892782608,0.06498904604388515,0.0
0.4511803371596232,-0.0401430916046155,-0.21325570480698675,-0.015224018149785702,-0.17746910619715486,0.13227430647480962,0.0
0.4334073510830984,-0.04779367016999047,-0.2383145547701977,-0.05877165107106546,-0.18418091633138903,0.13772987172813916,0.0
0.4227435594371797,-0.09752243084492769,-0.23330277600466182,-0.16453019697277588,-0.22053653409290988,0.14045765435480392,0.0
0.44051654551370845,-0.12429945582374005,-0.1881968548437758,-0.23814643485747122,-0.21885857473749093,0.12045392618263061,0.0
0.4689533232361514,-0.08987185227955274,-0.153114491213962,-0.23037007251328903,-0.07735134673529195,0.09408537188157277,0.0
0.4618441288055414,-0.055444248735365416,-0.1881968548437758,-0.23399904455802034,0.06918974568944311,0.14045765435480392,0.0
0.44407114272901316,-0.07457069514880282,-0.2834204539988492,-0.2671781985691233,0.03395276636122481,0.19774104515462426,0.0
0.508053643717995,-0.1166488772583651,-0.3335381319930366,-0.466771515598064,-0.008555337201483713,0.3614078918541609,0.0
0.5009444492873845,-0.13577532785680987,-0.1932086336093121,-0.4543293510228104,0.12679940841045786,0.3304930442653634,0.0
0.4511803371596232,-0.1166488772583651,-0.047867356460051594,-0.2951731004789395,0.28620478994875437,0.1813743604846706,0.0
0.3978613789300432,-0.07074540586611533,-0.05789087012665445,-0.24592280352475263,0.05129159897520595,-0.005023993894631785,0.0
0.3765337956382111,-0.024841934473865564,-0.09297327762093716,-0.28376777241312523,-0.048826167308517306,-0.030483282121680805,0.0
0.4334073510830984,-0.08987185227955274,-0.1180320837196793,-0.2842861906678448,0.16147707363842018,0.05953348633557308,0.0
0.508053643717995,-0.1549017742702473,-0.1330674200162873,0.01484458207130554,0.1888836112209621,-0.03502958372694667,0.0
0.6075821168600298,-0.04396837251728815,-0.203232147275915,-0.2091146837920175,0.03171549802194516,0.16773545844138169,0.0
0.47961711488206954,-0.06309482730074037,-0.017796727731304317,-0.11683516900972084,0.32423835342197344,-0.02320919927600451,0.0
0.41563436500657025,-0.08222127371417776,-0.09798501252200419,-0.20133831512473616,-0.04547026906326057,0.00043156763313913644,0.0
0.4547349343749285,-0.10134772012761518,-0.19822041237484797,-0.24695965268039013,0.028918912171479336,0.04043901903895466,0.0
0.4511803371596232,-0.1166488772583651,-0.1781733411771729,-0.253180741291116,0.08037608909130643,0.04043901903895466,0.0
0.41207976779126493,-0.1166488772583651,-0.1180320837196793,-0.2853230398234823,-0.03316529063902489,0.04680383962282164,0.0
0.4334073510830984,-0.06692011658342784,-0.10299679128754041,-0.2661413494134858,0.04457979225190194,0.06407978516833021,0.0
0.4262981566524878,-0.12047416654105256,-0.153114491213962,-0.30191261366748423,-0.014707826413601549,0.06407978516833021,0.0
0.4689533232361514,-0.12429945582374005,-0.16313800488056485,-0.29932049710148956,-0.011911238857670625,0.07771869275663658,0.0
0.4867263093126796,-0.1166488772583651,-0.153114491213962,-0.24799649551292843,0.01269871500623682,0.07771869275663658,0.0
0.4867263093126796,-0.1166488772583651,-0.153114491213962,-0.19511722651401023,0.023325740470547675,0.1177261435559658,0.0
0.48317171209737486,-0.17785351205887587,-0.17316156241163702,-0.14431165187443007,0.06583384403325619,0.12045392618263061,0.0
0.4476257399443185,-0.1816788023878152,-0.153114491213962,-0.0971350476988064,0.12344351016520114,0.08044646983828387,0.0
0.4227435594371797,-0.1472511957048723,-0.10800857005307635,-0.0821007444267112,0.089325162448425,0.08862981217326071,0.0
0.44407114272901316,-0.1549017742702473,-0.153114491213962,-0.056697959082889604,0.05241023058664814,0.14045765435480392,0.0
0.4653987260208461,-0.14342590642218486,-0.19822041237484797,-0.04270050180488233,0.051850913075461955,0.12409096968485027,0.0
0.476062517666762,-0.1472511957048723,-0.19822041237484797,-0.04840316583778949,0.07590154900181695,0.14409468676698867,0.0
0.476062517666762,-0.1472511957048723,-0.19822041237484797,-0.07225068377125397,0.07422359987918858,0.12227244793374042,0.0
0.5187174353639126,-0.12812474929143491,-0.1781733411771729,-0.12409310677608427,0.0619186214549529,0.10045019801045722,0.0
0.5187174353639126,-0.12812474929143491,-0.1781733411771729,-0.17697237893655207,0.1100198967185931,0.07317238837886197,0.0
0.543599615871048,-0.17020293349350088,-0.22327921847359006,-0.19200668220864728,0.11896897007571165,0.014979732544723609,0.0
0.4938352548567744,-0.21610640907075804,-0.2834204539988492,-0.22052001185783182,0.14917210203604486,-0.028664760370570946,0.0
0.4938352548567744,-0.21610640907075804,-0.2834204539988492,-0.26510450025784826,0.1161723825197807,-0.05230552927245526,0.0
0.3445426695869778,-0.16255235492812592,-0.203232147275915,-0.3210943167236791,-0.02197894723716158,-0.08776668123902734,0.0
0.2592323364196487,-0.17402822277618837,-0.21325570480698675,-0.34857080037877575,-0.06113114573275297,-0.18778529991982418,0.0
0.28411451692678635,-0.16637764421081344,-0.1932086336093121,-0.38486049553369195,-0.08630042009241054,-0.3223558207816733,0.0
0.3409880723716728,-0.22375698763613303,-0.21826748357252299,-0.36671565427933306,-0.024216217281906316,-0.3869132874958978,0.0
0.41918896222187496,-0.265835171838199,-0.22829099723912594,-0.3076152903465897,0.04122388889024992,-0.4541985701068924,0.0
0.47961711488206954,-0.2849616224366438,-0.2433262896712647,-0.23348061998020156,0.03786798552859791,-0.45874486339463205,0.0
0.5222720325792173,-0.24288343614207414,-0.1881968548437758,-0.17178813631991408,0.06415589149969762,-0.4323763090935741,0.0
0.5542634075169661,-0.18932938147631606,-0.1881968548437758,-0.11113250181526409,0.15085004774774308,-0.33144842953722237,0.0
0.5542634075169661,-0.1510764849875598,-0.1781733411771729,-0.08365601816016748,0.1888836112209621,-0.2532520385996388,0.0
0.5116082409333003,-0.13960061713949737,-0.12304386248521512,-0.08158231984889243,0.1642736543724907,-0.18414826750763943,0.0
0.45828953159023605,-0.0936971415622402,-0.11302034881861227,-0.08106389527107369,0.07869813655774788,-0.09322224094733939,0.0
0.41918896222187496,-0.07074540586611533,-0.09798501252200419,-0.09817189369289434,0.00934281207095108,0.041348279914509574,0.0
0.44051654551370845,-0.08604656299686525,-0.1380791549173543,-0.11942728873726503,0.007664860390125074,0.09499463275712769,0.0
0.4547349343749285,-0.10517300941030264,-0.18318507607823992,-0.1235746821982655,0.00542759205084543,0.13954839347924902,0.0
0.44407114272901316,-0.1549017742702473,-0.2383145547701977,-0.09869031827071308,0.03563071718931827,0.11045205655152643,0.0
0.4547349343749285,-0.1549017742702473,-0.1932086336093121,-0.03647940687105724,0.06918974568944311,0.04316680166561942,0.0
0.4689533232361514,-0.23140756620150799,-0.1881968548437758,0.04283949662732014,0.11673170003096692,0.01861677327443456,0.0
0.476062517666762,-0.25435930399013656,-0.17316156241163702,0.14600591805916197,0.17490068026316785,-0.027755499495016024,0.0
0.476062517666762,-0.265835171838199,-0.16313800488056485,0.28494360374500227,0.23139171478367057,-0.09776853978009652,0.0
0.508053643717995,-0.2849616224366438,-0.12304386248521512,0.39796009847849945,0.3052215716853639,-0.15141489816773213,0.0
0.5293812270098279,-0.2849616224366438,-0.09297327762093716,0.5223818959854145,0.3745769157850094,-0.19869643042648322,0.0
0.5471542130863527,-0.23140756620150799,-0.022808506496840648,0.6302141575869227,0.4114918305921353,-0.20142420196311311,0.0
0.5009444492873845,-0.1472511957048723,0.04234448586172043,0.6665038400956407,0.3421365137799314,-0.1541426807943969,0.0
0.476062517666762,-0.0401430916046155,0.017285635898509486,0.6390273437943457,0.2912386407275698,-0.11413522445005023,0.0
0.4547349343749285,0.005760379787634266,0.017285635898509486,0.5000896834009021,0.22523922898248303,-0.04321292606192351,0.0
0.3871975872841273,0.06313972739796128,0.017285635898509486,0.3544124592341205,0.1094605792074069,-0.017753638181438082,0.0
0.32321508629514517,0.13964552979174058,0.03232092833064827,0.20044046711463553,0.09547764824961265,-0.05139626839690032,0.0
0.3445426695869778,0.1434707939643836,0.017285635898509486,0.05942907047132201,0.1760193152855402,-0.04321292606192351,0.0
0.37297919842290556,0.1013926202248361,0.027309193429581245,-0.08572971647144248,0.24090010565197534,-0.01138881621131673,0.0
0.36942485009411546,0.021061536918384163,0.04234448586172043,-0.07950862153761741,0.25152714518637326,-0.01593511781658261,0.0
0.36942485009411546,0.0019350988749615812,0.09747392068920935,0.04802374240550764,0.23810352491790474,-0.13413895262222356,0.0
0.3445426695869778,-0.021016636821163264,0.22777986154186192,0.14600591805916197,0.2297137690719724,-0.17050936546435058,0.0
0.3445426695869778,0.02871211548375915,0.3280152613947056,0.05942907047132201,0.22635786400485539,-0.2105168107186623,0.0
0.35876105844819955,0.04401327261450905,0.30796814633256164,-0.0432189263827011,0.19335815131045153,-0.18960382167093404,0.0
0.4085251705759602,0.04401327261450905,0.2778975614682837,-0.10542983462080735,0.23586625487316015,-0.21142608268425217,0.0
0.4369619482984032,0.017236256005711516,0.2879211189993556,-0.12150098546776528,0.2694252782568896,-0.18414826750763943,0.0
0.41918896222187496,0.009585677440336607,0.2929328977648918,-0.11165092639308286,0.2560016579884211,-0.18051122400541975,0.0
0.3836429900688217,0.009585677440336607,0.3230034826291698,-0.15468013631731864,0.1961547320445221,-0.14959637641662232,0.0
0.33387887794106164,-0.017191355908490618,0.3280152613947056,-0.22103843643565058,0.11057921422977926,-0.1941501371387436,0.0
0.308996697433924,-0.06309482730074037,0.2979446765304276,-0.2889520181913128,-0.010792603835298268,-0.28416688618843633,0.0
0.2698961280655649,-0.10899829869299012,0.2879211189993556,-0.29569153137985743,-0.16013028381596423,-0.29871506019731503,0.0
0.24856879366024748,-0.12047416654105256,0.25283875536954165,-0.27339928085675,-0.3396710752913823,-0.2041519956798128,0.0
0.32321508629514517,-0.17402822277618837,0.19770927667758384,-0.12668522808440327,-0.5561268225050886,-0.014116596065472761,0.0
0.4262981566524878,-0.25818459327282406,0.1225327706524203,0.007068219727123327,-0.6025501281805192,0.10863353480041661,0.0
0.4689533232361514,-0.31556393669814364,0.0724150707259984,0.1257873784935279,-0.6691088915460942,0.21137994719791317,0.0
0.611136714075338,-0.3385156723942685,0.09747392068920935,0.2574671327361039,-0.4621615352006926,0.20774290369569354,0.0
0.6964470472426674,-0.31556393669814364,0.05236799952832339,0.26679876249064316,0.12735872592164404,0.15773358881027758,0.0
0.6253551029365574,-0.25818459327282406,0.027309193429581245,0.26472506417936814,0.25712030665451424,0.1486409911447633,0.0
0.5293812270098279,-0.1549017742702473,-0.05789087012665445,0.26679876249064316,0.09268106751554213,0.06135200808668293,0.0
0.4867263093126796,-0.08222127371417776,-0.1180320837196793,0.15481912955898167,-0.059453193199194426,-0.013207336576172204,0.0
0.4618441288055414,-0.07074540586611533,-0.14810271244842607,0.023139375316405655,-0.010792603835298268,0.06589830691944007,0.0
0.41918896222187496,-0.04779367016999047,-0.09297327762093716,-0.06447432142707178,0.013817349175876641,0.17046324106804647,0.0
0.4227435594371797,-0.032492513039240535,-0.11302034881861227,-0.1666038937032761,-0.0253348488933485,0.2941226314232364,0.0
0.4689533232361514,0.005760379787634266,-0.153114491213962,-0.2842861906678448,-0.0946901759383429,0.4459690978305939,0.0
0.5542634075169661,0.02871211548375915,-0.27339691840001173,-0.4035237803351672,-0.17690979550782907,0.5041617495059694,0.0
0.5791455880241043,0.021061536918384163,-0.3185028395608976,-0.5129112714084375,-0.19536726655511277,0.4687006086294322,0.0
0.575590990808799,0.0401879917018364,-0.35358520319071146,-0.6762149185748584,-0.18418091633138903,0.27775595784331775,0.0
0.4725079204514561,0.05931444648528856,-0.34356166759187406,-0.9079505341361652,-0.3318406437784965,0.15227803464698297,0.0
0.3800883928535167,0.09756732257213388,-0.26838513963447574,-1.0121537920774464,-0.29604435035002225,0.1913762301157748,0.0
0.35165186401758897,0.07461560361603853,-0.39869112435159737,-1.3273557330520773,-0.2736716499025749,0.28048372937994753,0.0
0.3054421002186184,0.009585677440336607,-0.43878526674694723,-1.3693480922399008,-0.19536726655511277,0.3132170987198548,0.0
0.33032428072575637,-0.051618951082663116,-0.39869112435159737,-1.4678487240868698,-0.26248532696629273,0.25593369682999956,0.0
0.308996697433924,-0.07457069514880282,-0.4037028811848989,-1.3817903326923444,-0.24234989656359004,0.17773731698245093,0.0
0.35876105844819955,-0.07457069514880282,-0.45883233794462225,-1.4258563648990463,-0.12992715185563103,-0.01138881621131673,0.0
0.40141597614534874,-0.055444248735365416,-0.5089500159388096,-1.4585170437475372,-0.13831690770156344,-0.10595188766009085,0.0
0.41207976779126493,-0.0401430916046155,-0.5139617837382283,-1.5113963633312486,-0.18641818637613383,-0.13777599612444325,0.0
0.41918896222187496,0.0019350988749615812,-0.48389117694171596,-1.5559807885002734,-0.17411321477375846,-0.15777972429661657,0.0
0.4369619482984032,0.017236256005711516,-0.5490441638172181,-1.6135259482536513,-0.20543496811274334,-0.09958706153120638,0.0
0.4867263093126796,-0.009540777343115668,-0.49391471254055336,-1.63218920776273,-0.1539777980147766,-0.025936980516414916,0.0
0.47961711488206954,-0.09752243084492769,-0.45883233794462225,-1.6233760215553068,-0.19816384728918338,0.013161210793613761,0.0
0.4653987260208461,-0.1549017742702473,-0.4087146599504348,-1.490140936671382,-0.303874781862908,-0.006842514606050852,0.0
0.44407114272901316,-0.21993169835344553,-0.41372641678373634,-1.3491295526742668,-0.41685685090391356,-0.07049073569351876,0.0
0.47961711488206954,-0.25053401470744907,-0.44880880234578474,-1.116875544150637,-0.47670377684781273,-0.14686859378995754,0.0
0.5542634075169661,-0.29643749028470623,-0.47386764134287845,-0.861292385363469,-0.40063664990137465,-0.18596678925874932,0.0
0.5649271991628815,-0.26200988255551155,-0.5239853193370658,-0.5943038732180899,-0.2725530285239233,-0.2341575713030204,0.0
0.5400450186557433,-0.18932938147631606,-0.5340088604189619,-0.40248691853333135,-0.2138247239586757,-0.2814391146518065,0.0
0.5293812270098279,-0.12047416654105256,-0.44880880234578474,-0.30346789372403965,-0.12097808532037285,-0.33417620107385226,0.0
0.4867263093126796,-0.06309482730074037,-0.4889029447411346,-0.2500701938242035,-0.036521192295211814,-0.3278113860350026,0.0
0.476062517666762,-0.0401430916046155,-0.48389117694171596,-0.23659116744711411,-0.023656899770720136,-0.30689839698727456,0.0
0.4689533232361514,-0.0018901987777406816,-0.4688558735434597,-0.24540437894693382,-0.027572118938093224,-0.26870946239403753,0.0
0.4618441288055414,0.0019350988749615812,-0.44880880234578474,-0.2542175904467535,-0.0051994338398317,-0.2332483215175004,0.0
0.45828953159023605,0.03253741313646141,-0.41873819554927233,-0.2500701938242035,0.014935983345516464,-0.10140558328231623,0.0
0.45828953159023605,0.08609146309408613,-0.38365580998722393,-0.251107042979841,0.02947822882993297,-0.004114733712204047,0.0
0.4511803371596232,0.10521791787753833,-0.363608738789549,-0.29620994963457703,0.062477938966139075,0.08226499158939372,0.0
0.41918896222187496,0.13582023213903835,-0.30346752519652415,-0.36412353771333844,0.014376666260696553,0.19592252340351443,0.0
0.41563436500657025,0.14729609161708582,-0.35358520319071146,-0.3916000087222367,-0.014707826413601549,0.2641170558000288,0.0
0.4227435594371797,0.12816963683363358,-0.363608738789549,-0.41752122496697625,-0.08070724498054868,0.3323115660164733,0.0
0.44407114272901316,0.07461560361603853,-0.363608738789549,-0.40611589690116195,-0.10587651934020624,0.38686719636969863,0.0
0.4689533232361514,0.03253741313646141,-0.45883233794462225,-0.35116291694477025,-0.054978659931565345,0.41596350002731636,0.0
0.4938352548567744,-0.04396837251728815,-0.49391471254055336,-0.26406765110221075,-0.0024028479893658775,0.4296024242506752,0.0
0.508053643717995,-0.08604656299686525,-0.5239853193370658,-0.15830910599088777,0.04905432893046122,0.40868941302287715,0.0
0.5222720325792173,-0.10517300941030264,-0.5390206282183806,-0.022481962239248303,0.13183326601113352,0.43414871753841494,0.0
0.5151628381486051,-0.1166488772583651,-0.5791147733552598,0.13045319337079764,0.2045444878904545,0.4514246409038536,0.0
0.5116082409333003,-0.1319500385741224,-0.5741030028143118,0.24969075774572336,0.22635786400485539,0.4241468368172759,0.0
0.49028065764146966,-0.08987185227955274,-0.5540559316166368,0.33523075617792586,0.22412059396011064,0.4068709134518371,0.0
0.4476257399443185,-0.024841934473865564,-0.48389117694171596,0.41506807793102257,0.19391746199977736,0.4186912937440162,0.0
0.4262981566524878,0.07461560361603853,-0.5089500159388096,0.42854710430811205,0.1419009675687641,0.5514432706746853,0.0
0.41207976779126493,0.19702486066203778,-0.5841265411546785,0.36789148561121,0.10722330916266215,0.7041990090476328,0.0
0.4227435594371797,0.22762717492353782,-0.5991618445529348,0.15067173293643152,0.1681888837726544,0.8369509859783019,0.0
0.4262981566524878,0.15494668692249058,-0.614197150007338,-0.06654801973834681,0.17881590966333152,0.7987620513850652,0.0
0.4227435594371797,0.0019350988749615812,-0.5891383089540974,-0.22725953136947571,0.08429131166960972,0.6287304340068188,0.0
0.4547349343749285,-0.16637764421081344,-0.5590676994160555,-0.3464971020675007,-0.08518178507003815,0.3877764461552186,0.0
0.4547349343749285,-0.2275822769188205,-0.5640794672154743,-0.43514764796661565,-0.3989586905459556,0.10408724151267694,0.0
0.4618441288055414,-0.23140756620150799,-0.6091853815225369,-0.4491450925984245,-0.5410252428812012,-0.05139626839690032,0.0
0.4867263093126796,-0.265835171838199,-0.6542912958295996,-0.3636050941662221,-0.5231270825232434,-0.12413709408115438,0.0
0.44051654551370845,-0.3232145152635186,-0.6342442225757775,-0.2018567397025549,-0.311145902686468,-0.250524267063009,0.0
0.4262981566524878,-0.33086509382889356,-0.569091235014893,0.028323621094593156,-0.1539777980147766,-0.4105540924403959,0.0
0.3765337956382111,-0.37676856522114327,-0.45382057014520344,0.21443791174644453,-0.09972403353901858,-0.5187560590011872,0.0
0.37297919842290556,-0.38441914378651826,-0.43878526674694723,0.39122058528995485,-0.13719827267919105,-0.6151376452697991,0.0
0.39430678171473815,-0.4111961771353454,-0.3886675887527599,0.5534873453621433,-0.2641632590342702,-0.7233396118305903,0.0
0.39430678171473815,-0.4111961771353454,-0.3886675887527599,0.6457668569828905,-0.3200949828654469,-0.8169934043825027,0.0
0.4973898520720797,-0.45709964852759516,-0.48389117694171596,0.7535990679996052,-0.2977223097054412,-0.8788230995600977,0.0
0.508053643717995,-0.47240080565834497,-0.5941500767535159,0.9443792114673211,-0.05553797744275152,-0.9197398278700342,0.0
0.4547349343749285,-0.4838766818764223,-0.6392559910605786,1.0885011555775472,0.2319510391167172,-0.9697491427554502,0.0
0.2912237113573972,-0.5030031366598745,-0.6392559910605786,1.2461021260648626,0.42323749150518464,-1.0643121850928823,0.0
0.113494348365158,-0.5833342199663264,-0.48389117694171596,1.3928162373258768,0.38072938794247624,-1.2798069127890845,0.0
0.056620792920271536,-0.6674905674454213,-0.2583616040356381,1.599667473151883,0.25488303660976946,-1.5998665635438585,0.0
0.056620792920271536,-0.6674905674454213,-0.2583616040356381,1.7888922353934569,0.32088246199857706,-1.7317091576085883,0.0
0.5507088103016609,-0.4035455985699706,0.22777986154186192,1.999890918426807,0.4959487270282264,-1.6480572901379549,0.0
0.9665956889463287,0.0401879917018364,0.13756810694902788,1.990559238087475,0.7912681546349999,-1.4671144978929096,0.0
0.9665956889463287,0.0401879917018364,0.13756810694902788,1.5530092737943944,1.0121984146507539,-1.2079753368903505,0.0
0.9665956889463287,0.6445837151064877,0.1576151342822341,1.0371772172199778,0.8427253383766873,-0.9433805884543921,0.0
0.7710933398775639,0.5719032605854997,0.3480623764568495,0.6156982947003942,0.47022013515738265,-0.5260301460056264,0.0
0.7710933398775639,0.5719032605854997,0.3480623764568495,0.3284912429893812,0.21629014880350406,-0.025936980516414916,0.0
0.6715648667355297,0.37298818440569176,0.37312118255559124,0.20873526035973564,0.15868049290434963,0.20956142544680334,0.0
0.33387887794106164,0.1434707939643836,0.3430505976913137,0.08586871761697948,-0.020300994703603012,0.37050050060971,0.0
0.33387887794106164,0.1434707939643836,0.3430505976913137,0.020547258750411038,-0.20040111733392796,0.5059802934371489,0.0
0.2770053224961752,0.10904321553024054,0.23780341907293395,-0.1790460740862775,-0.30779001126307176,0.8533176595582206,0.0
0.29477830857270254,-0.005715479690413367,-0.022808506496840648,-0.29672838053549494,-0.17579116048545668,1.0088011916478679,0.0
0.17747684935413954,-0.0363177939519132,-0.19822041237484797,-0.07225068377125397,-0.39448415045646607,0.9033269744436367,0.0
0.09927595950393653,-0.10517300941030264,-0.05789087012665445,0.01951040959477355,-0.5544488631496696,0.6050896290623211,0.0
0.6786740611661392,-0.10517300941030264,0.057379778293859214,0.26628034423592356,0.7509973484044776,0.5187099235148481,0.0
0.9417137573257081,-0.19315467102056652,-0.22327921847359006,0.31708588963117007,1.478668932461896,0.4877950759260507,0.0
0.6822286583814444,-0.1510764849875598,-0.664314831428437,0.35130189912100973,0.3986275483004341,0.29594115317434627,0.0
0.14193087720108571,0.12434437266099056,-0.6041736137231181,-0.009002923215960615,-0.43139909255103354,-0.12413709408115438,0.0
0.11704894558046329,0.3309100106661442,-0.48389117694171596,-0.343904985501506,-0.32960337373375176,-0.27507429961295693,0.0
0.3196604890798399,0.25440419153233523,-0.1380791549173543,-0.5331298362664681,0.09044379747079738,-0.10231484415787113,0.0
0.4049705733606549,0.07461560361603853,-0.0328320640279124,-0.5580141907093719,0.34772967524807236,0.22774664295790178,0.0
0.4547349343749285,0.009585677440336607,0.11250921312134814,-0.48284268383354456,0.08876584493723881,0.3941412833741382,0.0
0.4689533232361514,0.02871211548375915,0.1576151342822341,-0.4133738283444261,-0.3631623971174814,0.4650635651272124,0.0
0.6218005057212527,-0.08222127371417776,0.18768571914651178,-0.30191261366748423,-0.24906170669782424,0.5159821297981484,0.0
0.717774630534498,-0.2696604653058939,0.09747392068920935,-0.0784717723819799,0.08205404162486499,0.5323488033780671,0.0
0.6146913112906427,-0.4073708794826431,-0.042855577694515264,0.06409488534859156,0.23306967413908955,0.4968876625015298,0.0
0.508053643717995,-0.3805938628738456,-0.1180320837196793,0.13874798661589774,0.3589160254717961,0.3614078918541609,0.0
0.4262981566524878,-0.26200988255551155,-0.15812626997949783,0.15533754781370127,0.27278119696772757,0.21228921916350305,0.0
0.37297919842290556,-0.12429945582374005,-0.10299679128754041,0.14237693969133144,0.08261335913605118,0.11136131742708137,0.0
0.35165186401758897,-0.0401430916046155,-0.12805564125075106,0.08431343756042399,-0.009114653007204805,0.10590576326378674,0.0
0.4049705733606549,-0.024841934473865564,-0.1180320837196793,0.023657793571125244,0.12008760509808403,0.13954839347924902,0.0
0.4262981566524878,-0.051618951082663116,-0.05789087012665445,-0.032850441149425105,0.32311973204332184,0.08408351334050357,0.0
0.3978613789300432,-0.08987185227955274,0.027309193429581245,-0.07432438208252902,0.31137407113027227,-0.05957961073187717,0.0
0.3623156556635049,-0.13577532785680987,0.012273857132973557,-0.1551985608951374,0.1089012616962207,-0.08503889861236258,0.0
0.3445426695869778,-0.14342590642218486,-0.24833806843680095,-0.17489868062527705,0.03395276636122481,-0.17414640896657027,0.0
0.35165186401758897,-0.12047416654105256,-0.16313800488056485,-0.19770934940310403,-0.01638577553622993,-0.14414081116329278,0.0
0.4049705733606549,-0.06692011658342784,-0.1881968548437758,-0.3433865546005881,-0.0024028479893658775,-0.10049632240676132,0.0
0.4973898520720797,0.009585677440336607,-0.27339691840001173,-0.4698820757111749,0.22579853967180882,-0.17232788721546044,0.0
0.5187174353639126,0.02871211548375915,-0.2383145547701977,-0.4149291084009816,0.3852039280319656,-0.42601151623479466,0.0
0.5044990465026903,0.02871211548375915,-0.1881968548437758,-0.42063175978769035,0.4472881240206095,-0.6033172649776201,0.0
0.476062517666762,0.0363626940491341,-0.042855577694515264,-0.3076152903465897,0.5093723472966949,-0.6887877207395731,0.0
0.4547349343749285,0.055489148832586294,0.142579797985626,-0.2848046215687627,0.5479651941717983,-0.6933340140273128,0.0
0.44407114272901316,0.06313972739796128,0.13255632818349206,-0.3231680150349541,0.5328636691227938,-0.6196839385575389,0.0
0.44407114272901316,0.08226618218141363,0.08745040702260609,-0.4045606168446064,0.45344062346551794,-0.5287578953621863,0.0
0.4511803371596232,0.06696502505066354,0.06239155705939515,-0.44136874290044076,0.38128869863180204,-0.3850947879248578,0.0
0.4227435594371797,0.04401327261450905,0.13255632818349206,-0.42322387635368497,0.27501843972503065,-0.22142794122532136,0.0
0.41207976779126493,0.017236256005711516,0.21775639173972774,-0.43307394965534063,0.20790039295757168,-0.1350482134977785,0.0
0.36942485009411546,-0.009540777343115668,0.18768571914651178,-0.4906190335315284,0.13407053605587826,-0.10958892007227561,0.0
0.32321508629514517,-0.04396837251728815,0.18267402810991396,-0.47662158889971956,0.016054617728339424,-0.11686300707671499,0.0
0.2698961280655649,-0.10899829869299012,0.16262691304777002,-0.4107817117784315,-0.16348618888308136,-0.06958147481796384,0.0
0.24856879366024748,-0.1816788023878152,0.20272105544311975,-0.3449418346571435,-0.39392483976714043,0.05771496458446322,0.0
0.29477830857270254,-0.25435930399013656,0.20272105544311975,-0.27547297916802505,-0.48733081638221043,0.26684482733665865,0.0
0.36942485009411546,-0.2811363331539563,0.142579797985626,-0.15416171252988728,-0.5035510173847496,0.5196191733003678,0.0
0.48317171209737486,-0.2811363331539563,0.08243862825707016,-0.06447432142707178,-0.40119596059070045,0.5996340859890614,0.0
0.4725079204514561,-0.2467087254247616,0.09747392068920935,0.033507854226582486,-0.4336363625957783,0.676921204961055,0.0
0.4938352548567744,-0.2467087254247616,0.22777986154186192,0.10297669706950262,-0.40399254132477086,0.7633009105085281,0.0
0.7000016444579721,-0.23140756620150799,0.14759157675116194,0.10608725718261341,0.006546226220485252,0.8505899545618005,0.0
0.7710933398775639,-0.13960061713949737,-0.09297327762093716,0.08742397238113829,0.1911208812657068,0.8387695742696216,0.0
0.6893378528120551,0.0019350988749615812,-0.24833806843680095,0.018991978693855573,0.014376666260696553,0.7905787589552455,0.0
0.5649271991628815,0.06313972739796128,-0.20824392604145087,-0.1728249854755516,-0.015267140513857554,0.7769398790920267,0.0
0.45828953159023605,0.02871211548375915,-0.05789087012665445,-0.3433865546005881,0.06527452652207001,0.9005992694472166,0.0
0.41207976779126493,-0.04396837251728815,0.012273857132973557,-0.45640304933408543,0.16651092441723545,0.9978901055013488,0.0
0.4369619482984032,-0.04396837251728815,-0.03784379892897943,-0.6114119032554063,0.232510349806043,1.076995768404522,0.0
0.4618441288055414,-0.024841934473865564,-0.153114491213962,-0.7239099544417874,0.136307806100623,1.0460809208157245,0.0
0.4547349343749285,-0.024841934473865564,-0.19822041237484797,-0.8047841127043236,-0.08909700764834146,1.0215308660857068,0.0
0.41563436500657025,-0.05926953801805289,-0.1932086336093121,-0.8675134550048974,-0.2988409310840928,1.0442623325244051,0.0
0.308996697433924,-0.1319500385741224,-0.21826748357252299,-0.897582067872187,-0.4364329433298489,0.9997086050723888,0.0
0.252123390875553,-0.18932938147631606,-0.24833806843680095,-0.9416481000788888,-0.26640052907901474,0.958791876762452,0.0
0.234350404799026,-0.29261220100201873,-0.21325570480698675,-0.9737904365498501,-0.060571828221566794,0.925149235456955,0.0
0.20946822429188836,-0.39206972235189325,-0.29845574643098816,-0.970161432889623,-0.15285916299240426,0.8742307151461588,0.0
0.22724121036841569,-0.45709964852759516,-0.2834204539988492,-0.8866951580610922,-0.42189070168272874,0.7469342369286092,0.0
0.3196604890798399,-0.42267203661339303,-0.3185028395608976,-0.814634186005979,-0.5488557016815286,0.5396228903825063,0.0
0.3658702528788105,-0.39206972235189325,-0.48389117694171596,-0.7627917535165,-0.5868892651547477,0.41960054352953613,0.0
0.42985275386779315,-0.39972030091726823,-0.5189735515376471,-0.6995440182536035,-0.5074662194974716,0.3077615334665254,0.0
0.44407114272901316,-0.437973193744143,-0.6091853815225369,-0.6663648452732029,-0.3838571382095099,0.25593369682999956,0.0
0.49028065764146966,-0.4685755247456725,-0.6192089181494478,-0.6145224127837239,-0.2775868793027385,0.21047069741239322,0.0
0.5791455880241043,-0.430322615178768,-0.6041736137231181,-0.48076898552226954,-0.17635047117478247,0.11863540443152075,0.0
0.6751194639508344,-0.3576421271777207,-0.5891383089540974,-0.4252975746649601,-0.060571828221566794,-0.04503144504052461,0.0
0.6431280890130856,-0.23905814685938662,-0.6843619053676412,-0.4543293510228104,0.005986909562031615,-0.1850575283831944,0.0
0.5400450186557433,-0.09752243084492769,-0.614197150007338,-0.5393509059078966,0.008224177901311261,-0.3187187772794535,0.0
0.4973898520720797,-0.024841934473865564,-0.569091235014893,-0.6300751627644849,0.028359594660293145,-0.33417620107385226,0.0
0.4867263093126796,-0.08222127371417776,-0.5139617837382283,-0.6357778394435905,0.036749352211690636,-0.3396317663271819,0.0
0.4867263093126796,-0.1510764849875598,-0.48389117694171596,-0.5253534612760876,-0.040436411462584906,-0.35963550558939,0.0
0.4618441288055414,-0.17020293349350088,-0.4788794091422972,-0.3418312871902309,-0.23955331582951947,-0.36781884237934953,0.0
0.4689533232361514,-0.16255235492812592,-0.4889029447411346,-0.22155686101346933,-0.3312813330891707,-0.28962245144176585,0.0
0.5009444492873845,-0.15872706355293476,-0.5039382481393908,-0.1235746821982655,-0.30834932195239756,-0.19687790867537341,0.0
0.5507088103016609,-0.1549017742702473,-0.5741030028143118,-0.013150319838510673,-0.2283669656057957,-0.10958892007227561,0.0
0.5542634075169661,-0.14342590642218486,-0.5841265411546785,0.06668701456078459,-0.10531719500715969,-0.0323018011002819,0.0
0.5329358242251332,-0.16637764421081344,-0.5139617837382283,0.03143416856150575,-0.01862304558097466,0.009524170063902807,0.0
0.49028065764146966,-0.2122811187418187,-0.43878526674694723,-0.04373735096051984,0.05073228146401978,-0.02320919927600451,0.0
0.4618441288055414,-0.2849616224366438,-0.363608738789549,-0.03025832458343049,-0.009114653007204805,-0.08776668123902734,0.0
0.4689533232361514,-0.3117386474154562,-0.35358520319071146,-0.021445113083610787,-0.029250071471651796,-0.12050005057893466,0.0
0.4618441288055414,-0.29261220100201873,-0.4037028811848989,-0.035960988616337654,-0.0051994338398317,-0.13686673524888832,0.0
0.4476257399443185,-0.2849616224366438,-0.42876173114810984,-0.08106389527107369,0.013817349175876641,-0.07321851277516606,5.0
0.44051654551370845,-0.2773110438712688,-0.5139617837382283,-0.10905880350398907,0.11840965256452547,0.024072334369000987,5.0
0.476062517666762,-0.2734857545885814,-0.5841265411546785,-0.09920874284853184,0.17322273455146966,0.10226871976156708,5.0
0.5044990465026903,-0.2773110438712688,-0.5640794672154743,-0.07121383461561645,0.16203638432774597,0.12500021947037024,5.0
0.5187174353639126,-0.3040880688500812,-0.49391471254055336,-0.06447432142707178,0.13574848176757642,0.14591320851809855,5.0
0.47961711488206954,-0.3385156723942685,-0.42374995238257385,-0.04840316583778949,0.0859692573813079,0.12954652384814486,5.0
0.4689533232361514,-0.4035455985699706,-0.3285263751597351,-0.00952135411687854,0.06974906320062929,0.09044833392437056,5.0
0.4653987260208461,-0.4685755247456725,-0.2834204539988492,0.07705550611715978,0.1094605792074069,0.08135573071383881,5.0
0.4369619482984032,-0.45709964852759516,-0.2583616040356381,0.197848350548641,0.11169784925215163,0.10135945888601214,5.0
0.45828953159023605,-0.41502145804801804,-0.2934439895976867,0.2688724608019181,0.08540993987012171,0.058624225460018164,5.0
0.4653987260208461,-0.3117386474154562,-0.3285263751597351,0.3077542598766308,0.06359657398851146,0.09681315450823752,5.0
0.44407114272901316,-0.21993169835344553,-0.34857344635741006,0.27146457736791274,0.03395276636122481,0.10226871976156708,5.0
0.42985275386779315,-0.18932938147631606,-0.3385499107585726,0.14807961637043704,-0.036521192295211814,0.10226871976156708,5.0
0.4227435594371797,-0.18932938147631606,-0.32351459639419916,0.04750531150458969,-0.08350383253647961,0.1613706323124973,5.0
0.4476257399443185,-0.24288343614207414,-0.3185028395608976,0.001365555694216191,-0.1355203269674929,0.23229293624564146,5.0
0.4867263093126796,-0.29643749028470623,-0.3285263751597351,-0.044774200116157355,-0.12097808532037285,0.23683922953338113,5.0
0.4867263093126796,-0.3040880688500812,-0.3886675887527599,-0.04373735096051984,-0.08182588000292106,0.20137808865684398,5.0
0.5862547824547144,-0.3232145152635186,-0.42876173114810984,-0.031813591993787596,-0.049944802330889666,0.19774104515462426,5.0
0.4973898520720797,-0.32703980454620607,-0.3385499107585726,-0.03336887205034301,0.03619003470050445,0.004977869151764115,5.0
0.48317171209737486,-0.3576421271777207,-0.41372641678373634,-0.04632947384961361,0.03507139967813208,-0.05594256722965747,5.0
0.4973898520720797,-0.34234097004697084,-0.45883233794462225,-0.10750353293208238,0.05352886560902051,-0.06867221394240892,5.0
0.5044990465026903,-0.437973193744143,-0.5089500159388096,-0.0945429279712622,0.2364255655624858,-0.015025856941027683,5.0
0.4725079204514561,-0.5068284008325176,-0.48389117694171596,0.10608725718261341,0.14469756194655536,-0.05503330635410256,5.0
0.4476257399443185,-0.437973193744143,-0.37864405315392247,0.009660348939316306,0.15085004774774308,-0.056851828105212415,5.0
0.4334073510830984,-0.4685755247456725,-0.3335381319930366,0.008105068882760866,0.016054617728339424,-0.10595188766009085,5.0
0.4689533232361514,-0.4456237890495476,-0.44880880234578474,-0.00018971171614091123,0.17378204524079546,-0.18051122400541975,5.0
0.44407114272901316,-0.3385156723942685,-0.36862051755508496,0.00862349978367877,0.31361134117501704,-0.18778529991982418,5.0
0.4476257399443185,-0.265835171838199,-0.36862051755508496,-0.1199457133150838,0.12344351016520114,-0.11595374620116004,5.0
0.4689533232361514,-0.34234097004697084,-0.3886675887527599,-0.04270050180488233,0.08429131166960972,-0.025936980516414916,5.0
0.5151628381486051,-0.4264973342660954,-0.32351459639419916,0.03972894916040753,-0.19928248231155576,0.18319288223578042,5.0
0.5720363935934915,-0.49152724370176776,-0.3285263751597351,0.11438205042771353,0.1094605792074069,0.09590389363268262,5.0
0.4618441288055414,-0.430322615178768,-0.23330277600466182,0.14289538323844772,0.09044379747079738,-0.03593884182999285,5.0
0.4689533232361514,-0.3805938628738456,-0.3185028395608976,0.23361961480263949,-0.004080798817459323,0.03225567670397781,5.0
0.5116082409333003,-0.3499915486123458,-0.3335381319930366,0.23828542967990904,0.09827423580554358,0.03498345655813386,5.0
0.4973898520720797,-0.3499915486123458,-0.3335381319930366,0.2066615620484607,0.14078234619011248,-0.03502958372694667,5.0
0.4618441288055414,-0.3385156723942685,-0.28843221083215076,0.18592457893571038,0.12624009089927166,-0.10322410503342608,5.0
0.4547349343749285,-0.3079133581327687,-0.2383145547701977,0.17607453092645145,0.1642736543724907,-0.16141675670880135,5.0
0.4547349343749285,-0.3079133581327687,-0.2383145547701977,0.1662244576247959,0.11673170003096692,-0.2105168107186623,5.0
0.4049705733606549,-0.23523285757669915,-0.2633733828011744,0.10038458050350796,0.12624009089927166,-0.21506312618647186,5.0
0.41207976779126493,-0.18550409167050266,-0.27840867523331325,0.037655250849132446,0.04849501141927503,-0.19596865888985343,5.0
0.41207976779126493,-0.18550409167050266,-0.27840867523331325,-0.04373735096051984,0.08652857489249408,-0.2086982889675525,5.0
0.4476257399443185,-0.1816788023878152,-0.2834204539988492,-0.10439298546516984,0.11225716676333782,-0.18869457188541405,5.0
0.44407114272901316,-0.21993169835344553,-0.25334984720233683,-0.1640117723949571,0.07813881904656167,-0.14141303962666293,5.0
0.44407114272901316,-0.21993169835344553,-0.25334984720233683,-0.15882753056870652,-0.010792603835298268,-0.09322224094733939,5.0
0.4618441288055414,-0.265835171838199,-0.27339691840001173,-0.20133831512473616,0.03507139967813208,-0.06503517044018921,5.0
0.45828953159023605,-0.3117386474154562,-0.28843221083215076,-0.19096983305300977,-0.06336841577749772,-0.03412032285139176,5.0
0.45828953159023605,-0.3117386474154562,-0.28843221083215076,-0.1806013478197338,-0.05386002490919296,-0.013207336576172204,5.0
0.44407114272901316,-0.3079133581327687,-0.2934439895976867,-0.20704098548074248,-0.05330070739800679,-0.01593511781658261,5.0
0.4618441288055414,-0.3461662509596435,-0.2934439895976867,-0.21118837578019337,-0.06280909826631152,0.033164937579532754,5.0
0.4618441288055414,-0.3461662509596435,-0.2934439895976867,-0.19459880193619147,-0.07119885411224393,0.0849927742160585,5.0
0.4369619482984032,-0.36911798665576834,-0.26838513963447574,-0.17956449866409627,-0.02980938898283797,0.08681129596716834,5.0
0.41207976779126493,-0.36911798665576834,-0.2934439895976867,-0.21222522493583088,-0.20711291382444152,0.03407419845508766,5.0
0.476062517666762,-0.3385156723942685,-0.34356166759187406,-0.24125698232438375,0.0423425239126223,0.04680383962282164,5.0
0.5116082409333003,-0.36911798665576834,-0.3886675887527599,-0.18578559043637177,-0.17299457975138607,0.10135945888601214,5.0
0.39430678171473815,-0.36911798665576834,-0.27840867523331325,-0.27910195753585554,-0.02980938898283797,0.03043715772537672,5.0
0.4262981566524878,-0.3117386474154562,-0.28843221083215076,-0.26147553453621614,-0.18194364628664425,0.12863726297258993,5.0
0.4689533232361514,-0.3002627795673937,-0.35358520319071146,-0.27443613001238754,-0.09301222340478436,0.20319661040795384,5.0
0.5151628381486051,-0.29643749028470623,-0.3936793455860614,-0.2702887460360358,-0.08518178507003815,0.26229853404891895,5.0
0.45828953159023605,-0.3193892259808311,-0.3385499107585726,-0.2666597676682054,-0.0879783726259691,0.29685042513993615,5.0
0.4653987260208461,-0.33086509382889356,-0.3585969819562475,-0.27754667747930006,-0.07343612415698868,0.32867452251425355,5.0
0.4725079204514561,-0.3385156723942685,-0.38365580998722393,-0.3039863119787592,-0.04155504648495726,0.25229665332777984,5.0
0.4689533232361514,-0.3576421271777207,-0.36862051755508496,-0.29620994963457703,-0.015267140513857554,0.2513874035422599,5.0
0.47961711488206954,-0.36911798665576834,-0.363608738789549,-0.29932049710148956,0.016613934813159332,0.21865403420235258,5.0
0.4867263093126796,-0.38441914378651826,-0.4037028811848989,-0.2858414707244002,0.05352886560902051,0.1813743604846706,5.0
0.4867263093126796,-0.37676856522114327,-0.363608738789549,-0.28273092325748767,0.06471520901088383,0.1622798931880522,5.0
0.476062517666762,-0.3882444414392206,-0.34356166759187406,-0.3029494628231217,0.05632545316495144,0.07953720896272895,5.0
0.4725079204514561,-0.39206972235189325,-0.29845574643098816,-0.2951731004789395,0.06024067233232454,0.036801978309243706,5.0
0.4689533232361514,-0.37676856522114327,-0.34356166759187406,-0.3065784411909522,0.04290183971834337,0.0077056496990473315,5.0
0.4653987260208461,-0.36146740809039335,-0.3385499107585726,-0.29880207884676996,0.013817349175876641,-0.02684624139196984,5.0
0.47961711488206954,-0.3652927057430957,-0.37864405315392247,-0.2796203757905752,0.007664860390125074,-0.05776108898076732,5.0
0.4689533232361514,-0.3958950200045955,-0.36862051755508496,-0.22985164793547033,-0.030368703083093973,-0.05321479014801018,5.0
0.4725079204514561,-0.3729432843084706,-0.35358520319071146,-0.20444886259164868,0.01773256914268651,-0.04594070591607952,5.0
0.4618441288055414,-0.37676856522114327,-0.32351459639419916,-0.17075128716427657,0.014376666260696553,-0.07321851277516606,5.0
0.47961711488206954,-0.37676856522114327,-0.3385499107585726,-0.14016425841342958,0.05073228146401978,-0.039575885332212554,5.0
0.4618441288055414,-0.36911798665576834,-0.3285263751597351,-0.12046413789290256,0.01773256914268651,-0.06958147481796384,5.0
0.4725079204514561,-0.3499915486123458,-0.3335381319930366,-0.10905880350398907,0.03619003470050445,-0.049577746645790476,5.0
0.4689533232361514,-0.3499915486123458,-0.2633733828011744,-0.09869031827071308,-0.03596187478402562,-0.00957029515333407,5.0
0.4618441288055414,-0.33086509382889356,-0.2934439895976867,-0.08521129189362374,-0.027012801426907047,0.005887129334191852,5.0
0.4547349343749285,-0.33086509382889356,-0.363608738789549,-0.10283771489326314,-0.02589416640453467,0.00861490988147507,5.0
0.4618441288055414,-0.33086509382889356,-0.38365580998722393,-0.08624814104926126,-0.08462246755885199,0.009524170063902807,5.0
0.4618441288055414,-0.3385156723942685,-0.4087146599504348,-0.1049114100429886,-0.07119885411224393,-0.010479555335761807,5.0
0.45828953159023605,-0.3499915486123458,-0.43878526674694723,-0.11113250181526409,-0.07175817162343012,-0.030483282121680805,5.0
0.4618441288055414,-0.32703980454620607,-0.443797034546366,-0.11942728873726503,-0.10923242440732335,-0.0032054735297763074,5.0
0.4689533232361514,-0.33086509382889356,-0.48389117694171596,-0.1287589248149035,-0.11258832947444046,-0.042303665186368564,5.0
0.4938352548567744,-0.3385156723942685,-0.47386764134287845,-0.11787201500380877,-0.038199144828770355,-0.08049259423458796,5.0
0.5044990465026903,-0.33086509382889356,-0.4688558735434597,-0.10180086573762563,-0.005758751351017894,-0.1223185723300445,5.0
0.4973898520720797,-0.32703980454620607,-0.49391471254055336,-0.09661662312098765,0.025563008809827318,-0.14323155028773785,5.0
0.4938352548567744,-0.33086509382889356,-0.48389117694171596,-0.0821007444267112,0.05241023058664814,-0.18596678925874932,5.0
0.4867263093126796,-0.33086509382889356,-0.48389117694171596,-0.07536123123816653,0.09827423580554358,-0.22870202822976077,5.0
0.4973898520720797,-0.33086509382889356,-0.4788794091422972,-0.059808500226702976,0.12344351016520114,-0.2532520385996388,5.0
0.4867263093126796,-0.3117386474154562,-0.46384410574404095,-0.049958439571245745,0.14246029190181064,-0.2368853650197201,5.0
0.476062517666762,-0.29643749028470623,-0.39869112435159737,-0.04892159041560823,0.16651092441723545,-0.25234278881411887,5.0
0.4653987260208461,-0.2849616224366438,-0.41372641678373634,-0.031295173739068004,0.18496839546451918,-0.23233907173198046,5.0
0.4689533232361514,-0.265835171838199,-0.3736322743883865,-0.03233202289470552,0.18049385537502968,-0.24325018005856963,5.0
0.4653987260208461,-0.25053401470744907,-0.3185028395608976,-0.02870304452687505,0.1916802055987534,-0.22142794122532136,5.0
0.4547349343749285,-0.23140756620150799,-0.31349106079536165,-0.05151371330470203,0.1911208812657068,-0.1850575283831944,5.0
0.42985275386779315,-0.22375698763613303,-0.30346752519652415,-0.059290075648884215,0.190561570576381,-0.13413895262222356,5.0
0.4369619482984032,-0.23140756620150799,-0.2934439895976867,-0.09246922965998719,0.17098546450672492,-0.10231484415787113,5.0
0.4476257399443185,-0.22375698763613303,-0.32351459639419916,-0.10698510835426361,0.15923980359367543,-0.058670349856322225,5.0
0.4476257399443185,-0.23140756620150799,-0.31349106079536165,-0.11942728873726503,0.08037608909130643,-0.01593511781658261,5.0
0.4476257399443185,-0.25053401470744907,-0.3185028395608976,-0.1287589248149035,0.04569842556880921,0.03043715772537672,5.0
0.44407114272901316,-0.265835171838199,-0.32351459639419916,-0.11113250181526409,0.025563008809827318,0.050440883125041316,5.0
0.4511803371596232,-0.2773110438712688,-0.34356166759187406,-0.10128244115980688,-0.006877384667925162,0.038620500060353564,5.0
0.4511803371596232,-0.29643749028470623,-0.3585969819562475,-0.06758486257088517,-0.013029873880042994,0.014979732544723609,5.0
0.4547349343749285,-0.2887869117193313,-0.34356166759187406,-0.04373735096051984,0.005986909562031615,-0.02411845876530507,5.0
0.4618441288055414,-0.2887869117193313,-0.35358520319071146,-0.03233202289470552,-0.01638577553622993,-0.05230552927245526,5.0
0.4653987260208461,-0.29643749028470623,-0.3385499107585726,-0.007966074060323076,0.0031903237115657864,-0.09867780065565146,5.0
0.45828953159023605,-0.2773110438712688,-0.3335381319930366,0.011215616349673385,0.027240960490653325,-0.18596678925874932,5.0
0.4689533232361514,-0.25818459327282406,-0.35358520319071146,0.005512952316766225,0.06695247564469839,-0.18960382167093404,5.0
0.4867263093126796,-0.23905814685938662,-0.31349106079536165,-0.039071536083250195,0.10107082336147452,-0.2932594949439855,5.0
0.47961711488206954,-0.21993169835344553,-0.3285263751597351,-0.0821007444267112,0.14973141272537066,-0.35872623362380013,5.0
0.4511803371596232,-0.20463053965331787,-0.3335381319930366,-0.10387456088735107,0.13407053605587826,-0.3950966686459972,5.0
0.4618441288055414,-0.20463053965331787,-0.35358520319071146,-0.14638534880252715,0.14637550765825358,-0.38964108121259755,5.0
0.4618441288055414,-0.20080525010906738,-0.3585969819562475,-0.1894145593195535,0.12568078020994586,-0.4414689400291934,5.0
0.4369619482984032,-0.20080525010906738,-0.34356166759187406,-0.2257042576360194,0.12288419265401494,-0.47693008090573036,5.0
0.44051654551370845,-0.20463053965331787,-0.35358520319071146,-0.253180741291116,0.1323925835223197,-0.4869319172667298,5.0
0.4618441288055414,-0.20463053965331787,-0.34356166759187406,-0.27650982832366255,0.11505375431926872,-0.4951152984168289,5.0
0.4618441288055414,-0.21993169835344553,-0.363608738789549,-0.3153916526907719,0.13910438683469353,-0.5105727222112276,5.0
0.4653987260208461,-0.21610640907075804,-0.39869112435159737,-0.32057588582276114,0.15196868277011544,-0.4951152984168289,5.0
0.4618441288055414,-0.23140756620150799,-0.39869112435159737,-0.3231680150349541,0.1312739484999473,-0.47511153697455083,5.0
0.4511803371596232,-0.25818459327282406,-0.39869112435159737,-0.30087576451184667,0.11337580178571019,-0.4723837876179909,5.0
0.45828953159023605,-0.3117386474154562,-0.41873819554927233,-0.2485149200907472,0.16035843861604782,-0.494206004271169,5.0
0.4369619482984032,-0.3232145152635186,-0.42876173114810984,-0.1982277708193732,0.23306967413908955,-0.5487616568044646,5.0
0.3836429900688217,-0.33086509382889356,-0.363608738789549,-0.13031419696758498,0.13574848176757642,-0.5460338630877648,5.0
0.3871975872841273,-0.3232145152635186,-0.39869112435159737,-0.09765347227662516,0.059681354821138344,-0.5833135035353417,5.0
0.3445426695869778,-0.3576421271777207,-0.44880880234578474,-0.015224018149785702,0.06415589149969762,-0.6933340140273128,5.0
0.20591362707658276,-0.31556393669814364,-0.4037028811848989,0.09520034737151876,-0.09357154091597054,-0.8497267515423402,5.0
0.017520472438427644,-0.2773110438712688,-0.2583616040356381,0.14963489642699235,-0.4929239778503516,-0.8169934043825027,5.0
0.07083918178149329,-0.23905814685938662,-0.0829497200898654,0.19421937218081048,-0.6238042072493151,-0.5487616568044646,5.0
0.3409880723716728,-0.17785351205887587,-0.09297327762093716,0.2123642134351695,-0.5449404449939234,-0.34235956004388135,5.0
0.6644556723049163,-0.08604656299686525,-0.22327921847359006,0.17814822923772652,-0.3715521666071345,-0.28598540793954613,5.0
0.8492942297277664,-0.06309482730074037,-0.2934439895976867,0.12889791331424214,-0.28541731081562427,-0.24779649552637922,5.0
0.8990585907420422,-0.0936971415622402,-0.3185028395608976,0.11801100350314736,-0.16740140463952427,-0.29053172340735567,5.0
0.8528488269430711,-0.13577532785680987,-0.3335381319930366,0.07809234262659895,0.021088471918084894,-0.28416688618843633,5.0
0.7462111593704257,-0.13960061713949737,-0.27339691840001173,-0.006929224904685562,0.23306967413908955,-0.20233347392870293,5.0
0.5898093796700191,-0.07839598443149028,-0.19822041237484797,-0.13653528873986048,0.23362898482841535,-0.15323341991884198,5.0
0.5258266297945232,-0.10134772012761518,-0.16313800488056485,-0.2231121347469256,0.112816484274524,-0.1077704094112007,5.0
0.5222720325792173,-0.12812474929143491,-0.22829099723912594,-0.2858414707244002,0.06807111066707074,-0.06503517044018921,5.0
0.5222720325792173,-0.12812474929143491,-0.22829099723912594,-0.23503589371365785,0.07254564734563003,-0.0032054735297763074,5.0
0.5187174353639126,-0.12812474929143491,-0.27840867523331325,-0.22622268221383815,0.08708789240368027,0.01861677327443456,5.0
0.44051654551370845,-0.1549017742702473,-0.2834204539988492,-0.16608546912545735,0.0898844799596112,0.11136131742708137,5.0
0.4049705733606549,-0.17402822277618837,-0.2583616040356381,-0.07276910834907274,0.05800340228757979,0.17773731698245093,5.0
0.3836429900688217,-0.17020293349350088,-0.23330277600466182,-0.008484504961241026,0.04402047474071575,0.1877391866135551,5.0
0.39430678171473815,-0.15872706355293476,-0.2583616040356381,0.04906059156114518,0.01773256914268651,0.19501327361799448,5.0
0.4085251705759602,-0.16255235492812592,-0.2834204539988492,0.08172132099442933,0.05632545316495144,0.10863353480041661,5.0
0.4227435594371797,-0.13960061713949737,-0.3185028395608976,0.1361558700499031,0.12288419265401494,0.08135573071383881,5.0
0.44407114272901316,-0.12047416654105256,-0.3385499107585726,0.15533754781370127,0.13462984674520406,0.024072334369000987,5.0
0.4369619482984032,-0.08987185227955274,-0.35358520319071146,0.16052180623808712,0.1295959959663888,-0.039575885332212554,5.0
0.4511803371596232,-0.06309482730074037,-0.27339691840001173,0.11645574873898855,0.11896897007571165,-0.028664760370570946,5.0
0.4547349343749285,-0.05926953801805289,-0.2834204539988492,0.0739449460040488,0.14637550765825358,-0.041394404310813655,5.0
0.44407114272901316,-0.02866721538653823,-0.2433262896712647,0.023657793571125244,0.12120624012045639,-0.06594443131574415,5.0
0.4369619482984032,-0.0363177939519132,-0.2433262896712647,-0.03544255771541972,0.09547764824961265,-0.08231111598569782,5.0
0.4547349343749285,-0.0401430916046155,-0.25334984720233683,-0.07743492322634236,0.06415589149969762,-0.09867780065565146,5.0
0.476062517666762,-0.07074540586611533,-0.2834204539988492,-0.0898771067708934,0.0809354066024926,-0.11322596357449528,5.0
0.48317171209737486,-0.10899829869299012,-0.24833806843680095,-0.08261916900452995,0.09491833756028685,-0.14777785466551244,5.0
0.48317171209737486,-0.0936971415622402,-0.26838513963447574,-0.04840316583778949,0.10107082336147452,-0.13595747437333341,5.0
0.4867263093126796,-0.08222127371417776,-0.23330277600466182,-0.04373735096051984,0.1172910175421531,-0.10049632240676132,5.0
0.47961711488206954,-0.04779367016999047,-0.2433262896712647,-0.04114523439452522,0.12512146269875968,-0.06685369219129907,5.0
0.4547349343749285,-0.055444248735365416,-0.24833806843680095,-0.030776742838150104,0.1049860459397778,-0.01138881621131673,5.0
0.44407114272901316,-0.051618951082663116,-0.2433262896712647,-0.0541058361937958,0.06583384403325619,0.05316866575170608,5.0
0.4476257399443185,-0.0401430916046155,-0.2633733828011744,-0.053068987038158315,0.037308669722876824,0.055896442833353405,5.0
0.4547349343749285,-0.04396837251728815,-0.25334984720233683,-0.05721638366070837,0.02668164297946714,0.06044274721112801,5.0
0.4511803371596232,-0.0401430916046155,-0.2934439895976867,-0.07691649864852362,0.051850913075461955,0.05316866575170608,5.0
0.44051654551370845,-0.04396837251728815,-0.2934439895976867,-0.11320619696498954,0.06583384403325619,0.01861677327443456,5.0
0.44407114272901316,-0.051618951082663116,-0.2834204539988492,-0.1386089854703607,0.06807111066707074,0.028618635974266865,5.0
0.4262981566524878,-0.055444248735365416,-0.27339691840001173,-0.14120110677867972,0.05856271979876598,0.00043156763313913644,5.0
0.41563436500657025,-0.055444248735365416,-0.2433262896712647,-0.16349334781713834,-0.006318067156738964,0.01770751239887964,5.0
0.41563436500657025,-0.06309482730074037,-0.27339691840001173,-0.18993298389737226,-0.04770753910800531,0.06226126341722036,5.0
0.4369619482984032,-0.06309482730074037,-0.26838513963447574,-0.20030146913064822,-0.03372460815021107,0.07680943188108168,5.0
0.4618441288055414,-0.08987185227955274,-0.2834204539988492,-0.18215662155319007,-0.027572118938093224,0.08590203509161344,5.0
0.4511803371596232,-0.09752243084492769,-0.2834204539988492,-0.16453019697277588,-0.030368703083093973,0.11045205655152643,5.0
0.4547349343749285,-0.09752243084492769,-0.30346752519652415,-0.16297492482009437,-0.03987709395139872,0.10590576326378674,5.0
0.4689533232361514,-0.07457069514880282,-0.2834204539988492,-0.1640117723949571,-0.04155504648495726,0.13772987172813916,5.0
0.4653987260208461,-0.07074540586611533,-0.2934439895976867,-0.18267504613100882,0.009902129582137265,0.13954839347924902,5.0
0.4618441288055414,-0.08222127371417776,-0.30847930396206014,-0.1842303167029155,0.02668164297946714,0.10226871976156708,5.0
0.4689533232361514,-0.07074540586611533,-0.27840867523331325,-0.19563565109182898,0.008224177901311261,0.10863353480041661,5.0
0.4547349343749285,-0.05926953801805289,-0.2934439895976867,-0.21326207409146838,-0.01414850890241537,0.08681129596716834,5.0
0.4618441288055414,-0.06309482730074037,-0.2934439895976867,-0.24540437894693382,0.0015123728834723277,0.09226685567548039,5.0
0.4547349343749285,-0.04396837251728815,-0.3185028395608976,-0.26095710363529817,0.00430895788120561,0.10772427392486165,5.0
0.4547349343749285,-0.0363177939519132,-0.2934439895976867,-0.28221249235656976,-0.012470556368856816,0.10499650238823184,5.0
0.4653987260208461,-0.055444248735365416,-0.28843221083215076,-0.3045047428796771,-0.03708050980639799,0.08862981217326071,5.0
0.4618441288055414,-0.06309482730074037,-0.30847930396206014,-0.3122811052238593,-0.019741680603347033,0.08226499158939372,5.0
0.4689533232361514,-0.06309482730074037,-0.32351459639419916,-0.3252417133462291,-0.014707826413601549,0.07317238837886197,5.0
0.48317171209737486,-0.07839598443149028,-0.34356166759187406,-0.3454602529118631,0.0026310062003796013,0.07317238837886197,5.0
0.47961711488206954,-0.06692011658342784,-0.31349106079536165,-0.34857080037877575,0.007105543731671435,0.04498532064422051,5.0
0.48317171209737486,-0.06309482730074037,-0.3335381319930366,-0.33198122653477385,0.00039373786109995763,0.0077056496990473315,5.0
0.47961711488206954,-0.08987185227955274,-0.3385499107585726,-0.3257601316009487,-0.024775534793092493,-0.017753638181438082,5.0
0.44051654551370845,-0.13960061713949737,-0.35358520319071146,-0.3112442560682218,-0.07846998175766431,-0.09231298007178447,5.0
0.42985275386779315,-0.15872706355293476,-0.35358520319071146,-0.275991410068943,-0.09077495336003963,-0.18323900663208453,5.0
0.4085251705759602,-0.1549017742702473,-0.32351459639419916,-0.2521438921354785,-0.048826167308517306,-0.24870574531189915,5.0
0.3907521844994326,-0.16255235492812592,-0.363608738789549,-0.2723624317011125,-0.0678429558669872,-0.27143725611073727,5.0
0.41918896222187496,-0.13960061713949737,-0.3185028395608976,-0.27391771175766794,-0.03708050980639799,-0.2805298648662865,5.0
0.41207976779126493,-0.13577532785680987,-0.23330277600466182,-0.2246674084803819,0.03171549802194516,-0.286894679905136,5.0
0.39430678171473815,-0.1319500385741224,-0.19822041237484797,-0.19200668220864728,0.023325740470547675,-0.2732557778618472,5.0
0.39430678171473815,-0.12812474929143491,-0.20824392604145087,-0.1049114100429886,-0.08630042009241054,-0.24143165830745977,5.0
0.4867263093126796,-0.08604656299686525,-0.23330277600466182,-0.05151371330470203,-0.06169046324393916,-0.21142608268425217,5.0
0.5116082409333003,-0.07457069514880282,-0.24833806843680095,-0.03699783777197516,-0.02253826474834776,-0.1486871155410674,5.0
0.5400450186557433,-0.06692011658342784,-0.27840867523331325,-0.05773480823852711,0.00934281207095108,-0.04594070591607952,5.0
0.5400450186557433,-0.06692011658342784,-0.27840867523331325,-0.09402450339344344,0.019410520557033593,0.033164937579532754,5.0
0.5507088103016609,-0.06692011658342784,-0.31349106079536165,-0.12616680350658452,0.04849501141927503,0.11227057830263627,5.0
0.5507088103016609,-0.06692011658342784,-0.31349106079536165,-0.143793227691805,0.07198633324537404,0.14591320851809855,5.0
0.5293812270098279,-0.0936971415622402,-0.32351459639419916,-0.16764074285891362,0.09212175000435593,0.12681874122148007,5.0
0.4867263093126796,-0.12429945582374005,-0.2834204539988492,-0.16245650024227562,0.0859692573813079,0.11136131742708137,5.0
0.4653987260208461,-0.13577532785680987,-0.2834204539988492,-0.1614196510866381,0.11225716676333782,0.05771496458446322,5.0
0.4689533232361514,-0.15872706355293476,-0.30847930396206014,-0.14223795514392984,0.13966371116774012,0.02134455451484496,5.0
0.4653987260208461,-0.14342590642218486,-0.32351459639419916,-0.10905880350398907,0.13462984674520406,0.02680011422315702,5.0
0.4618441288055414,-0.12812474929143491,-0.3185028395608976,-0.08469286731580498,0.09156243249316975,0.016798252909579082,5.0
0.4511803371596232,-0.1166488772583651,-0.32351459639419916,-0.059808500226702976,0.09435902004910068,0.005887129334191852,5.0
0.4547349343749285,-0.1166488772583651,-0.3185028395608976,-0.035960988616337654,0.09827423580554358,-0.027755499495016024,5.0
0.4511803371596232,-0.11282358797567761,-0.2834204539988492,-0.013150319838510673,0.09883355331672976,-0.07594629540183082,5.0
0.4369619482984032,-0.10517300941030264,-0.29845574643098816,-0.014705599895066113,0.07646086651300313,-0.08140185511014288,5.0
0.4227435594371797,-0.08987185227955274,-0.2934439895976867,-0.029739893682512564,0.07869813655774788,-0.07776481715294067,5.0
0.4369619482984032,-0.08604656299686525,-0.2583616040356381,-0.017816134715780318,0.051850913075461955,-0.1077704094112007,5.0
0.44407114272901316,-0.08604656299686525,-0.2583616040356381,-0.016779285560142805,0.05800340228757979,-0.08958519744511972,5.0
0.45828953159023605,-0.07074540586611533,-0.27339691840001173,-0.03855310518233227,0.060799989843510725,-0.12413709408115438,5.0
0.4547349343749285,-0.06692011658342784,-0.29845574643098816,-0.053068987038158315,0.05241023058664814,-0.10231484415787113,5.0
0.4547349343749285,-0.07074540586611533,-0.3185028395608976,-0.05617953450507084,0.06359657398851146,-0.11868152882782482,5.0
0.4476257399443185,-0.08222127371417776,-0.31349106079536165,-0.04632947384961361,0.07198633324537404,-0.08685742036347244,5.0
0.44407114272901316,-0.08604656299686525,-0.30847930396206014,-0.05773480823852711,0.06807111066707074,-0.10140558328231623,5.0
0.44407114272901316,-0.08222127371417776,-0.2834204539988492,-0.03958995433796978,0.04457979225190194,-0.08322037686125273,5.0
0.44407114272901316,-0.06692011658342784,-0.30346752519652415,-0.06084534938234049,0.04122388889024992,-0.04775922489468065,5.0
0.44407114272901316,-0.055444248735365416,-0.28843221083215076,-0.053068987038158315,0.01773256914268651,-0.017753638181438082,5.0
0.44407114272901316,-0.055444248735365416,-0.28843221083215076,-0.053587411615977056,0.011580080410230724,0.04407605976866561,5.0
0.45828953159023605,-0.06692011658342784,-0.3185028395608976,-0.04010838523888771,0.006546226220485252,0.06953535042165974,5.0
0.4547349343749285,-0.06692011658342784,-0.2633733828011744,-0.04684789842743239,-0.004640116328645518,0.1359113499770293,5.0
0.4476257399443185,-0.08222127371417776,-0.26838513963447574,-0.03958995433796978,-0.034283925661397256,0.15500581727364776,5.0
0.4476257399443185,-0.08987185227955274,-0.27840867523331325,-0.049958439571245745,-0.0326059731278387,0.12863726297258993,5.0
0.44407114272901316,-0.07839598443149028,-0.2834204539988492,-0.04270050180488233,-0.031487338105466334,0.14045765435480392,5.0
0.44407114272901316,-0.07839598443149028,-0.24833806843680095,-0.04632947384961361,-0.03708050980639799,0.16864471931693664,5.0
0.4618441288055414,-0.06309482730074037,-0.27339691840001173,-0.059290075648884215,-0.043792316529702016,0.12227244793374042,5.0
0.48317171209737486,-0.05926953801805289,-0.31349106079536165,-0.06706644431616557,-0.027012801426907047,0.09408537188157277,5.0
0.49028065764146966,-0.05926953801805289,-0.2934439895976867,-0.06084534938234049,0.014935983345516464,0.07590017100552673,5.0
0.4618441288055414,-0.07074540586611533,-0.2583616040356381,-0.0629190476936155,0.037308669722876824,0.06953535042165974,5.0
0.4511803371596232,-0.06309482730074037,-0.28843221083215076,-0.0909139559265309,0.003749641222751971,0.003159348440345047,5.0
0.4547349343749285,-0.06309482730074037,-0.26838513963447574,-0.0909139559265309,0.022207106300907855,0.004068608622772785,5.0
0.4618441288055414,-0.055444248735365416,-0.2633733828011744,-0.10750353293208238,0.02947822882993297,-0.0323018011002819,5.0
0.45828953159023605,-0.0363177939519132,-0.25334984720233683,-0.10905880350398907,-0.004640116328645518,-0.06048887160743208,5.0
0.4547349343749285,-0.0363177939519132,-0.26838513963447574,-0.11839043958162752,0.009902129582137265,-0.06048887160743208,5.0
0.4653987260208461,-0.024841934473865564,-0.2583616040356381,-0.12461153135390303,0.021647789216087943,-0.056851828105212415,5.0
0.4547349343749285,-0.024841934473865564,-0.26838513963447574,-0.13809056089254196,0.017173252004570812,-0.06139813248298702,5.0
0.4618441288055414,-0.024841934473865564,-0.26838513963447574,-0.1562354092603875,0.03563071718931827,-0.04412218693747842,5.0
0.4653987260208461,-0.013366058255788316,-0.27840867523331325,-0.15727225762563765,0.016054617728339424,-0.01866289767073864,5.0
0.4547349343749285,-0.009540777343115668,-0.2633733828011744,-0.16193807566445687,0.023325740470547675,-0.006842514606050852,5.0
0.4547349343749285,-0.0363177939519132,-0.26838513963447574,-0.16349334781713834,0.007105543731671435,0.039529758163399716,5.0
0.4618441288055414,-0.0401430916046155,-0.2633733828011744,-0.15105116703894322,0.008783494559764893,0.03225567670397781,5.0
0.4618441288055414,-0.0363177939519132,-0.2383145547701977,-0.1235746821982655,-0.004080798817459323,0.04043901903895466,5.0
0.4618441288055414,-0.04396837251728815,-0.25334984720233683,-0.13290631827590396,-0.01414850890241537,0.04771310049837656,5.0
0.4476257399443185,-0.0363177939519132,-0.29845574643098816,-0.15105116703894322,-0.00016557965008623377,0.03498345655813386,5.0
0.4618441288055414,-0.0401430916046155,-0.2934439895976867,-0.1551985608951374,0.007664860390125074,0.028618635974266865,5.0
0.4618441288055414,-0.0363177939519132,-0.26838513963447574,-0.16245650024227562,0.003749641222751971,0.014070471669168683,5.0
0.4653987260208461,-0.05926953801805289,-0.2934439895976867,-0.15830910599088777,0.027240960490653325,0.02680011422315702,5.0
0.47961711488206954,-0.06309482730074037,-0.26838513963447574,-0.16504862155059463,0.03003754634111916,0.05407792108224355,5.0
0.4689533232361514,-0.06309482730074037,-0.3335381319930366,-0.1816381969753713,0.020529154833264982,0.04680383962282164,5.0
0.4653987260208461,-0.07839598443149028,-0.3185028395608976,-0.1728249854755516,0.021088471918084894,0.00861490988147507,5.0
0.45828953159023605,-0.09752243084492769,-0.35358520319071146,-0.1666038937032761,0.040105253867877555,0.00861490988147507,5.0
0.45828953159023605,-0.10517300941030264,-0.3285263751597351,-0.1614196510866381,0.028359594660293145,-0.01138881621131673,5.0
0.45828953159023605,-0.10899829869299012,-0.34356166759187406,-0.15986437893395664,0.03171549802194516,-0.025936980516414916,5.0
0.45828953159023605,-0.11282358797567761,-0.3185028395608976,-0.13964583383561083,0.023885057555367586,-0.04412218693747842,5.0
0.4511803371596232,-0.10134772012761518,-0.3285263751597351,-0.14897747001204772,0.014935983345516464,-0.056851828105212415,5.0
0.44407114272901316,-0.08987185227955274,-0.36862051755508496,-0.13186947070104124,0.03115618051075898,-0.04775922489468065,5.0
0.4547349343749285,-0.08604656299686525,-0.35358520319071146,-0.10646668377644486,0.03227481468039879,-0.05594256722965747,5.0
0.4618441288055414,-0.08604656299686525,-0.35358520319071146,-0.10128244115980688,0.0423425239126223,-0.03502958372694667,5.0
0.4653987260208461,-0.0936971415622402,-0.3285263751597351,-0.08365601816016748,0.03115618051075898,-0.012298075700617283,5.0
0.45828953159023605,-0.0936971415622402,-0.3185028395608976,-0.07484280666034776,0.017173252004570812,-0.006842514606050852,5.0
0.45828953159023605,-0.07457069514880282,-0.31349106079536165,-0.07536123123816653,0.023885057555367586,0.011342690428758283,5.0
0.4547349343749285,-0.08222127371417776,-0.30847930396206014,-0.07743492322634236,0.03898662055097028,0.009524170063902807,5.0
0.45828953159023605,-0.10517300941030264,-0.3285263751597351,-0.06965856088216019,0.027240960490653325,0.024981595244555913,5.0
0.4689533232361514,-0.10899829869299012,-0.3185028395608976,-0.06706644431616557,0.016054617728339424,0.004068608622772785,5.0
0.4725079204514561,-0.10899829869299012,-0.3285263751597351,-0.08261916900452995,0.00934281207095108,-0.006842514606050852,5.0
0.476062517666762,-0.12047416654105256,-0.28843221083215076,-0.08002704611543615,0.03507139967813208,-0.04684996679163445,5.0
0.476062517666762,-0.09752243084492769,-0.3335381319930366,-0.08106389527107369,0.03451208387241099,-0.02957402124612587,5.0
0.476062517666762,-0.11282358797567761,-0.3285263751597351,-0.07639808039380404,0.03507139967813208,-0.028664760370570946,5.0
0.4689533232361514,-0.10517300941030264,-0.31349106079536165,-0.059808500226702976,0.03507139967813208,-0.05412405102356509,5.0
0.45828953159023605,-0.08987185227955274,-0.29845574643098816,-0.05877165107106546,0.0496136464416474,-0.02957402124612587,5.0
0.45828953159023605,-0.08222127371417776,-0.32351459639419916,-0.06032692480452173,0.025563008809827318,-0.04684996679163445,5.0
0.4618441288055414,-0.08604656299686525,-0.30346752519652415,-0.06032692480452173,0.04178320640143611,-0.030483282121680805,5.0
0.4618441288055414,-0.08222127371417776,-0.2934439895976867,-0.05825322649324671,0.04122388889024992,-0.0013869529049981364,5.0
0.4689533232361514,-0.04779367016999047,-0.30346752519652415,-0.07225068377125397,0.04122388889024992,0.014070471669168683,5.0
0.4689533232361514,-0.04779367016999047,-0.30346752519652415,-0.07225068377125397,0.03786798552859791,0.0077056496990473315,5.0
0.4618441288055414,-0.06309482730074037,-0.30847930396206014,-0.08884025761525587,0.03339344885003862,0.011342690428758283,5.0
0.45828953159023605,-0.04779367016999047,-0.30346752519652415,-0.09246922965998719,0.04457979225190194,0.028618635974266865,5.0
0.44407114272901316,-0.051618951082663116,-0.2834204539988492,-0.1049114100429886,0.05800340228757979,0.036801978309243706,5.0
0.4547349343749285,-0.08222127371417776,-0.30847930396206014,-0.10646668377644486,0.03619003470050445,0.01861677327443456,5.0
0.4547349343749285,-0.08222127371417776,-0.30847930396206014,-0.11631674443190208,0.037308669722876824,0.028618635974266865,5.0
0.4511803371596232,-0.06692011658342784,-0.27840867523331325,-0.11216935097090161,0.03507139967813208,0.03134641582842291,5.0
0.4547349343749285,-0.06309482730074037,-0.27840867523331325,-0.12927734939272226,0.03786798552859791,0.036801978309243706,5.0
0.4547349343749285,-0.055444248735365416,-0.30847930396206014,-0.12824050023708475,0.03451208387241099,0.0077056496990473315,5.0
0.4547349343749285,-0.055444248735365416,-0.32351459639419916,-0.1251299559317218,0.03339344885003862,0.033164937579532754,5.0
0.4547349343749285,-0.07074540586611533,-0.29845574643098816,-0.13964583383561083,0.023325740470547675,0.02680011422315702,5.0
0.4689533232361514,-0.06309482730074037,-0.30346752519652415,-0.13964583383561083,0.021647789216087943,0.009524170063902807,5.0
0.4653987260208461,-0.04396837251728815,-0.2583616040356381,-0.1577906822034564,0.028359594660293145,0.027709375098711943,5.0
0.4653987260208461,-0.0401430916046155,-0.30847930396206014,-0.16349334781713834,0.019969837748445074,0.027709375098711943,5.0
0.4653987260208461,-0.04779367016999047,-0.30847930396206014,-0.17075128716427657,0.00039373786109995763,0.01861677327443456,5.0
0.4618441288055414,-0.06692011658342784,-0.2383145547701977,-0.16815916585595758,0.013817349175876641,0.01588899203402416,5.0
0.4511803371596232,-0.06692011658342784,-0.26838513963447574,-0.17645395435873332,0.010461446240590904,0.033164937579532754,5.0
0.4653987260208461,-0.06309482730074037,-0.26838513963447574,-0.16815916585595758,0.01213939792141691,0.028618635974266865,5.0
0.45828953159023605,-0.07457069514880282,-0.2583616040356381,-0.1894145593195535,0.006546226220485252,0.023163073493446068,5.0
0.4511803371596232,-0.07457069514880282,-0.2834204539988492,-0.18682243959200928,0.0031903237115657864,0.03498345655813386,5.0
0.44407114272901316,-0.07074540586611533,-0.27840867523331325,-0.19200668220864728,0.004868274539659245,0.02225381400414551,5.0
0.44407114272901316,-0.07457069514880282,-0.27339691840001173,-0.17956449866409627,0.023325740470547675,0.009524170063902807,5.0
0.4369619482984032,-0.07839598443149028,-0.24833806843680095,-0.18267504613100882,0.0026310062003796013,0.006796389516619591,5.0
0.44051654551370845,-0.06309482730074037,-0.2633733828011744,-0.19408037735837272,0.018851203418917897,0.005887129334191852,5.0
0.4618441288055414,-0.06309482730074037,-0.2834204539988492,-0.21015152662455588,0.01213939792141691,-0.00866103497090633,5.0
0.48317171209737486,-0.08604656299686525,-0.2934439895976867,-0.21170680035801215,0.032834131338852435,0.003159348440345047,5.0
0.48317171209737486,-0.07074540586611533,-0.31349106079536165,-0.21844631986965599,0.03619003470050445,-0.0032054735297763074,5.0
0.48317171209737486,-0.09752243084492769,-0.30847930396206014,-0.21948316270219428,0.02668164297946714,-0.00957029515333407,5.0
0.4618441288055414,-0.09752243084492769,-0.32351459639419916,-0.22207528559128809,0.032834131338852435,-0.012298075700617283,5.0
0.45828953159023605,-0.10134772012761518,-0.32351459639419916,-0.20444886259164868,0.024444374640187498,-0.028664760370570946,5.0
0.4547349343749285,-0.10899829869299012,-0.29845574643098816,-0.20030146913064822,0.02947822882993297,-0.01957215854629356,5.0
0.4547349343749285,-0.10899829869299012,-0.2934439895976867,-0.1702328641672326,0.028918912171479336,-0.02320919927600451,5.0
0.4547349343749285,-0.1166488772583651,-0.29845574643098816,-0.16815916585595758,0.019969837748445074,-0.028664760370570946,5.0
0.4511803371596232,-0.0936971415622402,-0.28843221083215076,-0.14171953056611108,0.022766423385727763,-0.007751774788478591,5.0
0.4511803371596232,-0.08222127371417776,-0.28843221083215076,-0.14327480350917995,0.027240960490653325,-0.01593511781658261,5.0
0.4725079204514561,-0.0936971415622402,-0.35358520319071146,-0.12772207724004078,0.017173252004570812,-0.00957029515333407,5.0
0.4618441288055414,-0.08222127371417776,-0.30847930396206014,-0.1349800157967916,0.018851203418917897,-0.0032054735297763074,5.0
0.4618441288055414,-0.08987185227955274,-0.26838513963447574,-0.1157983198540833,0.026122326321013502,-0.0013869529049981364,5.0
0.4547349343749285,-0.08987185227955274,-0.27840867523331325,-0.1313510461232225,0.026122326321013502,-0.03502958372694667,5.0
0.4547349343749285,-0.08604656299686525,-0.2834204539988492,-0.12098256247072131,0.02668164297946714,-0.0032054735297763074,5.0
0.4547349343749285,-0.08222127371417776,-0.2934439895976867,-0.11320619696498954,0.021088471918084894,0.004068608622772785,5.0
0.4547349343749285,-0.08987185227955274,-0.31349106079536165,-0.1147614706984458,0.014376666260696553,0.014979732544723609,5.0
0.4618441288055414,-0.07839598443149028,-0.35358520319071146,-0.11320619696498954,0.023325740470547675,0.006796389516619591,5.0
0.4618441288055414,-0.0936971415622402,-0.35358520319071146,-0.11061407723744533,0.023325740470547675,0.05498718195779846,5.0
0.4618441288055414,-0.09752243084492769,-0.3185028395608976,-0.11942728873726503,0.014935983345516464,0.045894581519775456,5.0
0.4653987260208461,-0.08987185227955274,-0.30346752519652415,-0.11216935097090161,0.028918912171479336,0.019526032763735116,5.0
0.4653987260208461,-0.08987185227955274,-0.3185028395608976,-0.11009565265962658,0.030596862999572795,0.00043156763313913644,5.0
0.4618441288055414,-0.08987185227955274,-0.30847930396206014,-0.09869031827071308,0.020529154833264982,0.027709375098711943,5.0
0.4476257399443185,-0.08222127371417776,-0.3285263751597351,-0.0971350476988064,0.022766423385727763,0.020435293639290038,5.0
0.4689533232361514,-0.08987185227955274,-0.2934439895976867,-0.08261916900452995,0.016054617728339424,0.03225567670397781,5.0
0.4547349343749285,-0.10134772012761518,-0.30346752519652415,-0.09402450339344344,0.007105543731671435,0.03225567670397781,5.0
0.4618441288055414,-0.0936971415622402,-0.32351459639419916,-0.10128244115980688,0.007664860390125074,0.01588899203402416,5.0
0.4618441288055414,-0.07074540586611533,-0.2834204539988492,-0.10335613630953232,0.016613934813159332,0.056805703708908306,5.0
0.4689533232361514,-0.07074540586611533,-0.31349106079536165,-0.10231929031544439,0.011020763751777088,0.004068608622772785,5.0
0.4725079204514561,-0.08222127371417776,-0.2934439895976867,-0.10957722808180782,0.027800278001839512,0.025890856120110835,5.0
0.4689533232361514,-0.08987185227955274,-0.3185028395608976,-0.11942728873726503,0.025003692151373682,0.0077056496990473315,5.0
0.4547349343749285,-0.07074540586611533,-0.3285263751597351,-0.11320619696498954,0.028359594660293145,0.014979732544723609,5.0
0.44407114272901316,-0.0936971415622402,-0.2934439895976867,-0.12824050023708475,0.03395276636122481,-0.0032054735297763074,5.0
0.4689533232361514,-0.09752243084492769,-0.26838513963447574,-0.12409310677608427,0.04122388889024992,-0.006842514606050852,5.0
0.45828953159023605,-0.09752243084492769,-0.30847930396206014,-0.12720365266222203,0.022766423385727763,-0.03502958372694667,5.0
0.4653987260208461,-0.08222127371417776,-0.31349106079536165,-0.1147614706984458,0.03339344885003862,-0.01593511781658261,5.0
0.4618441288055414,-0.08222127371417776,-0.3185028395608976,-0.11113250181526409,0.03563071718931827,0.009524170063902807,5.0
0.4653987260208461,-0.09752243084492769,-0.2934439895976867,-0.11942728873726503,0.03115618051075898,-0.01866289767073864,5.0
0.4618441288055414,-0.08987185227955274,-0.28843221083215076,-0.11890886415944628,0.03339344885003862,-0.007751774788478591,5.0
0.45828953159023605,-0.10517300941030264,-0.31349106079536165,-0.13653528873986048,0.032834131338852435,-0.02957402124612587,5.0
0.45828953159023605,-0.11282358797567761,-0.30346752519652415,-0.12927734939272226,0.03003754634111916,-0.028664760370570946,5.0
0.4618441288055414,-0.10899829869299012,-0.30346752519652415,-0.1235746821982655,0.03003754634111916,-0.04048514343525871,5.0
0.4547349343749285,-0.11282358797567761,-0.27840867523331325,-0.13290631827590396,0.024444374640187498,-0.038666624456657625,5.0
0.4618441288055414,-0.1166488772583651,-0.27840867523331325,-0.12616680350658452,0.027240960490653325,-0.04594070591607952,5.0
0.4689533232361514,-0.09752243084492769,-0.2934439895976867,-0.13031419696758498,0.03003754634111916,-0.05139626839690032,5.0
0.4547349343749285,-0.08222127371417776,-0.3285263751597351,-0.12409310677608427,0.04066457137906373,-0.01957215854629356,5.0
0.4476257399443185,-0.08604656299686525,-0.32351459639419916,-0.12305625762044675,0.03171549802194516,-0.030483282121680805,5.0
0.4476257399443185,-0.08987185227955274,-0.3185028395608976,-0.13446159200936025,0.03227481468039879,-0.013207336576172204,5.0
0.4547349343749285,-0.08222127371417776,-0.2834204539988492,-0.13601686416204173,0.025563008809827318,0.006796389516619591,5.0
0.45828953159023605,-0.08222127371417776,-0.2934439895976867,-0.11787201500380877,0.022766423385727763,-0.005023993894631785,5.0
0.4618441288055414,-0.1166488772583651,-0.24833806843680095,-0.1199457133150838,0.023885057555367586,0.023163073493446068,5.0
0.4618441288055414,-0.13577532785680987,-0.2633733828011744,-0.08469286731580498,0.020529154833264982,0.00043156763313913644,5.0
0.4547349343749285,-0.1166488772583651,-0.28843221083215076,-0.050476864149064514,0.04066457137906373,0.0013408279022077728,5.0
0.44407114272901316,-0.08222127371417776,-0.2934439895976867,-0.013668750739428599,0.047935693908088856,0.036801978309243706,5.0
0.44407114272901316,-0.08222127371417776,-0.2934439895976867,-0.02403722964960538,0.032834131338852435,0.07044460575219721,5.0
0.4618441288055414,-0.055444248735365416,-0.3335381319930366,-0.005892375749048071,0.04625774307999538,0.12954652384814486,5.0
0.4689533232361514,-0.05926953801805289,-0.2934439895976867,-0.013150319838510673,0.03339344885003862,0.12772800209703503,5.0
0.4689533232361514,-0.05926953801805289,-0.2934439895976867,-0.042182077227063554,0.03171549802194516,0.12954652384814486,5.0
0.4618441288055414,0.009585677440336607,-0.2934439895976867,-0.13601686416204173,-0.0018435304781796796,0.13954839347924902,5.0
0.4653987260208461,0.009585677440336607,-0.2583616040356381,-0.24747807725820886,0.01213939792141691,0.11227057830263627,5.0
0.4653987260208461,0.009585677440336607,-0.2583616040356381,-0.3226495841340362,0.023325740470547675,0.036801978309243706,5.0
0.44407114272901316,0.005760379787634266,-0.30847930396206014,-0.3957474053447867,-0.010233288029577176,0.024981595244555913,5.0
0.4547349343749285,-0.055444248735365416,-0.3385499107585726,-0.4341107861647798,0.023885057555367586,-0.006842514606050852,5.0
0.4547349343749285,-0.055444248735365416,-0.3385499107585726,-0.4470713942871495,0.009902129582137265,-0.07139999102405621,5.0
0.44407114272901316,-0.0936971415622402,-0.3185028395608976,-0.49839540852190894,0.023325740470547675,-0.10504262678453595,5.0
0.4511803371596232,-0.11282358797567761,-0.30847930396206014,-0.479213705465714,0.03227481468039879,-0.10413336590898101,5.0
0.4511803371596232,-0.11282358797567761,-0.30847930396206014,-0.4429239976645995,0.004868274539659245,-0.09685927890454162,5.0
0.4618441288055414,-0.08987185227955274,-0.2934439895976867,-0.4133738283444261,0.007664860390125074,-0.06776295306685398,5.0
0.45828953159023605,-0.10517300941030264,-0.3185028395608976,-0.39056317221279757,-0.0024028479893658775,-0.0377573635811027,5.0
0.4653987260208461,-0.12047416654105256,-0.28843221083215076,-0.35531031356732035,-0.003521481306273148,0.0013408279022077728,5.0
0.4476257399443185,-0.11282358797567761,-0.2934439895976867,-0.3153916526907719,-0.013029873880042994,0.004068608622772785,5.0
0.4618441288055414,-0.1166488772583651,-0.32351459639419916,-0.271844013446393,-0.009114653007204805,0.05225940487615117,5.0
0.4618441288055414,-0.1166488772583651,-0.3285263751597351,-0.2687334659794804,0.00934281207095108,0.04680383962282164,5.0
0.4547349343749285,-0.12047416654105256,-0.30847930396206014,-0.2500701938242035,0.018851203418917897,0.014070471669168683,5.0
0.4689533232361514,-0.10899829869299012,-0.3185028395608976,-0.26562291851256786,0.024444374640187498,0.006796389516619591,5.0
0.4689533232361514,-0.12047416654105256,-0.2834204539988492,-0.2796203757905752,0.045139109763088124,-0.021390678911149038,5.0
0.4653987260208461,-0.10899829869299012,-0.2633733828011744,-0.29206255301202694,0.055206818142579064,-0.0323018011002819,5.0
0.4725079204514561,-0.13577532785680987,-0.25334984720233683,-0.28376777241312523,0.0613593073546969,-0.05957961073187717,5.0
0.4689533232361514,-0.12812474929143491,-0.2383145547701977,-0.29154413475730734,0.0619186214549529,-0.07230925189961111,5.0
0.476062517666762,-0.14342590642218486,-0.19822041237484797,-0.2702887460360358,0.07030838071181549,-0.04412218693747842,5.0
0.47961711488206954,-0.15872706355293476,-0.203232147275915,-0.2443675297912963,0.07813881904656167,-0.09958706153120638,5.0
0.47961711488206954,-0.1816788023878152,-0.21325570480698675,-0.18785928874764682,0.06751179315588456,-0.12595560474222925,5.0
0.476062517666762,-0.17020293349350088,-0.2383145547701977,-0.143793227691805,0.08764720991486645,-0.09776853978009652,5.0
