acc_x,acc_y,acc_z,gyro_x,gyro_y,gyro_z,activity
0.10790163297807831,-0.03171376357920125,1.4450252775719274,-0.11915732504333752,-0.110690124767175,-0.07629732094089473,0.0
0.08785695011517462,0.025460471528644096,1.542301831023828,-0.04409106646173245,0.0523675527902255,-0.10064807147316239,0.0
0.003669562789521218,0.04587985652856576,1.4596167861314933,-0.06353268908343021,0.5241701481618035,0.042534349913183375,0.0
0.003669562789521218,0.04587985652856576,1.4596167861314933,-0.18720300504263016,0.6917105173422229,0.025975838199889415,0.0
-0.004348310355640322,0.0050411044003621855,1.4304337690123616,-0.2417475436297008,0.8917503623466867,-0.050972539674535355,0.0
0.023714245652424908,-0.011294414322559256,1.4547529499449714,-0.19962404249521237,0.9707576804667272,-0.19318091993177433,0.0
-0.052455549226608916,0.0009572202517216833,1.4450252775719274,-0.2860312526834684,0.8995950803755377,-0.273051392607228,0.0
-0.05646448579918985,-0.007210530173918794,1.4158422604527958,-0.39512032985761,0.7309340528122151,-0.21655765754997605,0.0
-0.07650916866209322,-0.019462146876560144,1.508254977718174,-0.4151020028124269,0.508480766778365,-0.1435054000131645,0.0
-0.08452704180725476,0.0009572202517216833,1.5958038587970305,-0.3292348314303845,0.39697397283427993,-0.08019343793725309,0.0
-0.06448235894435107,-0.019462146876560144,1.6298505418241453,-0.2390473232514202,0.38464659393668327,-0.15811584914452334,0.0
-0.07650916866209322,-0.039881531876481885,1.5812123502374646,-0.14291930916246856,0.08206534506845514,-0.12986896973588014,0.0
-0.08452704180725476,-0.02354603102520032,1.5860761864239867,-0.131038317102903,-0.04737219486485607,-0.15227166473997292,0.0
-0.02840192979112462,0.041795990251565295,1.6493058865702332,-0.06839309432717948,0.44740420148183363,-0.3285711088104054,0.0
-0.06448235894435107,0.0662992415284875,1.6590335589432774,-0.03437025597423394,1.0716181377618343,-0.5496759547690412,0.0
-0.14065187312484326,0.04996374067720601,1.6201230397296402,-0.26604957972865173,0.7617525137247727,-0.31006453674267953,0.0
-0.1727233657054891,-0.007210530173918794,1.503391141531652,-0.42320269029448115,0.3700778709361481,-0.08019343793725309,0.0
-0.19677684479170274,-0.02354603102520032,1.542301831023828,-0.3745986180965796,0.04172117513554989,0.10584630753408832,0.0
-0.19677684479170274,0.0009572202517216833,1.683352739875887,-0.24120750482348727,-0.13534489623093418,0.10876839379635492,0.0
-0.1486697462700048,-0.027629915173840496,1.7076719208084967,-0.1612808393514321,0.008101036657175226,0.042534349913183375,0.0
-0.10858038054419741,-0.015378262727919968,1.7125355867164798,-0.10241593103342427,0.24960570058030848,-0.003245063404083166,0.0
-0.13263399997968173,0.0009572202517216833,1.6298505418241453,-0.2028643016797069,0.2266319440280362,0.10000212312953789,0.0
-0.14466080969742387,-0.007210530173918794,1.6006676949835525,-0.31303348281348786,0.04732453197575503,0.21883379546861811,0.0
-0.14466080969742387,-0.007210530173918794,1.6006676949835525,-0.2800907467734812,-0.06306158991686064,0.1662361714677159,0.0
-0.1526786828425854,-0.007210530173918794,1.6590335589432774,-0.17586205837608135,-0.10228509121543804,0.19740513119861708,0.0
-0.13664293655226264,-0.027629915173840496,1.6736250675028432,-0.09917565867532376,0.16723636630585997,0.05714480052954439,0.0
-0.14065187312484326,0.0009572202517216833,1.6298505418241453,-0.04301097567569894,0.19637381230693052,-0.03246596760680951,0.0
-0.13664293655226264,0.0009572202517216833,1.6152592035431186,-0.09431525672497601,0.0052993582370726615,0.005521205777731719,0.0
-0.14466080969742387,-0.03579764772784171,1.6152592035431186,-0.21150502796797493,-0.03840682187024295,0.09415794466499605,0.0
-0.16069655598774693,-0.027629915173840496,1.6541697227567551,-0.22986655815693846,-0.2031455075048474,0.19740513119861708,0.0
-0.13263399997968173,-0.039881531876481885,1.6638973951297993,-0.21204506677418866,-0.2776701374190107,0.1779245283967995,0.0
-0.068491295516932,-0.09705580272760661,1.683352739875887,-0.10133584024739076,-0.15495663662879838,0.062014951229998797,0.0
-0.09655357082645527,-0.0807202661330459,1.683352739875887,-0.04787138256614896,0.038359162398283415,-0.043180299741810056,0.0
-0.11258931711677835,-0.048049264430482776,1.6298505418241453,-0.10889646916282228,0.0237904351263213,-0.09577791780270369,0.0
-0.11258931711677835,-0.048049264430482776,1.6298505418241453,-0.19098331620694434,-0.05017386815924641,0.042534349913183375,0.0
-0.12862506340710111,-0.06438476528176434,1.537437994837306,-0.25632877582795627,-0.16728402919496094,0.2314961950118108,0.0
-0.08853597837983569,-0.0807202661330459,1.571484677864421,-0.2206857930624567,-0.03336380105577249,0.18376871280134996,0.0
-0.09254463425387466,-0.10113965113296733,1.7125355867164798,-0.08351435545144399,0.05180721676449085,-0.0061671556063583885,0.0
-0.10858038054419741,-0.0766364177276852,1.7028080846219749,-0.017088814924603166,-0.07258729552006693,0.06104092049590704,0.0
-0.12862506340710111,-0.0766364177276852,1.5909400226105086,-0.06461277657606221,0.02266976350199466,0.12143078739953891,0.0
-0.12862506340710111,-0.0766364177276852,1.5909400226105086,-0.04409106646173245,0.030514463163710377,0.20617140780544277,0.0
-0.1246161268345205,-0.06030091687640363,1.6395782141971893,-0.04679129178011544,0.09327205874886542,0.25682097033816154,0.0
-0.1246161268345205,-0.06438476528176434,1.6298505418241453,-0.14453943875471578,0.014825064480992968,0.7136410876267567,0.0
-0.1045714439716168,-0.11339130357888814,1.5131188139046963,-0.2719900592914269,-0.042889506658978754,0.7750049882344846,0.0
-0.1687144291329085,-0.12155903613288907,1.5812123502374646,-0.30601289929107317,0.10896145380087001,0.6737058394090129,0.0
-0.2168215276546061,-0.1419784211328108,1.6493058865702332,-0.10727633298377202,0.23503697757977332,0.3551980150813411,0.0
-0.2168215276546061,-0.1419784211328108,1.6493058865702332,0.08011929324378346,0.1257715209043439,0.17402840546043258,0.0
-0.18074123885065063,-0.17464942283537394,1.7563101123951774,0.11252199706437949,-0.03504480913297647,0.3327953200772483,0.0
-0.08452704180725476,-0.15831392198409233,1.688216576062409,0.09956090763197745,-0.008148696983420137,0.42532818041587744,0.0
-0.08452704180725476,-0.15831392198409233,1.688216576062409,-0.057052147660630714,-0.1717667037322724,0.4155878730749602,0.0
-0.11659825368935896,-0.1542300378354522,1.542301831023828,-0.15966070975918484,-0.3196953188462615,0.3318212774631394,0.0
-0.14065187312484326,-0.24407531038914002,1.5131188139046963,-0.25794889224659745,-1.0016238179369517,0.6074717970108433,0.0
0.07583014039743248,-0.32575277890226767,1.6055315311700744,-0.2174455207043561,-1.3551956109756191,0.8276025765953352,0.0
0.20010689344889326,-0.39517866645603383,1.537437994837306,0.1254830733231755,-0.9808913371447884,-0.1474015110695142,0.0
0.1439820621313054,-0.4646045540098001,1.4790719605990428,0.19838915527281578,-0.10844878066423635,-1.238315220451229,0.0
0.07583014039743248,-0.24407531038914002,1.508254977718174,0.4835329515287821,0.16331400729143436,-1.6289012953416548,0.0
-0.20479471793686396,-0.1991526562406564,1.4790719605990428,0.3101784659988442,1.9233283501358822,-0.7201312025549059,0.0
-0.6978929339193974,0.4828545311078047,0.8175916865996362,-0.2833310059579757,2.501594636625681,0.6045496929285508,0.0
-0.3410982807060672,-0.2889979287943442,2.0870502919645153,0.130883527253343,-1.7989814699861526,-0.4561690518163028,0.0
-0.11659825368935896,-0.2114043086865769,2.2135096922570083,0.128723345681276,-2.677027400392617,-0.565260446514509,0.0
-0.15668761941516635,-0.1419784211328108,2.082186455777993,0.9306901944328956,-1.8107484650180334,-0.7961055285339582,0.0
-0.1927679082191218,-0.048049264430482776,1.6347143780106674,1.2719987247362103,-1.2313614654710694,-0.15811584914452334,0.0
-0.17673230227806971,-0.14606230528145095,1.5228464862777402,1.0062964704136046,-1.3568766258871061,0.20324931560316756,0.0
0.003669562789521218,0.02137660525164355,1.542301831023828,1.2730787496542135,0.04004016876691666,-0.056816718139077176,0.0
-0.11258931711677835,0.04996374067720601,1.4547529499449714,0.8928871091369653,0.9158448182875599,0.062014951229998797,0.0
0.1519999352764663,-0.007210530173918794,1.3526125603065493,0.5634595906536253,0.678262452724591,0.5207831210767646,0.0
0.22015157631179727,-0.09297191857896647,1.5179826500912181,-0.3643377753896704,-0.8480918152284841,0.701952718817656,0.0
-0.03241086636370523,0.033628221954284734,0.6911322011678737,-2.204811315513429,-4.6908736416835675,0.33084725860906483,0.0
0.019705309079843976,0.033628221954284734,0.7203152182870054,-3.0991259067105035,-5.959473583832885,-0.10941434807998805,0.0
0.09186588668775555,-0.09297191857896647,0.8321831951592021,-2.978695751133753,-4.555272719844191,0.9513044441849343,0.0
-0.04042873950886677,-0.3216689662401864,0.7543619864533897,-2.7405359238306533,-2.040486003203623,4.254240251846527,0.0
0.1319552524135623,-0.4891078589016417,0.5403536199427705,-2.5801425277331167,-0.9349438513773758,3.9279404667665356,0.0
0.3845176950890654,-0.38701096964531245,0.9343234996583547,-2.0730402659645533,-1.400022493034392,1.3545529067385358,0.0
0.5809550257484384,-0.480940090604361,0.7932725908062961,-1.8262396069843378,-2.702802816570713,-0.05486865667089367,0.0
0.504785511567943,-0.550365978158127,0.8321831951592021,-1.6977089483560164,-3.0933568283135653,-0.8233784366085961,0.0
0.4446514629792352,-0.4115142030505949,0.798136426992818,-1.5092332181688213,-3.5875728066231263,-1.039613093256721,0.0
-0.052455549226608916,-0.38701096964531245,0.09774546350123597,-1.31319689200021,-3.826836132423319,-0.5623383424322165,0.0
-0.17673230227806971,-0.39517866645603383,-0.04816930282216251,-1.2554120810550387,-3.7136481595449546,-0.20486928874087515,0.0
-0.5936607233815694,-0.38701096964531245,-0.04816930282216251,-1.4827710268450158,-3.534340850006918,1.6107227640843362,0.0
-0.02840192979112462,-0.3829270854966723,-0.1989479053320829,-1.1301216025695764,-2.238844887970865,0.6055237593026943,0.0
0.7934283833966739,-0.43601743645587737,-0.15517346479265468,-0.6230193408010128,-3.2496904496421593,-1.4506538016830564,0.0
0.2281694494569585,-0.39517866645603383,-0.34486268263046527,-1.2872747131354059,-4.59057348624278,-2.23182585642377,0.0
0.21614263973921666,-0.16239780613273255,-1.2300790058233682,-2.9813960242064574,-7.886467570277888,-3.7513129462456423,0.0
0.42460706081487215,-0.23182369368649863,-0.2767691193590997,-2.0989623394405093,-5.292674136934182,-3.04708909377785,0.0
0.396544504806806,-0.39517866645603383,0.1463837402271862,2.196555805247799,0.6709780912243235,1.0155904488749548,0.0
0.6611337572000513,-0.47685620645572085,-0.6853305023130457,1.7450780938107036,-0.3146523014489324,2.6792337547019236,0.0
0.8655889610045855,-0.40334643475331444,-0.6464198766753221,-0.19530367935107837,-1.3893761017111506,3.055209309180887,0.0
0.16402674499420844,-0.2767463120917028,-0.4907774592636971,0.362562836187454,-0.9164527966995468,3.7321604436543185,0.0
-0.3330804075609057,-0.3706754330507514,-0.5880539701459628,0.6795692776973937,-0.3213763337577485,3.24709344695708,0.0
-0.4693839703301086,-0.2522430429431409,-0.8361090835381487,-0.6451611689806844,0.20029617132135608,0.7292255793722247,0.0
0.5328480675760092,-0.37475931719939154,-1.2495342654301866,-2.2982389511408274,-2.3083264731505673,-5.401319607955017,0.0
0.05979439410710972,-0.550365978158127,-1.0014791733228177,-0.5263512615586355,-3.451411364232375,-5.260085400992075,0.0
0.8455442781416812,-0.685133869117019,-1.2106236610772803,0.3409610468139959,-2.52909874427293,-1.4311731394811522,0.0
0.396544504806806,-0.5421982098608468,-1.5365000044600956,0.9431112187118719,-1.7844127469856172,-0.7327935902180812,0.0
0.1880800837311508,-0.4727723223070807,-1.755372207157237,0.34204112442642337,-0.6312419304576783,-1.779875975965754,0.0
0.4727140189873007,-0.3053334296456255,-1.8964232011485653,1.1985526039803562,-0.13534489623093418,-1.3620169930006905,0.0
0.4446514629792352,-0.3380044313481885,-1.4684064681273272,1.5571424814713584,0.2529677030661506,-1.3318220758838981,0.0
0.36046407565357985,-0.3625076647534708,-1.176576892910896,0.08227946822904741,1.094591825971277,-1.565589357025778,0.0
0.16402674499420844,-0.44418520475315776,-1.1522577971175554,-0.6132985369003173,1.3316138350056623,-0.8827942044680369,0.0
-0.02840192979112462,-0.3420883154968288,-1.2933087059696147,-1.616162113770896,0.44908518905618855,-0.7629885073348734,0.0
0.127946315840982,-0.23999142624049957,-1.0501174500487678,-2.4057079645907513,0.6401596303117659,-1.5626672529434857,0.0
0.43262493396003593,0.05813149110284674,-1.1182110289511713,-0.09917565867532376,2.0342746782028565,-0.771754819581751,0.0
0.48874976527762254,0.11530574408233188,-1.6970062580582426,0.2621144589543683,1.4414396687125242,-0.6198061201035773,0.0
0.4286159973874553,-0.1542300378354522,-1.4392235361474648,0.63960593178776,1.580402839071929,-0.6217541578117263,0.0
0.6932052497806981,-0.06846864943040452,-1.2689896101762743,1.313042095563847,1.6067386664528729,0.7487061465339905,0.0
0.45667827269697703,-0.7014693342250212,-1.040389777675724,0.022334472418407622,0.9550682444090248,5.462037696839321,0.0
-0.06448235894435107,-0.3502560837941091,-0.9431132667934584,-0.9486664559047961,-0.4524948680996975,3.2198203488021675,0.0
-0.2529019568078329,0.11122185993369162,-1.2592619378032306,-0.6424609486024039,-1.900962530989899,-1.045457301421306,0.0
-0.6337500891073767,-0.2685785437944225,-1.322491723088746,0.273995470774343,-2.6187525083904752,1.6418917475752717,0.0
0.19208902030373237,0.04996374067720601,-0.6172369234106424,-0.21150502796797493,0.13473689048181553,1.9116981539985287,0.0
0.1319552524135623,-0.3625076647534708,-0.71937727047943,-0.5306716247027694,0.33253537771477465,2.748389901182385,0.0
-0.2849733090392077,-0.3012495454969853,-0.15030964989095008,-0.778012243447563,0.4070600076289379,1.7763079651198974,0.0
-0.7981160675353739,-0.5952885608200514,-0.6026454574207113,0.997655849514185,2.676979833183476,3.0133260707750633,0.0
-0.2929911821843696,0.2868285108396297,-2.348758944823875,1.4134905254913568,2.8159430035428836,4.055538314732294,0.0
2.0402048504838617,0.19289937312591887,-1.4392235361474648,-0.13967903680436802,1.295752329358644,-2.154877559110712,0.0
2.1163746453628973,-1.3140506697629952,-0.5199604125283768,0.09254032410956269,0.14874528429089912,-2.9155949803155163,0.0
0.6891963132081168,-0.7913146425219881,-0.879883524077577,-0.2746903060169198,-0.951193589289398,-0.6441568765758537,0.0
0.3003303077634117,-0.5912047481579705,-1.069572752225221,-0.2509283087241826,-0.2625410852270238,-1.9074738239315134,0.0
0.17204461813937,-0.37475931719939154,-1.045253613862246,-0.2417475436297008,0.208701204873093,-3.3441682181954677,0.0
0.1800622105859902,-0.2604108112404213,-0.9479771029799803,-0.004667779118721653,0.8822246294063485,-3.05877751010702,0.0
-0.5575804345776139,0.17656387227463738,-0.923657964617005,-0.2066446260176271,2.442199140914899,-2.285397511158764,0.0
-0.0003393737830593917,-0.10522353528160779,-0.909066498627074,0.24915339586917845,4.641516668232568,2.007153047139347,0.0
1.4549015143797879,-0.7218887549682221,-0.53941571470483,0.19838915527281578,3.2104193469630293,0.7263034752899321,0.0
0.9577945021739427,-0.39517866645603383,-0.4810498081754705,0.13358374763162373,1.156228747796392,-0.9879894762298758,0.0
0.9577945021739427,-0.39517866645603383,-0.4810498081754705,-0.045711200994081935,1.1612717925308527,-1.073704085789811,0.0
0.15600887184904724,-0.109307419430248,-0.22813085859676255,-0.102955976426441,0.9175257785247832,-1.19058777388082,0.0
0.12393737926840138,-0.1256429202815293,-0.1405819988027235,-0.27577038362934725,-0.05913924457100099,-2.0720850536330695,0.0
0.12393737926840138,-0.1256429202815293,-0.1405819988027235,-0.42482280671312234,0.18404643340933388,-3.112349164842014,0.0
-0.1927679082191218,-0.1828171553893748,-0.2232670330526493,-0.4485848040058593,-0.23172262431446625,-4.898720366924575,0.0
0.9016693901578116,-0.06846864943040452,-0.38863711751611385,0.11468217863644649,-0.24909302060939184,-2.3204625700659975,0.0
0.9016693901578116,-0.06846864943040452,-0.38863711751611385,0.16652649684523654,-0.29167853122809434,-1.4477316976007637,0.0
1.1101335305349258,-0.07255253357904473,-0.5929178063324846,-0.027889715374784806,-0.08099232907180387,-2.627282168144775,0.0
0.540865940721173,0.041795990251565295,-0.6464198766753221,0.05527721833861891,0.4860673257489786,-1.9415649115047415,0.0
0.4646961458421376,0.17656387227463738,-0.6415560617736176,0.11144190627834598,0.4412404983644692,-0.3616881300094901,0.0
0.6771695034903756,0.24190588014767322,-0.3983647686043404,0.13898420156179125,-0.021036418741034388,-0.3636361914776736,0.0
0.520821257858268,0.17247999706181702,-0.35459033471641765,0.17786744351178538,-0.3762892232740475,-0.021751635471809,0.0
0.45667827269697703,0.3154156395633272,-0.471322157087244,0.24267285115297732,-0.19754214724750085,0.789615413605809,0.0
0.43663387053261593,0.24598975536049356,-0.5199604125283768,-0.051651697023864705,-0.8324024338450453,0.48182193923316374,0.0
0.5649195601566553,0.11530574408233188,-0.18435642869974306,0.16868667841730361,-2.6495708599545056,1.878581037759306,0.0
-0.08452704180725476,0.2745768840841911,-0.3205435532470225,0.007753256687159861,-2.0057453199623,2.362674063122539,0.0
1.0259461432092736,-0.08888803443032627,-0.8117899877448083,0.4673315765646736,-0.6990425554001575,0.41461383046085115,0.0
0.40857131452455037,-0.2154881570919376,-0.9333855944204146,-0.13967903680436802,-0.8912376823757701,-0.024673727674084215,0.0
0.2963213711908308,-0.11339130357888814,-0.8847473602640988,0.07039848275628494,0.4003360026572539,0.6746798582630873,0.0
0.20010689344889326,0.24190588014767322,-0.9479771029799803,0.13412379961144352,0.699555235371074,1.9448150801574753,0.0
0.22015157631179727,0.2133187491900207,-0.6853305023130457,0.03583559736362187,0.6037378228104278,3.0211184116879353,0.0
-0.04844661265402831,0.06221535737984724,-0.7339687364693611,-0.13967903680436802,0.8670956045514933,2.8915724309738886,0.0
0.3404193927906771,-0.2114043086865769,-1.054981243665655,-0.28765136910210964,1.6924699895445974,2.3480635427110768,0.0
0.396544504806806,-0.43193355230723707,-0.651283712861844,-0.03491030136725069,1.0761007712934478,1.8600744419315456,0.0
-0.26091968960372375,-0.09705580272760661,-0.2232670330526493,0.4613910706546863,1.43919824259819,2.93053356529742,0.0
0.3805087585164848,-0.17464942283537394,-0.7388325726558833,0.3582424730433201,1.8409589475186043,2.7386496176015025,0.0
-0.16069655598774693,-0.2114043086865769,0.36039206416817066,0.22215113939194692,-0.2860751846393136,0.7847452718153677,0.0
-0.22884833737234858,-0.13381065283553045,-0.1892202542438563,0.23565226763056257,0.034997147952446184,2.6159218163860465,0.0
0.7052317787998973,-0.4646045540098001,-0.626964574498869,0.6423061521660408,0.4871880388061456,0.771108865298118,0.0
0.43262493396003593,-0.3380044313481885,-0.5005051103519236,0.32313955543124606,0.3880085964225254,1.4159168073462638,0.0
0.697214186353278,-0.47685620645572085,-0.4567306804549041,0.29181693580988066,0.4771020040114875,-0.4746756476440631,0.0
0.49275870185020315,-0.415598087199235,-0.5102327614401502,0.2027095052433438,0.7146843149001929,-0.075323290206803,0.0
0.27627668832792707,-0.3420883154968288,-0.15517346479265468,0.1065814911543922,-0.23564498332889194,-1.276302383440755,0.0
0.12393737926840138,-0.2604108112404213,-0.13085434771449694,0.051496907174304676,-1.1601987560313527,-1.3824716265365997,0.0
-0.03641980293628616,-0.2889979287943442,-0.16003730097917665,-0.2644294369627984,-1.6213550660110752,-1.0961068520740076,0.0
-0.16069655598774693,-0.3910948537939526,-0.21353938196442274,-0.29629209539037765,-1.869023357020174,-3.025660393867797,0.0
-0.01637512007338247,0.2133187491900207,-0.8993388262540298,0.1470848758702395,0.8755006244346643,0.4029254854117846,0.0
1.102115657389766,-0.37475931719939154,-0.7728793408222676,0.051496907174304676,1.5350156551588363,-0.8009756703243996,0.0
0.8455442781416812,-0.39517866645603383,-0.4421392038225642,-0.16668129328159959,1.7115214554252736,-0.8750019585953028,0.0
0.49275870185020315,-0.21957204124057805,-0.13571816261620154,-0.18990322542091084,0.5818847383096248,-0.1279209201477139,0.0
0.6290622646194057,-0.20732042453793675,-0.3205435532470225,0.18866833819851422,0.43619748096714034,0.19837916193270885,0.0
0.6290622646194057,-0.20732042453793675,-0.3205435532470225,0.19838915527281578,1.0525666718811582,0.24415858267498616,0.0
0.48874976527762254,-0.17464942283537394,-0.3837732893113984,0.21675067228817324,1.8785013587285824,-0.16298600281498207,0.0
0.07583014039743248,-0.23590754209185935,-0.12599051152797497,0.14546474627799227,1.6381174292197502,-0.2633110852663106,0.0
0.32037470992777345,-0.23182369368649863,-0.1940840797879696,0.016393976388624863,1.1130829899976333,-0.6753258125467204,0.0
0.32037470992777345,-0.23182369368649863,-0.1940840797879696,-0.01006822975548766,0.8755006244346643,-0.7055207771835815,0.0
0.4767229555598807,-0.048049264430482776,0.04910722934492037,-0.061912552904379956,0.12353018363568824,-0.23993437140814333,0.0
0.36046407565357985,-0.17464942283537394,-0.05303313900868443,-0.09755552249627349,0.10391843640354101,-0.31980484408359716,0.0
0.36046407565357985,-0.17464942283537394,-0.05303313900868443,-0.012228409680853912,0.20533918871868512,-0.2438304943445103,0.0
0.3444283293632587,-0.1828171553893748,-0.05303313900868443,0.0817394294228337,0.032755805558078284,-0.19902510433632473,0.0
0.3644730122261598,-0.1705655386867334,-0.04330548792045788,0.09740072605991046,-0.1252588477677103,0.012339417203868516,0.0
0.396544504806806,-0.06846864943040452,-0.009258698469256215,-0.026269580430760112,-0.4160730605983594,0.10584630753408832,0.0
0.6410890743371495,-0.09297191857896647,0.03451572078535476,-0.09701547710325675,-1.4823917863031428,-0.13279106193815535,0.0
0.765365827388609,-0.20323654038929653,0.13179227423725484,-0.08837475740179175,-2.0634599101101205,-0.04512835526998489,0.0
0.540865940721173,-0.21957204124057805,0.126928438050733,0.6045030141756862,-1.6364840908659304,-0.30422035233812933,0.0
0.1439820621313054,-0.4196819713478755,-1.6289127217254742,0.13412379961144352,0.549945619014164,-1.6746806091637771,0.0
0.2321783860295391,-0.039881531876481885,-1.83319333072378,0.4187275307139841,6.170112416974242,0.22175588767089338,0.0
-0.04844661265402831,-0.03171376357920125,0.87595763569863,-0.2811708243859087,-0.4833133290122551,-0.12889495088180564,0.0
-0.08853597837983569,0.0009572202517216833,0.1707028785901613,-0.11267678691393952,0.3711985293190515,-0.1707782368076987,0.0
0.4406425264066552,-0.09297191857896647,-0.11139904553804382,-0.09053493897385875,0.5768417482494278,-0.0782453764690696,0.0
0.4486603995518158,-0.17464942283537394,-0.10653520935152185,0.04879668020922092,0.44572318657034665,0.009417327229096528,0.0
0.2401962591747003,-0.007210530173918794,0.019924254795423434,0.012073616537892365,-0.10900910985568806,-0.023699696939992486,0.0
0.504785511567943,-0.10522353528160779,-0.13085434771449694,0.037995778935688895,0.2989152435078269,-0.10357016367543762,0.0
0.1519999352764663,0.06221535737984724,0.010196603707196788,-0.2417475436297008,-0.13254320926797789,0.06688510193045318,0.0
0.5328480675760092,-0.06030091687640363,-0.04816930282216251,-0.06299264369041348,0.20589951791013686,-0.058764779607260655,0.0
0.5809550257484384,-0.2154881570919376,-0.09194374336159067,-0.1483197630926361,-0.010950375403522694,-0.21460959608179256,0.0
0.3083479002100313,-0.14606230528145095,-0.02871400064570936,0.013153707323925875,-0.07819065577741353,-0.09772597927088719,0.0
0.45667827269697703,-0.03579764772784171,-0.04330548792045788,0.09092019451731546,0.059091581681899964,0.16721020220180763,0.0
0.5248301944308487,-0.027629915173840496,-0.0968075582632953,-0.006287913651071152,0.14930562715091672,0.030845988529093267,0.0
0.23618732260212003,-0.13381065283553045,0.005332788805492304,-0.04355102106871568,-0.10956945271570565,-0.003245063404083166,0.0
0.32438364650035434,-0.11747515198424885,-0.07248844118513757,0.03313537369193964,0.03331614158381294,0.03279404851227459,0.0
0.43663387053261593,-0.13381065283553045,-0.08707990717506875,-0.02518949046807699,0.11736648735260696,0.006495236511823462,0.0
0.4446514629792352,-0.0766364177276852,-0.06276079009691103,-0.027889715374784806,0.08262568109418979,0.03182001852068393,0.0
0.4967676384227831,0.0009572202517216833,0.19502197438350147,0.025574741483106626,0.38856895295110894,0.37857472893950844,0.0
0.4646961458421376,-0.048049264430482776,-0.009258698469256215,0.036915688149655373,0.19525314025546117,0.12337884292771378,0.0
0.4205981242422909,-0.09705580272760661,-0.04330548792045788,-0.06245259829739672,0.14034025073916215,0.015261507178640506,0.0
0.37249088537132424,-0.0766364177276852,0.0004689526189703352,-0.09917565867532376,0.07422064412531136,-0.01980357697362984,0.0
0.5007765749953631,-0.12155903613288907,-0.2524499916385333,-0.019248995055807013,0.32637167459741045,-0.16298600281498207,0.0
0.39253556823422603,0.05404760695420652,0.19502197438350147,-0.05273178780989821,-0.7326626896071053,0.06883316339863665,0.0
0.39253556823422603,-0.003126646025278618,-0.04816930282216251,-0.10727633298377202,-0.09780240300956075,-0.01688148477135459,0.0
0.40857131452455037,-0.06438476528176434,-0.04330548792045788,-0.012228409680853912,0.25576940369767265,-0.08895971454407875,0.0
0.37649982194390486,-0.07255253357904473,-0.06762460499861561,0.025034696090089886,0.2977945577877916,-0.026621786172263375,0.0
0.3564551390809999,-0.0766364177276852,0.03451572078535476,-0.09107498436687551,-0.08155266509753854,0.40000338132949237,0.0
0.4286159973874553,-0.11747515198424885,0.07829016132478273,-0.03167003065585093,-0.0423291706332441,0.009417327229096528,0.0
0.3484372659358393,-0.08480415028168604,0.015060439893719047,-0.09647543171023999,-0.08659568932915047,-0.01980357697362984,0.0
0.520821257858268,-0.09297191857896647,-0.09194374336159067,-0.18180255111246257,0.3594314796129065,-0.14058330781088926,0.0
0.4967676384227831,-0.06846864943040452,0.005332788805492304,0.0066731659011263576,0.3571901355099678,0.13798929205907265,0.0
0.32438364650035434,-0.043965416025122064,0.08801783369782686,0.015853930995608122,0.2669760968752341,0.1642881099995324,0.0
0.26825881518276584,-0.0766364177276852,-0.05789695391038906,0.10712154313421199,0.1924514669610708,0.16136601779725718,0.0
0.36046407565357985,-0.1419784211328108,-0.014122513370960892,-0.09647543171023999,-0.3124109573459939,-0.334415293214956,0.0
0.30433924433599197,-0.027629915173840496,0.05883485914832987,-0.22824642856469116,-0.761239833753856,0.1779245283967995,0.0
0.6170354549016646,-0.1256429202815293,-0.12599051152797497,0.024494653990474635,0.18404643340933388,-0.13668718487452233,0.0
0.6571248206274712,-0.1378945369841706,-0.03357783683223133,0.20865001115333104,1.0800231029707417,-0.220453780486343,0.0
0.17605327401340864,-0.1419784211328108,0.19988581057002366,0.22053099662609357,0.09943574819766371,-0.1814925748827079,0.0
0.16803568156678905,-0.08480415028168604,0.04910722934492037,0.01747406717465837,-0.35555679715614796,0.05227464982909,0.0
0.520821257858268,0.009124970677362568,-0.05789695391038906,-0.06893313642679473,-0.09500072288088744,0.17110632513817461,0.0
0.49275870185020315,-0.048049264430482776,-0.05789695391038906,0.0023528060503938573,0.3095616074939366,0.10682033232817145,0.0
0.6250533280468258,-0.039881531876481885,-0.04330548792045788,0.07363874852758243,0.971317982321047,-0.0090892448386293,0.0
0.5007765749953631,-0.09297191857896647,0.04910722934492037,-0.07919399230730999,1.58432528009775,-0.12889495088180564,0.0
0.10389269640549738,-0.06846864943040452,0.24852408729597392,-0.6354403650799889,0.2680967825952693,0.030845988529093267,0.0
0.25623200546502406,0.041795990251565295,0.11720076567768917,-0.14723967230660256,-0.37180653506817013,0.10195018459772134,0.0
0.25623200546502406,0.041795990251565295,0.11720076567768917,-0.20340435365952667,-0.42952109787885956,0.06006688976181531,0.0
0.4165891876697109,-0.048049264430482776,0.1074731358742801,-0.05759219305364747,-0.3768495524654992,0.02500180820829875,0.0
0.4446514629792352,-0.09297191857896647,0.04910722934492037,-0.030589940693167807,-0.5645620185723662,0.045456440630456445,0.0
0.4446514629792352,-0.09297191857896647,0.04910722934492037,0.04177609668680615,-0.44689152151091693,0.22272990652496788,0.0
0.30433924433599197,-0.09297191857896647,0.05883485914832987,-0.001967553800338643,-0.40206466678927594,0.1691582636699911,0.0
0.4286159973874553,0.013208854826002826,-0.2524499916385333,-0.02518949046807699,-0.29560089024251984,0.28604186860087927,0.0
0.4286159973874553,0.013208854826002826,-0.2524499916385333,0.026114786876123373,-0.3079282691401165,0.2772756038740709,0.0
0.4286159973874553,0.013208854826002826,-0.2524499916385333,0.1254830733231755,0.07982400096551648,0.00162508581136907,0.0
0.48874976527762254,-0.16648165453809327,-0.06762460499861561,0.2869565338595328,0.27426045837550167,0.0006510565622794851,0.0
0.4286159973874553,-0.09297191857896647,0.05397102296180766,0.48893339228534366,0.5297735494248481,0.06591107119636144,0.0
0.4446514629792352,-0.056217032727763454,0.03451572078535476,0.6423061521660408,0.463653912056724,0.14285944572953135,0.0
0.5128033847131075,-0.0766364177276852,0.07342632513826086,0.5818211208425886,0.39585331445137656,0.08539167399817903,0.0
0.4446514629792352,-0.043965416025122064,0.09774546350123597,0.2783158075712648,0.28322583478725627,-0.07921940720316134,0.0
0.46870508241471753,-0.0766364177276852,0.1852943445800923,-0.041390841143349434,0.478222662394391,-0.087985683809987,0.0
0.20010689344889326,0.009124970677362568,0.24852408729597392,-0.2989923157686585,0.4126633815548504,-0.21850571901815952,0.0
0.15600887184904724,0.04996374067720601,0.1707028785901613,-0.6818842293586116,-0.45977922959996537,-0.18344063635089136,0.0
0.15600887184904724,0.04996374067720601,0.1707028785901613,-0.5744152686031112,-1.8213948563412758,0.2324702138658853,0.0
0.37249088537132424,-0.048049264430482776,0.19988581057002366,-0.27901064281384164,-0.7696448536370271,-0.03149193687271778,0.0
0.5368570041485924,-0.0807202661330459,-0.05303313900868443,-0.03599039050658344,0.20589951791013686,0.06688510193045318,0.0
0.396544504806806,-0.06846864943040452,0.07342632513826086,-0.05867228383968097,0.007540700631440564,0.053248680563181744,0.0
0.396544504806806,-0.06846864943040452,0.07342632513826086,-0.07271345417791199,0.008101036657175226,0.02792389855432128,0.0
0.37249088537132424,-0.052133148579122955,0.06856253152137362,-0.061912552904379956,0.013704393070237674,0.021105687777872927,0.0
0.396544504806806,-0.06846864943040452,0.024788090981945305,-0.04787138256614896,0.002497680671255466,0.03279404851227459,0.0
0.396544504806806,-0.06846864943040452,0.024788090981945305,-0.02896980533746793,0.00978204388009384,0.025975838199889415,0.0
0.40456237795196975,-0.06846864943040452,0.024788090981945305,-0.023569355318214705,0.020428421107626757,0.030845988529093267,0.0
0.40456237795196975,-0.06846864943040452,0.029651927168467516,-0.026809625412101676,0.009221707854359181,0.030845988529093267,5.0
0.4165891876697109,-0.06846864943040452,0.015060439893719047,-0.022489265201153383,0.013144057471645697,0.04156031917909164,5.0
0.40456237795196975,-0.06846864943040452,0.024788090981945305,-0.0003474192679891553,0.018747414098279486,-0.0012970049059039964,5.0
0.39253556823422603,-0.06846864943040452,0.03937955697187663,-0.001967553800338643,0.013704393070237674,0.00162508581136907,5.0
0.396544504806806,-0.0766364177276852,0.03937955697187663,-0.002507599193355407,0.014264728882400992,0.006495236511823462,5.0
0.396544504806806,-0.0807202661330459,0.024788090981945305,-0.005747869904755156,0.011463050675869769,0.054222711297273504,5.0
0.4005534413793866,-0.06846864943040452,0.015060439893719047,-0.004127733725704894,0.010342379051543131,0.023053747946679522,5.0
0.39253556823422603,-0.06438476528176434,0.0004689526189703352,0.0023528060503938573,-0.010390039377788042,0.03571613922954765,5.0
0.40456237795196975,-0.0766364177276852,0.005332788805492304,-0.004667779118721653,0.0052993582370726615,0.023053747946679522,5.0
0.4005534413793866,-0.039881531876481885,-0.009258698469256215,0.007213211294143103,0.0237904351263213,0.03279404851227459,5.0
0.4005534413793866,-0.052133148579122955,-0.009258698469256215,-0.01600872496192004,0.012023386274461745,0.023053747946679522,5.0
0.40857131452455037,-0.056217032727763454,0.010196603707196788,-0.027889715374784806,0.0013770086197861437,0.04740449912863561,5.0
0.4005534413793866,-0.056217032727763454,0.010196603707196788,-0.032210076048867685,-0.001424669800316428,0.03474210849545592,5.0
0.39253556823422603,-0.056217032727763454,-0.004394862282734294,-0.038150570431949686,0.018747414098279486,0.02792389855432128,5.0
0.4005534413793866,-0.056217032727763454,0.0004689526189703352,-0.030589940693167807,0.021549092304810707,0.04740449912863561,5.0
0.4005534413793866,-0.06030091687640363,0.005332788805492304,-0.04517115724776596,0.015385400079584943,0.009417327229096528,5.0
0.40456237795196975,-0.056217032727763454,0.005332788805492304,-0.03491030136725069,0.03163513350660896,0.014287477187049842,5.0
0.40456237795196975,-0.06846864943040452,0.015060439893719047,-0.02896980533746793,0.03891949671544734,0.03182001852068393,5.0
0.396544504806806,-0.0766364177276852,0.010196603707196788,-0.02734967039344324,0.008661372682909889,-0.007141183370445818,5.0
0.40456237795196975,-0.06846864943040452,0.015060439893719047,-0.0208691301027505,0.01818707839290184,-0.007141183370445818,5.0
0.40456237795196975,-0.06846864943040452,0.015060439893719047,0.0023528060503938573,0.026592113546423865,0.01720956753307237,5.0
0.40456237795196975,-0.06030091687640363,0.029651927168467516,0.0012727169110611156,0.023230099100586637,0.02889792854591194,5.0
0.4005534413793866,-0.06846864943040452,-0.004394862282734294,-0.0030476445863721496,0.013144057471645697,0.0006510565622794851,5.0
0.4005534413793866,-0.06846864943040452,0.015060439893719047,0.0007326715180443545,-0.0031056761689496584,0.06104092049590704,5.0
0.3885266316616454,-0.06846864943040452,0.015060439893719047,0.005593076761793612,0.01258372187305372,0.016235537170231167,5.0
0.4005534413793866,-0.0766364177276852,0.010196603707196788,0.00019262612502760575,-0.0003039977488470994,0.007469267245915203,5.0
0.4005534413793866,-0.0766364177276852,0.010196603707196788,-0.0030476445863721496,0.010902715077277792,0.010391356478186113,5.0
0.40456237795196975,-0.056217032727763454,-0.009258698469256215,0.0007326715180443545,0.019307749696871462,0.042534349913183375,5.0
0.39253556823422603,-0.056217032727763454,0.0004689526189703352,0.003432896836427364,0.0008166725940514825,0.016235537170231167,5.0
0.4005534413793866,-0.06438476528176434,-0.009258698469256215,0.009913438259226862,-0.0008643337745817606,0.03279404851227459,5.0
0.3885266316616454,-0.0766364177276852,-0.05789695391038906,-0.006287913651071152,-0.004786682537582911,0.0493525605968191,5.0
0.4005534413793866,-0.07255253357904473,-0.009258698469256215,0.018554157960691882,-0.02215708737536223,0.03766419921272898,5.0
0.4005534413793866,-0.07255253357904473,0.015060439893719047,0.028815013841207136,0.020428421107626757,0.03766419921272898,5.0
0.396544504806806,-0.06846864943040452,0.024788090981945305,0.021254381632374128,0.0052993582370726615,0.04837852986272735,5.0
0.4005534413793866,-0.056217032727763454,0.029651927168467516,0.014233798109959377,-0.001424669800316428,0.03571613922954765,5.0
0.4005534413793866,-0.052133148579122955,0.0442433931583985,0.025574741483106626,0.005859694262807321,0.04740449912863561,5.0
0.40456237795196975,-0.043965416025122064,0.03937955697187663,0.01261366193090911,0.009221707854359181,0.02792389855432128,5.0
0.4005534413793866,-0.048049264430482776,0.03937955697187663,0.0066731659011263576,0.00978204388009384,0.044482409896364705,5.0
0.40456237795196975,-0.039881531876481885,0.015060439893719047,-0.008448094399787782,0.00025633827688756176,0.018183597524663035,5.0
0.40857131452455037,-0.048049264430482776,0.010196603707196788,-0.018708949868627856,0.021549092304810707,0.01331344719545918,5.0
0.39253556823422603,-0.048049264430482776,0.024788090981945305,-0.016548769943261602,0.017626742740917026,0.00454717652864214,5.0
0.3885266316616454,-0.056217032727763454,0.010196603707196788,-0.023569355318214705,0.0030580158427047587,-0.0061671556063583885,5.0
0.3885266316616454,-0.048049264430482776,0.010196603707196788,-0.02734967039344324,-0.0019850058260510862,0.05227464982909,5.0
0.40857131452455037,-0.06846864943040452,0.019924254795423434,-0.013848545036553788,0.015385400079584943,0.04837852986272735,5.0
0.4005534413793866,-0.06846864943040452,0.03937955697187663,-0.012228409680853912,0.010902715077277792,0.03863822994682073,5.0
0.396544504806806,-0.056217032727763454,0.03937955697187663,-0.013848545036553788,-0.0008643337745817606,0.07272928039499502,5.0
0.3885266316616454,-0.06846864943040452,0.024788090981945305,-0.014388589606220166,0.0008166725940514825,0.042534349913183375,5.0
0.39253556823422603,-0.056217032727763454,0.03451572078535476,-0.02518949046807699,0.00025633827688756176,0.05130061909499826,5.0
0.40456237795196975,-0.056217032727763454,0.024788090981945305,-0.030049895300151057,-0.0003039977488470994,0.06591107119636144,5.0
0.40857131452455037,-0.048049264430482776,-0.009258698469256215,-0.02734967039344324,0.0008166725940514825,0.05227464982909,5.0
0.396544504806806,-0.056217032727763454,-0.009258698469256215,-0.03869061582496644,-0.004226348220418987,0.07565137259727021,5.0
0.3885266316616454,-0.07255253357904473,0.029651927168467516,-0.03167003065585093,0.0036183510141540483,0.059092861997727876,5.0
0.40857131452455037,-0.0807202661330459,0.029651927168467516,-0.03167003065585093,0.013144057471645697,0.019157627516253696,5.0
0.40456237795196975,-0.06846864943040452,0.019924254795423434,-0.01762885990594473,0.013704393070237674,0.00454717652864214,5.0
0.396544504806806,-0.08480415028168604,-0.009258698469256215,-0.017088814924603166,0.004178687039888709,0.033768079246366337,5.0
0.40857131452455037,-0.06846864943040452,0.019924254795423434,-0.026809625412101676,0.02266976350199466,0.00162508581136907,5.0
0.40857131452455037,-0.0807202661330459,0.0442433931583985,-0.024109400299556268,0.018747414098279486,0.023053747946679522,5.0
0.396544504806806,-0.07255253357904473,0.010196603707196788,-0.019789040037148577,-0.0036660121946843326,0.03182001852068393,5.0
0.39253556823422603,-0.06846864943040452,0.010196603707196788,-0.019789040037148577,0.019307749696871462,0.0025991165454608083,5.0
0.40857131452455037,-0.06438476528176434,0.024788090981945305,-0.018168904887286293,0.027712784743607815,0.021105687777872927,5.0
0.3805087585164848,-0.06030091687640363,0.005332788805492304,-0.012768454250520284,-0.004786682537582911,0.02402777803108282,5.0
0.3885266316616454,-0.06030091687640363,-0.004394862282734294,-0.022489265201153383,-0.0008643337745817606,0.025975838199889415,5.0
0.40456237795196975,-0.06438476528176434,0.005332788805492304,-0.015468679568903288,-0.005347018563317563,0.042534349913183375,5.0
0.40456237795196975,-0.08480415028168604,0.005332788805492304,0.007213211294143103,-0.0003039977488470994,0.054222711297273504,5.0
0.4125802510971303,-0.0766364177276852,0.029651927168467516,0.005053031368776851,0.00978204388009384,0.0493525605968191,5.0
0.40456237795196975,-0.06846864943040452,0.0004689526189703352,0.03745573354267214,0.023230099100586637,0.04058628993000205,5.0
0.40456237795196975,-0.06846864943040452,0.0004689526189703352,0.015313885602591358,0.0069803654599912765,0.023053747946679522,5.0
0.4005534413793866,-0.07255253357904473,0.024788090981945305,0.007213211294143103,0.0237904351263213,0.010391356478186113,5.0
0.40456237795196975,-0.06438476528176434,-0.004394862282734294,-0.008988138969454156,0.015385400079584943,0.03279404851227459,5.0
0.4005534413793866,-0.052133148579122955,0.0004689526189703352,-0.018168904887286293,0.013704393070237674,0.015261507178640506,5.0
0.39253556823422603,-0.043965416025122064,0.005332788805492304,-0.021409175135551458,0.013144057471645697,0.03571613922954765,5.0
0.396544504806806,-0.056217032727763454,0.015060439893719047,-0.019248995055807013,0.010342379051543131,0.03863822994682073,5.0
0.396544504806806,-0.056217032727763454,0.015060439893719047,-0.023029310233954343,0.0069803654599912765,0.06006688976181531,5.0
0.396544504806806,-0.056217032727763454,0.015060439893719047,-0.015468679568903288,0.014825064480992968,0.039612259195910306,5.0
0.4005534413793866,-0.09297191857896647,0.015060439893719047,-0.011688364287837158,0.002497680671255466,0.054222711297273504,5.0
0.39253556823422603,-0.08480415028168604,0.015060439893719047,-0.026269580430760112,0.021549092304810707,0.03766419921272898,5.0
0.4005534413793866,-0.0766364177276852,0.0004689526189703352,-0.011148319718170784,0.005859694262807321,0.06785913266454494,5.0
0.39253556823422603,-0.06030091687640363,0.024788090981945305,-0.005207824511738404,0.0008166725940514825,0.054222711297273504,5.0
0.396544504806806,-0.056217032727763454,-0.009258698469256215,-0.018708949868627856,0.007540700631440564,0.06396301269818229,5.0
0.42460706081487215,-0.07255253357904473,0.03937955697187663,-0.03167003065585093,0.008661372682909889,0.06396301269818229,5.0
0.396544504806806,-0.056217032727763454,0.010196603707196788,-0.026809625412101676,0.02547144149495454,0.033768079246366337,5.0
0.396544504806806,-0.056217032727763454,0.010196603707196788,-0.030589940693167807,0.01594573578496259,0.03863822994682073,5.0
0.3885266316616454,-0.056217032727763454,0.010196603707196788,-0.03491030136725069,0.006420029434256614,0.05130061909499826,5.0
0.396544504806806,-0.06846864943040452,0.010196603707196788,-0.02896980533746793,0.0052993582370726615,0.039612259195910306,5.0
0.4005534413793866,-0.07255253357904473,0.015060439893719047,-0.024109400299556268,0.019307749696871462,0.02792389855432128,5.0
0.4005534413793866,-0.06030091687640363,0.005332788805492304,-0.026809625412101676,0.00978204388009384,0.04740449912863561,5.0
0.40456237795196975,-0.06438476528176434,0.015060439893719047,-0.010608274325154033,0.022109427903402683,0.007469267245915203,5.0
0.39253556823422603,-0.056217032727763454,0.03451572078535476,-0.039230661217983194,0.01258372187305372,0.039612259195910306,5.0
0.40456237795196975,-0.0766364177276852,-0.004394862282734294,-0.03869061582496644,0.009221707854359181,0.053248680563181744,5.0
0.40857131452455037,-0.08480415028168604,0.019924254795423434,-0.0073680044371046555,0.01818707839290184,0.062014951229998797,5.0
0.4165891876697109,-0.08480415028168604,0.015060439893719047,0.010453480358842115,0.027712784743607815,0.019157627516253696,5.0
0.4005534413793866,-0.08480415028168604,-0.009258698469256215,-0.01006822975548766,0.024911106323505246,0.056170769795452664,5.0
0.4005534413793866,-0.06030091687640363,-0.023850164459187344,-0.0003474192679891553,0.020988756706218734,0.021105687777872927,5.0
0.40456237795196975,-0.0766364177276852,-0.02871400064570936,-0.012228409680853912,0.024911106323505246,0.00454717652864214,5.0
0.3885266316616454,-0.056217032727763454,-0.009258698469256215,-0.008988138969454156,0.021549092304810707,0.04156031917909164,5.0
0.3885266316616454,-0.056217032727763454,-0.009258698469256215,-0.023029310233954343,0.01258372187305372,0.03182001852068393,5.0
0.4165891876697109,-0.0766364177276852,-0.009258698469256215,-0.009528184362470908,0.006420029434256614,0.03571613922954765,5.0
0.40857131452455037,-0.0766364177276852,-0.009258698469256215,-0.006827959044087904,0.015385400079584943,0.025975838199889415,5.0
0.40456237795196975,-0.06846864943040452,0.015060439893719047,-0.0073680044371046555,0.030514463163710377,0.03279404851227459,5.0
0.40857131452455037,-0.06030091687640363,0.005332788805492304,-0.009528184362470908,0.019307749696871462,0.015261507178640506,5.0
0.39253556823422603,-0.056217032727763454,0.005332788805492304,-0.006287913651071152,0.01818707839290184,0.026949868191480077,5.0
0.4005534413793866,-0.06438476528176434,-0.009258698469256215,-0.009528184362470908,0.016506071436947403,0.023053747946679522,5.0
0.4005534413793866,-0.06846864943040452,-0.02871400064570936,-0.017088814924603166,0.021549092304810707,0.011365387212277854,5.0
0.396544504806806,-0.06846864943040452,0.005332788805492304,-0.02518949046807699,0.014825064480992968,0.012339417203868516,5.0
0.4005534413793866,-0.0807202661330459,0.019924254795423434,-0.02572953544941855,0.020428421107626757,0.03863822994682073,5.0
0.4005534413793866,-0.0807202661330459,0.019924254795423434,-0.01762885990594473,0.011463050675869769,0.02013165769346963,5.0
0.3885266316616454,-0.07255253357904473,0.0004689526189703352,-0.0035876883326881456,0.02547144149495454,0.014287477187049842,5.0
0.4005534413793866,-0.08888803443032627,0.005332788805492304,0.0066731659011263576,0.00025633827688756176,0.033768079246366337,5.0
0.4005534413793866,-0.08888803443032627,0.005332788805492304,-0.0008874646610058979,0.0030580158427047587,0.03474210849545592,5.0
0.4005534413793866,-0.07255253357904473,-0.004394862282734294,0.003432896836427364,0.002497680671255466,0.030845988529093267,5.0
0.396544504806806,-0.07255253357904473,0.0004689526189703352,0.01369375271694262,0.022109427903402683,0.02792389855432128,5.0
0.396544504806806,-0.07255253357904473,0.0004689526189703352,0.015853930995608122,0.010342379051543131,0.03279404851227459,5.0
0.396544504806806,-0.07255253357904473,0.0004689526189703352,0.003432896836427364,0.008101036657175226,0.03669016847863724,5.0
0.396544504806806,-0.07255253357904473,0.0004689526189703352,0.010453480358842115,0.006420029434256614,0.030845988529093267,5.0
0.4125802510971303,-0.08480415028168604,-0.014122513370960892,0.003432896836427364,0.013704393070237674,0.03766419921272898,5.0
0.40857131452455037,-0.07255253357904473,0.010196603707196788,0.006133120508109612,0.017626742740917026,0.007469267245915203,5.0
0.4005534413793866,-0.052133148579122955,0.010196603707196788,0.0023528060503938573,0.012023386274461745,-0.011037306306812785,5.0
0.396544504806806,-0.06030091687640363,0.005332788805492304,-0.002507599193355407,0.01594573578496259,-0.0012970049059039964,5.0
0.4005534413793866,-0.06846864943040452,-0.02871400064570936,-0.0003474192679891553,0.013144057471645697,-0.02272566620590073,5.0
0.4005534413793866,-0.09705580272760661,-0.018986349557482813,0.006133120508109612,0.007540700631440564,0.026949868191480077,5.0
0.4005534413793866,-0.0766364177276852,-0.03357783683223133,0.015853930995608122,0.014825064480992968,0.03669016847863724,5.0
0.4005534413793866,-0.06030091687640363,-0.009258698469256215,0.02341456320444113,0.0052993582370726615,0.044482409896364705,5.0
0.3805087585164848,-0.0807202661330459,0.019924254795423434,0.051496907174304676,0.01986808529546344,-0.0061671556063583885,5.0
0.4005534413793866,-0.06846864943040452,0.005332788805492304,0.04609645324413715,0.02435077029777059,0.02889792854591194,5.0
0.396544504806806,-0.06030091687640363,0.015060439893719047,0.05527721833861891,0.023230099100586637,-0.008115214104537558,5.0
0.40857131452455037,-0.052133148579122955,-0.009258698469256215,0.03421546118457163,0.021549092304810707,0.010391356478186113,5.0
0.40857131452455037,-0.056217032727763454,-0.03357783683223133,0.03367541579155488,0.016506071436947403,0.01720956753307237,5.0
0.4125802510971303,-0.06846864943040452,-0.018986349557482813,0.015853930995608122,0.02435077029777059,0.021105687777872927,5.0
0.4005534413793866,-0.048049264430482776,0.024788090981945305,0.008833347473193372,0.02435077029777059,0.02402777803108282,5.0
0.3845176950890654,-0.06438476528176434,0.005332788805492304,0.01261366193090911,0.008661372682909889,0.025975838199889415,5.0
0.3845176950890654,-0.06438476528176434,0.005332788805492304,0.01261366193090911,0.014825064480992968,0.021105687777872927,5.0
0.396544504806806,-0.056217032727763454,-0.04330548792045788,0.011533571144875625,0.023230099100586637,0.018183597524663035,5.0
0.396544504806806,-0.056217032727763454,-0.04330548792045788,0.003432896836427364,0.020428421107626757,0.012339417203868516,5.0
0.4125802510971303,-0.0766364177276852,-0.07735225608684211,0.02719487766215688,0.017626742740917026,0.0035731457945503958,5.0
0.40857131452455037,-0.09297191857896647,-0.05789695391038906,0.036915688149655373,0.02547144149495454,0.02013165769346963,5.0
0.3805087585164848,-0.0766364177276852,-0.05303313900868443,0.05797744530370268,0.00978204388009384,0.018183597524663035,5.0
0.3885266316616454,-0.08480415028168604,-0.023850164459187344,0.07795911167171643,0.01986808529546344,0.011365387212277854,5.0
0.4005534413793866,-0.06846864943040452,-0.004394862282734294,0.0817394294228337,0.0030580158427047587,0.010391356478186113,5.0
0.39253556823422603,-0.048049264430482776,-0.018986349557482813,0.08281951362206418,-0.006467690614786891,0.02792389855432128,5.0
0.396544504806806,-0.056217032727763454,-0.03357783683223133,0.06607811961215093,-0.0036660121946843326,0.03571613922954765,5.0
0.39253556823422603,-0.048049264430482776,-0.03357783683223133,0.0541971275525854,-0.008148696983420137,0.009417327229096528,5.0
0.4125802510971303,-0.03171376357920125,-0.004394862282734294,0.06337789264706717,-0.021596751349627553,0.026949868191480077,5.0
0.40456237795196975,-0.052133148579122955,0.03451572078535476,0.03313537369193964,-0.02327775942683155,0.044482409896364705,5.0
0.40857131452455037,-0.043965416025122064,-0.009258698469256215,0.021794427025390875,-0.032803465030037816,0.062014951229998797,5.0
0.4005534413793866,-0.03579764772784171,-0.009258698469256215,-0.0008874646610058979,-0.028881116267036665,0.053248680563181744,5.0
0.4125802510971303,-0.056217032727763454,-0.009258698469256215,-0.01006822975548766,-0.010950375403522694,0.04643046987954602,5.0
0.4005534413793866,-0.0766364177276852,-0.009258698469256215,0.0012727169110611156,-0.008148696983420137,0.01331344719545918,5.0
0.40456237795196975,-0.08480415028168604,-0.009258698469256215,0.01477384350297613,0.019307749696871462,0.005521205777731719,5.0
0.40456237795196975,-0.07255253357904473,0.029651927168467516,0.019634248746725372,0.028833455940791765,-0.004219094138174907,5.0
0.39253556823422603,-0.048049264430482776,0.0004689526189703352,0.008293302080176607,-0.005907354589052233,-0.020777604737717236,5.0
0.40857131452455037,-0.03579764772784171,0.0004689526189703352,0.01369375271694262,0.002497680671255466,0.0025991165454608083,5.0
0.39253556823422603,-0.048049264430482776,-0.014122513370960892,-0.0003474192679891553,-0.011510711429257364,-0.0003229741718122556,5.0
0.396544504806806,-0.056217032727763454,0.024788090981945305,0.01369375271694262,0.006420029434256614,-0.023699696939992486,5.0
0.4125802510971303,-0.06030091687640363,0.010196603707196788,0.005593076761793612,0.011463050675869769,-0.008115214104537558,5.0
0.40857131452455037,-0.052133148579122955,0.0004689526189703352,0.009913438259226862,0.034436811926711525,0.007469267245915203,5.0
0.3885266316616454,-0.06030091687640363,-0.009258698469256215,0.005053031368776851,0.007540700631440564,0.02889792854591194,5.0
0.4005534413793866,-0.048049264430482776,0.03937955697187663,0.010453480358842115,-0.01543306190082925,0.05811883126363616,5.0
0.4005534413793866,-0.06030091687640363,0.024788090981945305,0.008833347473193372,-0.005907354589052233,0.053248680563181744,5.0
0.39253556823422603,-0.06846864943040452,0.024788090981945305,0.022334472418407622,-0.004226348220418987,0.04350837916227296,5.0
0.40857131452455037,-0.07255253357904473,0.03937955697187663,0.026654832269140137,-0.008148696983420137,0.054222711297273504,5.0
0.396544504806806,-0.043965416025122064,-0.03357783683223133,0.02827496844819038,-0.013752053823625265,0.05811883126363616,5.0
0.396544504806806,-0.03579764772784171,-0.018986349557482813,0.015853930995608122,-0.014872725875094594,0.03474210849545592,5.0
0.40456237795196975,-0.03579764772784171,-0.03357783683223133,0.006133120508109612,0.006420029434256614,0.05519674203136523,5.0
0.4165891876697109,-0.043965416025122064,-0.009258698469256215,0.011533571144875625,0.00978204388009384,0.02500180820829875,5.0
0.40857131452455037,-0.0766364177276852,0.0004689526189703352,0.019094203353708625,0.004739023065623371,0.029871958537502605,5.0
0.4165891876697109,-0.0766364177276852,0.010196603707196788,0.032055282905906146,0.011463050675869769,0.01720956753307237,5.0
0.4005534413793866,-0.048049264430482776,0.024788090981945305,0.024494653990474635,0.03163513350660896,-0.01980357697362984,5.0
0.4005534413793866,-0.019462146876560144,0.024788090981945305,0.015853930995608122,0.010902715077277792,0.006495236511823462,5.0
0.4005534413793866,-0.02354603102520032,-0.009258698469256215,0.006133120508109612,-0.010950375403522694,0.023053747946679522,5.0
0.40857131452455037,-0.027629915173840496,0.005332788805492304,-0.006287913651071152,-0.006467690614786891,0.045456440630456445,5.0
0.39253556823422603,-0.03579764772784171,0.015060439893719047,0.016393976388624863,0.00025633827688756176,0.06104092049590704,5.0
0.4005534413793866,-0.06846864943040452,0.019924254795423434,0.029895104627240637,0.010342379051543131,0.0493525605968191,5.0
0.40456237795196975,-0.052133148579122955,0.024788090981945305,0.03637564275663864,0.0036183510141540483,0.05130061909499826,5.0
0.4005534413793866,-0.03579764772784171,0.0442433931583985,0.04069600590077265,-0.001424669800316428,0.06006688976181531,5.0
0.4005534413793866,-0.052133148579122955,0.0004689526189703352,0.047176544030170665,0.021549092304810707,0.053248680563181744,5.0
0.40857131452455037,-0.043965416025122064,0.015060439893719047,0.04825663481620415,0.020988756706218734,0.06006688976181531,5.0
0.40857131452455037,-0.03171376357920125,0.010196603707196788,0.05365708215956864,0.023230099100586637,0.07175525263090758,5.0
0.40456237795196975,-0.027629915173840496,0.019924254795423434,0.03421546118457163,0.009221707854359181,0.09805406166135441,5.0
0.40456237795196975,-0.03171376357920125,0.005332788805492304,0.00019262612502760575,0.040600504792651315,0.11656063372908021,5.0
0.4005534413793866,-0.043965416025122064,-0.04330548792045788,-0.0035876883326881456,0.007540700631440564,0.07954749553363719,5.0
0.4005534413793866,-0.043965416025122064,-0.009258698469256215,-0.030589940693167807,-0.007028026640521563,0.08636570473227075,5.0
0.40857131452455037,-0.056217032727763454,0.03937955697187663,-0.03167003065585093,0.010902715077277792,0.08149555106181204,5.0
0.4005534413793866,-0.06030091687640363,0.015060439893719047,-0.052191742416881445,0.014264728882400992,0.07857346479954544,5.0
0.40456237795196975,-0.06030091687640363,-0.018986349557482813,-0.051651697023864705,0.006420029434256614,0.08441764326408727,5.0
0.40857131452455037,-0.06030091687640363,-0.03357783683223133,-0.045711200994081935,0.008101036657175226,0.10292421533181309,5.0
0.396544504806806,-0.08480415028168604,0.024788090981945305,-0.04409106646173245,0.017626742740917026,0.08441764326408727,5.0
0.3805087585164848,-0.09297191857896647,0.0004689526189703352,-0.04247093192938295,0.013704393070237674,0.07467734186317848,5.0
0.3885266316616454,-0.0766364177276852,-0.03844165173393591,-0.0602924167253297,0.011463050675869769,0.018183597524663035,5.0
0.396544504806806,-0.07255253357904473,-0.009258698469256215,-0.06461277657606221,0.010902715077277792,0.025975838199889415,5.0
0.39253556823422603,-0.08480415028168604,-0.04330548792045788,-0.06245259829739672,0.03163513350660896,0.02013165769346963,5.0
0.40456237795196975,-0.09297191857896647,-0.009258698469256215,-0.07595372324261099,0.0052993582370726615,0.007469267245915203,5.0
0.39253556823422603,-0.09705580272760661,-0.009258698469256215,-0.05327183320291496,-0.008709033009154793,0.01720956753307237,5.0
0.4005534413793866,-0.09705580272760661,-0.03357783683223133,-0.05003156084481445,-0.0019850058260510862,0.006495236511823462,5.0
0.4005534413793866,-0.09705580272760661,-0.03357783683223133,-0.032210076048867685,0.021549092304810707,0.021105687777872927,5.0
0.3885266316616454,-0.08480415028168604,-0.03357783683223133,-0.03869061582496644,0.014264728882400992,0.03182001852068393,5.0
0.40456237795196975,-0.056217032727763454,-0.023850164459187344,-0.0030476445863721496,0.0013770086197861437,0.059092861997727876,5.0
0.40456237795196975,-0.056217032727763454,-0.023850164459187344,-0.004667779118721653,-0.006467690614786891,0.11656063372908021,5.0
0.3885266316616454,-0.06438476528176434,-0.009258698469256215,-0.017088814924603166,0.00978204388009384,0.09805406166135441,5.0
0.37249088537132424,-0.07255253357904473,0.0004689526189703352,-0.004667779118721653,-0.02551910352977019,0.13798929205907265,5.0
0.37249088537132424,-0.07255253357904473,0.0004689526189703352,-0.0073680044371046555,-0.007028026640521563,0.11363854746681362,5.0
0.3885266316616454,-0.0766364177276852,0.005332788805492304,0.019634248746725372,-0.01543306190082925,0.07175525263090758,5.0
0.4205981242422909,-0.0766364177276852,-0.018986349557482813,0.020174290846340627,0.013704393070237674,0.06006688976181531,5.0
0.4205981242422909,-0.0766364177276852,-0.018986349557482813,0.01261366193090911,0.022109427903402683,0.07662540333136196,5.0
0.40456237795196975,-0.06030091687640363,-0.014122513370960892,-0.0014275084073218972,-0.008148696983420137,0.07759943406545372,5.0
0.3885266316616454,-0.048049264430482776,0.0004689526189703352,-0.013848545036553788,0.0008166725940514825,0.059092861997727876,5.0
0.3885266316616454,-0.048049264430482776,0.0004689526189703352,-0.03491030136725069,-0.0003039977488470994,0.07565137259727021,5.0
0.396544504806806,-0.048049264430482776,-0.04816930282216251,-0.04409106646173245,0.01594573578496259,0.07272928039499502,5.0
0.40456237795196975,-0.06846864943040452,-0.009258698469256215,-0.04949151709849846,-0.006467690614786891,0.06785913266454494,5.0
0.4005534413793866,-0.06846864943040452,-0.014122513370960892,-0.04355102106871568,-0.0003039977488470994,0.04740449912863561,5.0
0.40857131452455037,-0.10113965113296733,-0.05303313900868443,-0.04247093192938295,0.006420029434256614,0.039612259195910306,5.0
0.4165891876697109,-0.10113965113296733,-0.04330548792045788,-0.03599039050658344,0.021549092304810707,0.03279404851227459,5.0
0.4165891876697109,-0.10522353528160779,-0.03357783683223133,-0.040310752004016695,0.009221707854359181,0.06883316339863665,5.0
0.40456237795196975,-0.08480415028168604,-0.04330548792045788,-0.04841142631246495,0.0069803654599912765,0.07467734186317848,5.0
0.40456237795196975,-0.09297191857896647,-0.014122513370960892,-0.05003156084481445,0.010902715077277792,0.023053747946679522,5.0
0.4165891876697109,-0.06846864943040452,-0.009258698469256215,-0.04895147170548169,0.030514463163710377,0.016235537170231167,5.0
0.40857131452455037,-0.08888803443032627,-0.03357783683223133,-0.041930886536366195,0.012023386274461745,0.006495236511823462,5.0
0.40456237795196975,-0.08480415028168604,-0.05303313900868443,-0.03329016601155081,0.013144057471645697,0.025975838199889415,5.0
0.4165891876697109,-0.08480415028168604,-0.04330548792045788,-0.023569355318214705,0.019307749696871462,0.026949868191480077,5.0
0.40857131452455037,-0.0807202661330459,-0.014122513370960892,-0.02734967039344324,0.005859694262807321,-0.005193124872266648,5.0
0.40456237795196975,-0.0766364177276852,-0.023850164459187344,-0.0446311118547492,0.015385400079584943,0.02402777803108282,5.0
0.40857131452455037,-0.08888803443032627,0.019924254795423434,-0.040850795750332694,-0.001424669800316428,0.016235537170231167,5.0
0.396544504806806,-0.08480415028168604,-0.009258698469256215,-0.037610526685633694,0.001937344645520805,0.010391356478186113,5.0
0.3885266316616454,-0.06846864943040452,-0.04816930282216251,-0.0208691301027505,0.027712784743607815,-0.020777604737717236,5.0
0.4005534413793866,-0.08888803443032627,-0.03357783683223133,-0.008988138969454156,0.015385400079584943,0.03766419921272898,5.0
0.40857131452455037,-0.08480415028168604,-0.04330548792045788,-0.009528184362470908,0.016506071436947403,0.03863822994682073,5.0
0.40857131452455037,-0.08480415028168604,-0.03357783683223133,-0.0030476445863721496,0.028833455940791765,0.021105687777872927,5.0
0.4005534413793866,-0.09705580272760661,-0.009258698469256215,0.0023528060503938573,0.008101036657175226,0.023053747946679522,5.0
0.4005534413793866,-0.06438476528176434,-0.009258698469256215,-0.019789040037148577,0.008101036657175226,-0.0012970049059039964,5.0
0.4005534413793866,-0.056217032727763454,-0.009258698469256215,-0.04787138256614896,0.010342379051543131,0.02013165769346963,5.0
0.4205981242422909,-0.06846864943040452,0.019924254795423434,-0.054891966088563705,0.012023386274461745,0.016235537170231167,5.0
0.4205981242422909,-0.06438476528176434,-0.014122513370960892,-0.04949151709849846,0.01258372187305372,-0.0061671556063583885,5.0
0.40857131452455037,-0.0766364177276852,0.0004689526189703352,-0.051111651630847944,-0.002545340143215007,0.05227464982909,5.0
0.3885266316616454,-0.09297191857896647,-0.023850164459187344,-0.0462512463870987,-0.01991574668956506,0.07078122189681582,5.0
0.39253556823422603,-0.0807202661330459,0.0004689526189703352,-0.02896980533746793,-0.019355410663830404,0.07370331112908673,5.0
0.3845176950890654,-0.08480415028168604,-0.009258698469256215,-0.018708949868627856,-0.046251522813386736,0.07078122189681582,5.0
0.4165891876697109,-0.09705580272760661,-0.03844165173393591,-0.005747869904755156,-0.04457051473618275,0.07175525263090758,5.0
0.4286159973874553,-0.09297191857896647,-0.04330548792045788,-0.021409175135551458,-0.010950375403522694,0.05714480052954439,5.0
0.4165891876697109,-0.0807202661330459,-0.03357783683223133,-0.009528184362470908,-0.004226348220418987,0.06104092049590704,5.0
0.4005534413793866,-0.0766364177276852,-0.023850164459187344,-0.008448094399787782,-0.004786682537582911,0.0698071911627241,5.0
0.4125802510971303,-0.07255253357904473,-0.014122513370960892,-0.028429760767801557,0.0013770086197861437,0.03571613922954765,5.0
0.40456237795196975,-0.0766364177276852,-0.009258698469256215,-0.037610526685633694,0.008101036657175226,0.03863822994682073,5.0
0.40456237795196975,-0.0766364177276852,0.015060439893719047,-0.0446311118547492,0.001937344645520805,0.023053747946679522,5.0
0.4005534413793866,-0.10113965113296733,-0.04330548792045788,-0.047331337173132204,-0.012071045746421288,0.02402777803108282,5.0
0.396544504806806,-0.09297191857896647,-0.06276079009691103,-0.04517115724776596,0.002497680671255466,0.011365387212277854,5.0
0.40456237795196975,-0.09705580272760661,-0.03844165173393591,-0.030049895300151057,0.013144057471645697,0.033768079246366337,5.0
0.40456237795196975,-0.09297191857896647,-0.02871400064570936,-0.011148319718170784,0.019307749696871462,0.019157627516253696,5.0
0.4005534413793866,-0.09705580272760661,-0.05303313900868443,-0.02896980533746793,-0.0036660121946843326,0.033768079246366337,5.0
0.4005534413793866,-0.08480415028168604,-0.04330548792045788,-0.027889715374784806,0.005859694262807321,0.04740449912863561,5.0
0.40857131452455037,-0.09297191857896647,-0.05303313900868443,-0.027889715374784806,0.014825064480992968,0.03474210849545592,5.0
0.4005534413793866,-0.0766364177276852,-0.05789695391038906,-0.030049895300151057,0.00025633827688756176,0.012339417203868516,5.0
0.396544504806806,-0.08480415028168604,-0.03357783683223133,-0.040850795750332694,0.0030580158427047587,0.03182001852068393,5.0
0.40857131452455037,-0.09705580272760661,-0.08221609227336413,-0.03167003065585093,0.0069803654599912765,0.023053747946679522,5.0
0.40857131452455037,-0.0766364177276852,-0.03844165173393591,-0.03653043589960019,0.0008166725940514825,0.018183597524663035,5.0
0.40857131452455037,-0.08888803443032627,-0.06762460499861561,-0.03329016601155081,0.0069803654599912765,0.04837852986272735,5.0
0.4005534413793866,-0.0807202661330459,-0.023850164459187344,-0.02896980533746793,0.0052993582370726615,0.02889792854591194,5.0
0.396544504806806,-0.0766364177276852,-0.07735225608684211,-0.03545034593691706,0.008101036657175226,0.03474210849545592,5.0
0.40857131452455037,-0.07255253357904473,-0.06276079009691103,-0.023029310233954343,0.01258372187305372,0.04740449912863561,5.0
0.40857131452455037,-0.08480415028168604,-0.04330548792045788,-0.023029310233954343,0.01594573578496259,0.021105687777872927,5.0
0.40456237795196975,-0.09705580272760661,-0.023850164459187344,-0.03112998608618456,0.020988756706218734,0.03863822994682073,5.0
0.40857131452455037,-0.09297191857896647,-0.02871400064570936,-0.03545034593691706,0.013144057471645697,0.02792389855432128,5.0
0.4005534413793866,-0.07255253357904473,-0.018986349557482813,-0.03653043589960019,0.01258372187305372,0.04156031917909164,5.0
0.40857131452455037,-0.08480415028168604,-0.03357783683223133,-0.03653043589960019,0.016506071436947403,0.03279404851227459,5.0
0.40857131452455037,-0.08888803443032627,-0.023850164459187344,-0.041930886536366195,0.01818707839290184,0.03766419921272898,5.0
0.40857131452455037,-0.09297191857896647,-0.03844165173393591,-0.040850795750332694,0.01258372187305372,0.033768079246366337,5.0
0.4165891876697109,-0.09705580272760661,-0.03357783683223133,-0.029509850730484677,0.014825064480992968,0.02792389855432128,5.0
0.40456237795196975,-0.09705580272760661,-0.06762460499861561,-0.020329085018490137,0.02827311991505711,0.03571613922954765,5.0
0.40456237795196975,-0.08888803443032627,-0.06276079009691103,-0.026269580430760112,0.0030580158427047587,0.04058628993000205,5.0
0.40456237795196975,-0.08480415028168604,0.015060439893719047,-0.023029310233954343,0.015385400079584943,0.012339417203868516,5.0
0.40857131452455037,-0.08480415028168604,-0.04330548792045788,-0.039230661217983194,0.007540700631440564,0.026949868191480077,5.0
0.40857131452455037,-0.07255253357904473,-0.018986349557482813,-0.019248995055807013,0.01594573578496259,0.04156031917909164,5.0
0.40456237795196975,-0.08480415028168604,-0.02871400064570936,-0.02734967039344324,0.020988756706218734,0.03669016847863724,5.0
0.396544504806806,-0.08480415028168604,-0.018986349557482813,-0.026809625412101676,0.020988756706218734,0.014287477187049842,5.0
0.4005534413793866,-0.09705580272760661,-0.04816930282216251,-0.022489265201153383,0.013704393070237674,-0.005193124872266648,5.0
0.4005534413793866,-0.09705580272760661,-0.04816930282216251,-0.024649445280897832,0.008101036657175226,0.03863822994682073,5.0
0.40857131452455037,-0.08480415028168604,-0.03357783683223133,-0.04301097567569894,0.01594573578496259,0.039612259195910306,5.0
0.40456237795196975,-0.08888803443032627,-0.05303313900868443,-0.019789040037148577,0.013144057471645697,0.05130061909499826,5.0
0.40456237795196975,-0.08888803443032627,-0.05303313900868443,-0.03167003065585093,-0.005347018563317563,0.04058628993000205,5.0
0.37649982194390486,-0.08480415028168604,-0.06762460499861561,-0.0462512463870987,-0.010950375403522694,0.053248680563181744,5.0
0.40857131452455037,-0.08480415028168604,-0.05303313900868443,-0.050571606237831204,-0.006467690614786891,0.045456440630456445,5.0
0.40857131452455037,-0.08480415028168604,-0.05303313900868443,-0.026269580430760112,0.0008166725940514825,0.04740449912863561,5.0
0.39253556823422603,-0.11339130357888814,-0.014122513370960892,-0.008448094399787782,0.004178687039888709,0.04058628993000205,5.0
0.4005534413793866,-0.08480415028168604,-0.03357783683223133,-0.026269580430760112,0.007540700631440564,0.02500180820829875,5.0
0.4005534413793866,-0.08480415028168604,-0.03357783683223133,-0.006287913651071152,0.00978204388009384,0.030845988529093267,5.0
0.40456237795196975,-0.11747515198424885,-0.08221609227336413,-0.006287913651071152,0.015385400079584943,0.023053747946679522,5.0
0.40456237795196975,-0.11747515198424885,-0.04816930282216251,0.007213211294143103,0.02547144149495454,0.00162508581136907,5.0
0.40456237795196975,-0.11339130357888814,-0.04330548792045788,0.003432896836427364,0.03219546953234362,0.023053747946679522,5.0
0.396544504806806,-0.10522353528160779,-0.023850164459187344,-0.018708949868627856,0.036117820003915516,0.006495236511823462,5.0
0.3885266316616454,-0.09705580272760661,-0.04816930282216251,-0.006827959044087904,0.026592113546423865,-0.010063275572721051,5.0
0.4005534413793866,-0.08888803443032627,-0.05303313900868443,-0.014928634999236915,0.026031777520689203,0.01720956753307237,5.0
0.39253556823422603,-0.0807202661330459,-0.023850164459187344,-0.02518949046807699,0.034436811926711525,-0.0012970049059039964,5.0
0.4005534413793866,-0.0766364177276852,-0.004394862282734294,-0.041390841143349434,0.027152448717873152,0.007469267245915203,5.0
0.396544504806806,-0.08480415028168604,-0.03357783683223133,-0.02896980533746793,0.022109427903402683,0.007469267245915203,5.0
0.40857131452455037,-0.08480415028168604,-0.018986349557482813,-0.040850795750332694,0.01818707839290184,0.014287477187049842,5.0
0.396544504806806,-0.10113965113296733,-0.03357783683223133,-0.03275012061853406,0.0036183510141540483,0.039612259195910306,5.0
0.396544504806806,-0.09705580272760661,-0.04816930282216251,-0.03112998608618456,0.013144057471645697,0.053248680563181744,5.0
0.4005534413793866,-0.10113965113296733,-0.04330548792045788,-0.018168904887286293,0.012023386274461745,0.03474210849545592,5.0
0.40456237795196975,-0.10522353528160779,-0.08707990717506875,-0.014928634999236915,0.013144057471645697,0.016235537170231167,5.0
0.4165891876697109,-0.09705580272760661,-0.06762460499861561,-0.014388589606220166,0.016506071436947403,0.039612259195910306,5.0
0.4005534413793866,-0.08480415028168604,-0.04330548792045788,-0.009528184362470908,0.010342379051543131,0.030845988529093267,5.0
0.4005534413793866,-0.08480415028168604,-0.05789695391038906,-0.018168904887286293,0.007540700631440564,0.0493525605968191,5.0
0.40456237795196975,-0.0807202661330459,-0.03357783683223133,-0.0208691301027505,0.00025633827688756176,0.021105687777872927,5.0
0.40857131452455037,-0.08888803443032627,-0.03357783683223133,-0.015468679568903288,-0.0036660121946843326,0.026949868191480077,5.0
0.396544504806806,-0.08480415028168604,-0.018986349557482813,-0.02734967039344324,0.014264728882400992,0.014287477187049842,5.0
0.4005534413793866,-0.08480415028168604,-0.04330548792045788,-0.018708949868627856,0.01258372187305372,0.03182001852068393,5.0
0.39253556823422603,-0.0766364177276852,-0.04330548792045788,-0.017088814924603166,0.00978204388009384,0.03863822994682073,5.0
0.40857131452455037,-0.0807202661330459,-0.018986349557482813,-0.023029310233954343,0.020428421107626757,0.01331344719545918,5.0
0.4005534413793866,-0.0766364177276852,0.005332788805492304,-0.030049895300151057,0.0069803654599912765,0.03182001852068393,5.0
0.4005534413793866,-0.08480415028168604,-0.023850164459187344,-0.038150570431949686,0.013704393070237674,0.016235537170231167,5.0
0.40857131452455037,-0.0766364177276852,-0.04330548792045788,-0.04679129178011544,0.0030580158427047587,0.007469267245915203,5.0
0.40857131452455037,-0.0766364177276852,-0.018986349557482813,-0.03167003065585093,0.020988756706218734,0.0025991165454608083,5.0
0.40857131452455037,-0.09297191857896647,-0.04330548792045788,-0.051111651630847944,0.02435077029777059,-0.03343999834090127,5.0
0.4005534413793866,-0.08480415028168604,-0.04816930282216251,-0.038150570431949686,0.02266976350199466,-0.0022710341549935786,5.0
0.40857131452455037,-0.07255253357904473,-0.06276079009691103,-0.03167003065585093,0.01594573578496259,0.012339417203868516,5.0
0.4005534413793866,-0.0766364177276852,-0.04816930282216251,-0.03275012061853406,0.021549092304810707,-0.0012970049059039964,5.0
0.39253556823422603,-0.06846864943040452,-0.04330548792045788,-0.04355102106871568,0.02435077029777059,0.012339417203868516,5.0
0.4005534413793866,-0.09297191857896647,-0.04330548792045788,-0.04409106646173245,0.00978204388009384,0.025975838199889415,5.0
0.4165891876697109,-0.10522353528160779,-0.03357783683223133,-0.03491030136725069,0.016506071436947403,0.0025991165454608083,5.0
0.4005534413793866,-0.09297191857896647,-0.09194374336159067,-0.018168904887286293,0.020988756706218734,0.0006510565622794851,5.0
0.40857131452455037,-0.08888803443032627,-0.06276079009691103,-0.020329085018490137,0.02547144149495454,-0.05389462593680195,5.0
0.4005534413793866,-0.09297191857896647,-0.04816930282216251,-0.02896980533746793,0.032755805558078284,-0.024673727674084215,5.0
0.3885266316616454,-0.0766364177276852,-0.03844165173393591,-0.051651697023864705,0.013704393070237674,-0.013959395539083702,5.0
0.40857131452455037,-0.08888803443032627,-0.06762460499861561,-0.03167003065585093,0.010342379051543131,-0.01688148477135459,5.0
0.4125802510971303,-0.10113965113296733,-0.03357783683223133,-0.03599039050658344,0.03219546953234362,-0.0373361153372596,5.0
0.4005534413793866,-0.09705580272760661,-0.04330548792045788,-0.04301097567569894,0.03219546953234362,-0.02564775543817165,5.0
0.40456237795196975,-0.0807202661330459,-0.03357783683223133,-0.0538118785959317,0.03331614158381294,-0.012985364804991939,5.0
0.4005534413793866,-0.0766364177276852,-0.018986349557482813,-0.05003156084481445,0.022109427903402683,-0.01688148477135459,5.0
0.4005534413793866,-0.08888803443032627,-0.03844165173393591,-0.04355102106871568,0.015385400079584943,-0.0061671556063583885,5.0
0.4125802510971303,-0.08480415028168604,-0.023850164459187344,-0.041390841143349434,0.020428421107626757,0.01720956753307237,5.0
0.4005534413793866,-0.08480415028168604,-0.023850164459187344,-0.04949151709849846,0.009221707854359181,0.03571613922954765,5.0
0.3885266316616454,-0.08480415028168604,-0.05789695391038906,-0.038150570431949686,0.009221707854359181,0.06104092049590704,5.0
0.4005534413793866,-0.0766364177276852,-0.04816930282216251,-0.03869061582496644,0.004178687039888709,0.04156031917909164,5.0
0.4005534413793866,-0.09297191857896647,-0.06276079009691103,-0.03491030136725069,-0.007028026640521563,0.06785913266454494,5.0
0.4005534413793866,-0.09705580272760661,-0.03844165173393591,-0.029509850730484677,0.0036183510141540483,0.06104092049590704,5.0
0.4165891876697109,-0.08888803443032627,-0.04816930282216251,-0.018168904887286293,-0.0003039977488470994,0.045456440630456445,5.0
0.4165891876697109,-0.09705580272760661,-0.04330548792045788,-0.022489265201153383,0.008661372682909889,0.02792389855432128,5.0
0.4125802510971303,-0.09705580272760661,-0.04816930282216251,-0.017088814924603166,0.013144057471645697,0.019157627516253696,5.0
0.4165891876697109,-0.0766364177276852,-0.03357783683223133,-0.026809625412101676,0.02435077029777059,0.009417327229096528,5.0
0.3885266316616454,-0.0807202661330459,-0.05789695391038906,-0.024649445280897832,0.04732453197575503,-0.02272566620590073,5.0
0.3885266316616454,-0.07255253357904473,-0.03357783683223133,-0.03112998608618456,0.02435077029777059,-0.017855515505446347,5.0
0.39253556823422603,-0.0766364177276852,-0.04816930282216251,-0.03545034593691706,0.027152448717873152,0.02013165769346963,5.0
0.3885266316616454,-0.06846864943040452,-0.03844165173393591,-0.032210076048867685,0.01818707839290184,0.00162508581136907,5.0
0.396544504806806,-0.08480415028168604,-0.04330548792045788,-0.021409175135551458,0.022109427903402683,0.011365387212277854,5.0
0.4005534413793866,-0.08888803443032627,-0.03357783683223133,-0.014928634999236915,0.041160840818385995,0.021105687777872927,5.0
0.40857131452455037,-0.09705580272760661,-0.05303313900868443,-0.002507599193355407,0.04228151116128457,0.03669016847863724,5.0
0.40857131452455037,-0.09297191857896647,-0.09194374336159067,-0.01006822975548766,0.043402183212753895,0.012339417203868516,5.0
0.4005534413793866,-0.06846864943040452,-0.03844165173393591,-0.011688364287837158,0.04508318958138713,0.04058628993000205,5.0
0.396544504806806,-0.06846864943040452,-0.08707990717506875,-0.011148319718170784,0.03667815432107944,0.023053747946679522,5.0
0.396544504806806,-0.06438476528176434,-0.04816930282216251,-0.021409175135551458,0.031074798335159668,0.00162508581136907,5.0
0.40857131452455037,-0.08888803443032627,-0.04816930282216251,-0.030049895300151057,0.027152448717873152,0.01720956753307237,5.0
0.4165891876697109,-0.0807202661330459,-0.05303313900868443,-0.016548769943261602,0.054048560867429485,0.0035731457945503958,5.0
0.4125802510971303,-0.08888803443032627,-0.04330548792045788,-0.015468679568903288,0.04228151116128457,-0.003245063404083166,5.0
0.4005534413793866,-0.06030091687640363,-0.018986349557482813,-0.01762885990594473,0.036117820003915516,-0.0061671556063583885,5.0
0.40857131452455037,-0.06846864943040452,-0.03357783683223133,-0.020329085018490137,0.030514463163710377,-0.01688148477135459,5.0
0.4005534413793866,-0.06846864943040452,-0.03357783683223133,-0.026809625412101676,0.01986808529546344,0.00162508581136907,5.0
0.40857131452455037,-0.0766364177276852,-0.05789695391038906,-0.01600872496192004,0.045643525607121795,0.006495236511823462,5.0
0.40857131452455037,-0.0766364177276852,-0.05789695391038906,-0.013848545036553788,0.039479832741182,-0.012985364804991939,5.0
0.40857131452455037,-0.08480415028168604,-0.03844165173393591,-0.026809625412101676,0.0646949385221051,-0.003245063404083166,5.0
0.40456237795196975,-0.0766364177276852,-0.018986349557482813,-0.033830210581217185,0.035557483978180864,-0.026621786172263375,5.0
0.3885266316616454,-0.08888803443032627,-0.04330548792045788,-0.04247093192938295,0.03219546953234362,-0.003245063404083166,5.0
0.4005534413793866,-0.0766364177276852,-0.05303313900868443,-0.03707048129261694,0.047884868001489694,0.025975838199889415,5.0
0.3885266316616454,-0.0766364177276852,-0.014122513370960892,-0.04841142631246495,0.00978204388009384,0.011365387212277854,5.0
0.396544504806806,-0.09705580272760661,-0.009258698469256215,-0.04949151709849846,-0.0019850058260510862,0.04058628993000205,5.0
0.4125802510971303,-0.07255253357904473,-0.06762460499861561,-0.03869061582496644,-0.002545340143215007,0.08539167399817903,5.0
0.40456237795196975,-0.0766364177276852,-0.07248844118513757,0.0007326715180443545,-0.021036418741034388,0.10876839379635492,5.0
0.4005534413793866,-0.11747515198424885,-0.05303313900868443,0.04123605129378939,-0.031122460369975322,0.09026182172862911,5.0
0.40857131452455037,-0.10113965113296733,-0.05303313900868443,0.0725586577415489,0.012023386274461745,0.09123585246272083,5.0
0.39253556823422603,-0.09297191857896647,-0.014122513370960892,0.05581726373163566,-0.014312389849359921,0.06688510193045318,5.0
0.39253556823422603,-0.0766364177276852,-0.04330548792045788,0.05689735451766916,-0.012631381772155944,0.06591107119636144,5.0
0.4165891876697109,-0.06438476528176434,-0.04816930282216251,0.04393627167207014,0.004178687039888709,0.06298898196409053,5.0
0.4005534413793866,-0.052133148579122955,-0.08707990717506875,0.04123605129378939,0.03219546953234362,0.07078122189681582,5.0
0.40456237795196975,-0.06846864943040452,-0.03357783683223133,0.025034696090089886,-0.0075883609576854645,0.05811883126363616,5.0
0.40456237795196975,-0.06030091687640363,-0.023850164459187344,0.015853930995608122,-0.026079439555504843,0.07272928039499502,5.0
0.4125802510971303,-0.056217032727763454,-0.03844165173393591,0.03367541579155488,0.017626742740917026,0.062014951229998797,5.0
0.4125802510971303,-0.06030091687640363,-0.018986349557482813,0.014233798109959377,0.009221707854359181,0.08149555106181204,5.0
0.3845176950890654,-0.06030091687640363,-0.02871400064570936,0.019634248746725372,0.0030580158427047587,0.05811883126363616,5.0
0.396544504806806,-0.07255253357904473,-0.03357783683223133,0.0066731659011263576,-0.0019850058260510862,0.0493525605968191,5.0
0.4165891876697109,-0.07255253357904473,-0.06762460499861561,0.010453480358842115,0.024911106323505246,0.04837852986272735,5.0
0.40857131452455037,-0.0766364177276852,-0.03844165173393591,0.005593076761793612,0.029954127137975718,0.011365387212277854,5.0
0.40857131452455037,-0.07255253357904473,-0.05789695391038906,0.0023528060503938573,-0.002545340143215007,0.02013165769346963,5.0
0.3885266316616454,-0.052133148579122955,-0.06762460499861561,-0.0073680044371046555,0.0069803654599912765,0.01720956753307237,5.0
0.4005534413793866,-0.06030091687640363,-0.03357783683223133,0.0066731659011263576,0.031074798335159668,0.03766419921272898,5.0
0.396544504806806,-0.06846864943040452,-0.018986349557482813,0.007753256687159861,0.02827311991505711,-0.003245063404083166,5.0
0.3885266316616454,-0.06846864943040452,-0.04330548792045788,0.008833347473193372,-0.002545340143215007,-0.023699696939992486,5.0
0.3885266316616454,-0.056217032727763454,-0.03357783683223133,0.004512985975760109,0.019307749696871462,-0.004219094138174907,5.0
0.4165891876697109,-0.048049264430482776,-0.05303313900868443,-0.008448094399787782,0.031074798335159668,-0.005193124872266648,5.0
0.40857131452455037,-0.052133148579122955,-0.05789695391038906,-0.024109400299556268,0.03667815432107944,-0.01688148477135459,5.0
0.396544504806806,-0.056217032727763454,-0.023850164459187344,-0.03545034593691706,0.010342379051543131,-0.021751635471809,5.0
0.396544504806806,-0.048049264430482776,-0.04330548792045788,-0.04247093192938295,0.011463050675869769,-0.0022710341549935786,5.0
0.40857131452455037,-0.0766364177276852,-0.03357783683223133,-0.03869061582496644,0.009221707854359181,0.01720956753307237,5.0
0.4205981242422909,-0.0766364177276852,-0.018986349557482813,-0.041390841143349434,0.027152448717873152,-0.005193124872266648,5.0
0.4165891876697109,-0.0766364177276852,-0.03357783683223133,-0.04895147170548169,0.021549092304810707,-0.015907454037262868,5.0
0.4165891876697109,-0.06030091687640363,-0.05789695391038906,-0.05327183320291496,0.038359162398283415,-0.0373361153372596,5.0
0.40857131452455037,-0.0766364177276852,-0.05303313900868443,-0.05435192069554695,0.038359162398283415,-0.01688148477135459,5.0
0.40857131452455037,-0.06438476528176434,-0.07735225608684211,-0.06515282196907897,0.039479832741182,-0.04902447820635186,5.0
0.4005534413793866,-0.0766364177276852,-0.03844165173393591,-0.05543201148158047,0.03723849034681409,-0.04805044747226014,5.0
0.40857131452455037,-0.0766364177276852,-0.07735225608684211,-0.06245259829739672,0.028833455940791765,-0.03246596760680951,5.0
0.40456237795196975,-0.0766364177276852,-0.05789695391038906,-0.03707048129261694,0.035557483978180864,-0.03149193687271778,5.0
0.40857131452455037,-0.06846864943040452,-0.014122513370960892,-0.0446311118547492,0.040600504792651315,-0.055842687404985436,5.0
0.396544504806806,-0.048049264430482776,0.005332788805492304,-0.04949151709849846,0.039479832741182,-0.027595816906355132,5.0
0.3845176950890654,-0.06846864943040452,-0.018986349557482813,-0.058132238446664215,0.020988756706218734,0.0006510565622794851,5.0
0.396544504806806,-0.06030091687640363,-0.04330548792045788,-0.051651697023864705,0.00025633827688756176,0.02013165769346963,5.0
0.4005534413793866,-0.06846864943040452,-0.018986349557482813,-0.038150570431949686,0.010902715077277792,0.03279404851227459,5.0
0.40456237795196975,-0.0766364177276852,-0.03844165173393591,-0.05003156084481445,0.019307749696871462,0.012339417203868516,5.0
0.39253556823422603,-0.056217032727763454,-0.02871400064570936,-0.06893313642679473,0.010902715077277792,0.023053747946679522,5.0
0.396544504806806,-0.06438476528176434,-0.018986349557482813,-0.056512102267613946,0.020428421107626757,0.023053747946679522,5.0
0.396544504806806,-0.056217032727763454,-0.04330548792045788,-0.04301097567569894,0.01818707839290184,0.016235537170231167,5.0
0.40456237795196975,-0.056217032727763454,-0.018986349557482813,-0.03329016601155081,0.013144057471645697,-0.0022710341549935786,5.0
0.4005534413793866,-0.06846864943040452,-0.018986349557482813,-0.040850795750332694,0.009221707854359181,0.0006510565622794851,5.0
0.4005534413793866,-0.0766364177276852,-0.04330548792045788,-0.03653043589960019,0.026592113546423865,0.00844329649500479,5.0
0.4005534413793866,-0.07255253357904473,-0.05303313900868443,-0.024649445280897832,0.020988756706218734,0.00454717652864214,5.0
0.4005534413793866,-0.06030091687640363,-0.03844165173393591,-0.029509850730484677,0.028833455940791765,-0.010063275572721051,5.0
0.4005534413793866,-0.0766364177276852,-0.05303313900868443,-0.02518949046807699,0.012023386274461745,0.029871958537502605,5.0
0.4005534413793866,-0.09297191857896647,-0.05303313900868443,-0.026809625412101676,0.01594573578496259,0.025975838199889415,5.0
0.4005534413793866,-0.06846864943040452,-0.009258698469256215,-0.008988138969454156,0.014825064480992968,0.04837852986272735,5.0
0.40456237795196975,-0.06846864943040452,-0.04330548792045788,-0.022489265201153383,0.017626742740917026,0.0493525605968191,5.0
0.4005534413793866,-0.0766364177276852,-0.04330548792045788,-0.012768454250520284,0.02266976350199466,0.04837852986272735,5.0
0.4125802510971303,-0.08480415028168604,-0.018986349557482813,-0.005207824511738404,0.0069803654599912765,0.03474210849545592,5.0
0.40857131452455037,-0.08480415028168604,-0.014122513370960892,0.01261366193090911,0.023230099100586637,0.054222711297273504,5.0
0.4005534413793866,-0.07255253357904473,-0.05303313900868443,0.006133120508109612,0.027712784743607815,0.042534349913183375,5.0
0.40456237795196975,-0.056217032727763454,-0.04330548792045788,-0.006827959044087904,0.01594573578496259,0.03279404851227459,5.0
0.40456237795196975,-0.056217032727763454,-0.03357783683223133,-0.0035876883326881456,0.020428421107626757,0.03279404851227459,5.0
0.40857131452455037,-0.06438476528176434,-0.014122513370960892,0.004512985975760109,0.026592113546423865,0.039612259195910306,5.0
0.40456237795196975,-0.06846864943040452,-0.02871400064570936,-0.011148319718170784,0.0237904351263213,0.033768079246366337,5.0
0.40456237795196975,-0.056217032727763454,-0.009258698469256215,-0.011688364287837158,0.023230099100586637,0.018183597524663035,5.0
0.4005534413793866,-0.027629915173840496,-0.05303313900868443,-0.021409175135551458,0.027712784743607815,0.044482409896364705,5.0
0.40857131452455037,-0.052133148579122955,-0.03357783683223133,-0.012228409680853912,0.01818707839290184,0.04643046987954602,5.0
0.4005534413793866,-0.06438476528176434,-0.014122513370960892,-0.006287913651071152,0.015385400079584943,0.044482409896364705,5.0
0.40456237795196975,-0.06438476528176434,0.005332788805492304,0.009913438259226862,0.016506071436947403,0.045456440630456445,5.0
0.40857131452455037,-0.07255253357904473,-0.009258698469256215,0.0007326715180443545,0.004178687039888709,0.054222711297273504,5.0
0.40857131452455037,-0.06030091687640363,-0.014122513370960892,0.007213211294143103,0.008661372682909889,0.03863822994682073,5.0
0.40857131452455037,-0.06438476528176434,-0.05303313900868443,-0.006287913651071152,0.0008166725940514825,0.03474210849545592,5.0
0.40456237795196975,-0.06438476528176434,-0.04816930282216251,0.002892851443410603,0.0008166725940514825,0.010391356478186113,5.0
0.40857131452455037,-0.06846864943040452,-0.03844165173393591,-0.01600872496192004,0.008101036657175226,0.014287477187049842,5.0
0.4125802510971303,-0.06030091687640363,-0.03844165173393591,-0.015468679568903288,0.01986808529546344,0.042534349913183375,5.0
0.4005534413793866,-0.06030091687640363,-0.06276079009691103,-0.026269580430760112,0.0036183510141540483,0.042534349913183375,5.0
0.396544504806806,-0.06438476528176434,-0.03357783683223133,-0.013308499643537038,0.013704393070237674,0.033768079246366337,5.0
0.40857131452455037,-0.06846864943040452,-0.03357783683223133,-0.014388589606220166,0.026592113546423865,0.021105687777872927,5.0
0.3885266316616454,-0.056217032727763454,-0.02871400064570936,-0.02572953544941855,0.004739023065623371,0.03669016847863724,5.0
0.3885266316616454,-0.056217032727763454,-0.02871400064570936,-0.01600872496192004,0.010342379051543131,0.03474210849545592,5.0
0.396544504806806,-0.06030091687640363,-0.023850164459187344,-0.01762885990594473,0.002497680671255466,0.018183597524663035,5.0
0.396544504806806,-0.06846864943040452,-0.04330548792045788,-0.023029310233954343,0.020988756706218734,0.05032659133091083,5.0
0.396544504806806,-0.06846864943040452,-0.04330548792045788,-0.030589940693167807,0.0052993582370726615,0.023053747946679522,5.0
0.4005534413793866,-0.056217032727763454,-0.03357783683223133,-0.023029310233954343,0.015385400079584943,0.03182001852068393,5.0
0.4005534413793866,-0.043965416025122064,-0.03357783683223133,-0.013848545036553788,-0.011510711429257364,0.05519674203136523,5.0
0.40857131452455037,-0.056217032727763454,-0.03357783683223133,-0.018168904887286293,-0.0075883609576854645,0.11753466446317198,5.0
0.40456237795196975,-0.048049264430482776,-0.009258698469256215,-0.0014275084073218972,-0.0031056761689496584,0.09513197539908781,5.0
0.4125802510971303,-0.048049264430482776,-0.02871400064570936,-0.002507599193355407,-0.005347018563317563,0.06396301269818229,5.0
0.4165891876697109,-0.048049264430482776,-0.06762460499861561,0.0012727169110611156,0.02435077029777059,0.07078122189681582,5.0
0.4165891876697109,-0.048049264430482776,-0.06762460499861561,0.0007326715180443545,0.02435077029777059,0.04643046987954602,5.0
0.4125802510971303,-0.043965416025122064,-0.023850164459187344,-0.014928634999236915,0.02547144149495454,0.03474210849545592,5.0
0.40456237795196975,-0.056217032727763454,0.0004689526189703352,-0.02896980533746793,0.02266976350199466,0.05519674203136523,5.0
0.40456237795196975,-0.056217032727763454,0.0004689526189703352,-0.037610526685633694,0.013704393070237674,0.05227464982909,5.0
0.3885266316616454,-0.06846864943040452,-0.009258698469256215,-0.039230661217983194,-0.012631381772155944,0.06493704046226968,5.0
0.39253556823422603,-0.09297191857896647,-0.06276079009691103,-0.013848545036553788,-0.013191717797890598,0.06298898196409053,5.0
0.39253556823422603,-0.09297191857896647,-0.06276079009691103,-0.013848545036553788,-0.021596751349627553,0.08636570473227075,5.0
0.4125802510971303,-0.08480415028168604,-0.02871400064570936,0.005053031368776851,-0.02215708737536223,0.10292421533181309,5.0
0.40857131452455037,-0.0807202661330459,0.005332788805492304,0.012073616537892365,-0.01991574668956506,0.09902809239544613,5.0
0.40857131452455037,-0.0807202661330459,0.005332788805492304,0.006133120508109612,-0.0019850058260510862,0.0824695817959038,5.0
0.396544504806806,-0.0807202661330459,0.024788090981945305,-0.018708949868627856,-0.001424669800316428,0.07565137259727021,5.0
0.396544504806806,-0.07255253357904473,-0.04330548792045788,-0.024649445280897832,0.02547144149495454,0.04156031917909164,5.0
0.40857131452455037,-0.056217032727763454,-0.05789695391038906,-0.056512102267613946,0.01986808529546344,0.02402777803108282,5.0
0.40857131452455037,-0.0766364177276852,-0.02871400064570936,-0.06353268908343021,0.01258372187305372,0.03182001852068393,5.0
0.4205981242422909,-0.0807202661330459,-0.04330548792045788,-0.041390841143349434,0.017626742740917026,-0.0012970049059039964,5.0
0.4165891876697109,-0.09297191857896647,-0.02871400064570936,-0.041390841143349434,0.028833455940791765,0.00162508581136907,5.0
0.4005534413793866,-0.09297191857896647,0.005332788805492304,-0.021409175135551458,0.026592113546423865,0.015261507178640506,5.0
0.396544504806806,-0.08888803443032627,-0.05303313900868443,-0.019789040037148577,0.015385400079584943,0.016235537170231167,5.0
0.4005534413793866,-0.08480415028168604,-0.023850164459187344,-0.024109400299556268,0.017626742740917026,0.02792389855432128,5.0
0.39253556823422603,-0.06030091687640363,-0.03844165173393591,-0.018168904887286293,0.027712784743607815,0.039612259195910306,5.0
0.4005534413793866,-0.06846864943040452,0.005332788805492304,-0.011148319718170784,0.0008166725940514825,0.07175525263090758,5.0
0.40857131452455037,-0.08480415028168604,-0.03357783683223133,0.009913438259226862,-0.0031056761689496584,0.07272928039499502,5.0
0.39253556823422603,-0.08480415028168604,-0.02871400064570936,0.012073616537892365,-0.005347018563317563,0.08831376620045425,5.0
0.4005534413793866,-0.0766364177276852,-0.03844165173393591,0.020714336239357364,-0.0008643337745817606,0.10584630753408832,5.0
0.4125802510971303,-0.0807202661330459,-0.04330548792045788,0.008293302080176607,0.008101036657175226,0.08928779099453735,5.0
0.40456237795196975,-0.08480415028168604,-0.04816930282216251,0.004512985975760109,-0.0019850058260510862,0.06883316339863665,5.0
0.40857131452455037,-0.109307419430248,-0.05789695391038906,0.008293302080176607,-0.002545340143215007,0.07759943406545372,5.0
0.4125802510971303,-0.11339130357888814,-0.06762460499861561,0.010453480358842115,0.00978204388009384,0.021105687777872927,5.0
0.40857131452455037,-0.0766364177276852,-0.03844165173393591,0.009373392866210117,0.01986808529546344,0.02402777803108282,5.0
0.4125802510971303,-0.0807202661330459,-0.018986349557482813,-0.014928634999236915,0.012023386274461745,0.030845988529093267,5.0
0.4005534413793866,-0.06438476528176434,-0.04816930282216251,-0.01600872496192004,0.014825064480992968,0.016235537170231167,5.0
0.4125802510971303,-0.07255253357904473,-0.05303313900868443,-0.018168904887286293,0.010902715077277792,-0.007141183370445818,5.0
0.40857131452455037,-0.0807202661330459,-0.03357783683223133,-0.014388589606220166,0.014825064480992968,0.03571613922954765,5.0
0.3845176950890654,-0.07255253357904473,-0.009258698469256215,-0.01006822975548766,0.01818707839290184,0.02402777803108282,5.0
0.3885266316616454,-0.0766364177276852,-0.04330548792045788,-0.009528184362470908,-0.014872725875094594,0.07370331112908673,5.0
0.4005534413793866,-0.08888803443032627,-0.03844165173393591,-0.019248995055807013,0.004178687039888709,0.07467734186317848,5.0
0.4165891876697109,-0.0766364177276852,-0.06276079009691103,0.00019262612502760575,0.02266976350199466,0.06688510193045318,5.0
0.40857131452455037,-0.06846864943040452,-0.07248844118513757,0.008293302080176607,0.029954127137975718,0.06591107119636144,5.0
0.40857131452455037,-0.06846864943040452,-0.05303313900868443,-0.013308499643537038,-0.0031056761689496584,0.07954749553363719,5.0
0.4005534413793866,-0.0807202661330459,-0.018986349557482813,-0.0208691301027505,-0.005907354589052233,0.0873397354663625,5.0
0.3885266316616454,-0.08480415028168604,-0.05789695391038906,-0.005207824511738404,0.004178687039888709,0.07565137259727021,5.0
0.40456237795196975,-0.08480415028168604,-0.08707990717506875,-0.013848545036553788,0.009221707854359181,0.11363854746681362,5.0
0.40857131452455037,-0.06846864943040452,-0.05303313900868443,-0.008988138969454156,0.002497680671255466,0.12922302733226423,5.0
0.40857131452455037,-0.08480415028168604,-0.05303313900868443,-0.018708949868627856,-0.012631381772155944,0.1107164552645384,5.0
0.39253556823422603,-0.08480415028168604,-0.03357783683223133,-0.03977070661099995,-0.04344984268471343,0.10974242453044668,5.0
0.40456237795196975,-0.0807202661330459,-0.07248844118513757,-0.0592123259392962,-0.03336380105577249,0.1107164552645384,5.0
0.396544504806806,-0.12155903613288907,-0.06276079009691103,-0.06515282196907897,-0.04513085076191741,0.07467734186317848,5.0
0.396544504806806,-0.10522353528160779,-0.05789695391038906,-0.052191742416881445,-0.04344984268471343,0.0931839139309043,5.0
0.4005534413793866,-0.11339130357888814,-0.06762460499861561,-0.06407273118304546,-0.024958767504035535,0.06591107119636144,5.0
0.39253556823422603,-0.11339130357888814,-0.11139904553804382,-0.04841142631246495,-0.013752053823625265,0.04350837916227296,5.0
0.396544504806806,-0.12972680443016973,-0.08707990717506875,-0.058132238446664215,-0.023838095452566207,-0.0003229741718122556,5.0
0.4005534413793866,-0.1378945369841706,-0.10167139444981727,-0.04787138256614896,-0.03504480913297647,0.01720956753307237,5.0
0.4125802510971303,-0.10522353528160779,-0.07735225608684211,-0.04247093192938295,-0.01879507463809573,-0.004219094138174907,5.0
0.4125802510971303,-0.09705580272760661,-0.04816930282216251,-0.022489265201153383,-0.01543306190082925,0.009417327229096528,5.0
0.42460706081487215,-0.08480415028168604,-0.05789695391038906,-0.019248995055807013,-0.005347018563317563,0.06298898196409053,5.0
0.4165891876697109,-0.08480415028168604,-0.06762460499861561,-0.040310752004016695,-0.02327775942683155,0.09026182172862911,5.0
0.40857131452455037,-0.08888803443032627,-0.04330548792045788,-0.03707048129261694,-0.032243129004303164,0.06493704046226968,5.0
0.4005534413793866,-0.09297191857896647,-0.05303313900868443,-0.05003156084481445,-0.030562124344240663,0.09610600613317953,5.0
0.40857131452455037,-0.11339130357888814,-0.05303313900868443,-0.03275012061853406,-0.04401017871044807,0.06688510193045318,5.0
0.40857131452455037,-0.12155903613288907,-0.05303313900868443,-0.016548769943261602,-0.0344844731072418,0.12922302733226423,5.0
0.4205981242422909,-0.1256429202815293,-0.07735225608684211,-0.0003474192679891553,-0.01991574668956506,0.12143078739953891,5.0
0.4205981242422909,-0.1419784211328108,-0.11139904553804382,0.009373392866210117,0.0030580158427047587,0.0873397354663625,5.0
0.42460706081487215,-0.1542300378354522,-0.06762460499861561,0.026114786876123373,0.011463050675869769,0.09026182172862911,5.0
0.4125802510971303,-0.1378945369841706,-0.05303313900868443,0.016934021781641627,0.008101036657175226,0.09610600613317953,5.0
0.396544504806806,-0.1256429202815293,-0.04816930282216251,0.021794427025390875,0.004178687039888709,0.08539167399817903,5.0
0.40456237795196975,-0.11747515198424885,-0.07735225608684211,0.03583559736362187,0.0069803654599912765,0.10195018459772134,5.0
0.40857131452455037,-0.12972680443016973,-0.07248844118513757,0.02287451781142438,0.0069803654599912765,0.08636570473227075,5.0
0.4165891876697109,-0.09705580272760661,-0.09194374336159067,0.01099352575185886,-0.005347018563317563,0.07759943406545372,5.0
0.40456237795196975,-0.10113965113296733,-0.11139904553804382,0.01369375271694262,-0.008148696983420137,0.07467734186317848,5.0
0.40857131452455037,-0.13381065283553045,-0.08707990717506875,0.011533571144875625,0.0036183510141540483,0.07954749553363719,5.0
0.4165891876697109,-0.14606230528145095,-0.07735225608684211,0.016393976388624863,0.002497680671255466,0.07565137259727021,5.0
0.40857131452455037,-0.11747515198424885,-0.11139904553804382,0.020714336239357364,0.004739023065623371,0.07175525263090758,5.0
0.4005534413793866,-0.10522353528160779,-0.10167139444981727,0.005053031368776851,0.013144057471645697,0.0698071911627241,5.0
0.4005534413793866,-0.11339130357888814,-0.08221609227336413,0.01369375271694262,0.01986808529546344,0.04643046987954602,5.0
0.40857131452455037,-0.11747515198424885,-0.1162628604397484,-0.001967553800338643,0.01818707839290184,0.0493525605968191,5.0
0.40456237795196975,-0.10522353528160779,-0.09194374336159067,-0.006287913651071152,0.03219546953234362,0.03474210849545592,5.0
0.40456237795196975,-0.11339130357888814,-0.08707990717506875,-0.0008874646610058979,0.022109427903402683,-0.004219094138174907,5.0
0.40456237795196975,-0.11339130357888814,-0.08707990717506875,-0.004127733725704894,0.040600504792651315,-0.017855515505446347,5.0
0.42460706081487215,-0.11747515198424885,-0.05789695391038906,-0.01600872496192004,0.05068654471302153,0.009417327229096528,5.0
0.4125802510971303,-0.11339130357888814,-0.07735225608684211,-0.018168904887286293,0.03779882637254876,0.018183597524663035,5.0
0.40857131452455037,-0.10522353528160779,-0.07735225608684211,-0.02896980533746793,0.029393791112241056,0.00844329649500479,5.0
0.40857131452455037,-0.10522353528160779,-0.08707990717506875,-0.027889715374784806,0.046203859924285724,-0.012985364804991939,5.0
0.3885266316616454,-0.1256429202815293,-0.0968075582632953,-0.02572953544941855,0.040600504792651315,0.04058628993000205,5.0
0.3805087585164848,-0.11339130357888814,-0.04816930282216251,-0.027889715374784806,0.029393791112241056,0.03571613922954765,5.0
0.4005534413793866,-0.11339130357888814,-0.07248844118513757,-0.032210076048867685,0.026592113546423865,0.005521205777731719,5.0
0.4005534413793866,-0.0766364177276852,-0.05303313900868443,-0.03437025597423394,0.029954127137975718,0.009417327229096528,5.0
0.39253556823422603,-0.11747515198424885,-0.07735225608684211,-0.03491030136725069,0.03667815432107944,-0.010063275572721051,5.0
0.4005534413793866,-0.1419784211328108,-0.1162628604397484,-0.02896980533746793,0.01986808529546344,-0.0061671556063583885,5.0
0.4005534413793866,-0.1256429202815293,-0.0968075582632953,-0.03167003065585093,0.010342379051543131,0.005521205777731719,5.0
0.40857131452455037,-0.12155903613288907,-0.08707990717506875,-0.024109400299556268,0.024911106323505246,0.015261507178640506,5.0
0.39253556823422603,-0.1419784211328108,-0.10167139444981727,-0.015468679568903288,0.01986808529546344,0.030845988529093267,5.0
0.4005534413793866,-0.1419784211328108,-0.08707990717506875,-0.0003474192679891553,0.028833455940791765,0.0025991165454608083,5.0
0.396544504806806,-0.1256429202815293,-0.10167139444981727,-0.014928634999236915,0.041160840818385995,-0.03343999834090127,5.0
0.39253556823422603,-0.12972680443016973,-0.06762460499861561,-0.002507599193355407,0.029393791112241056,0.0006510565622794851,5.0
0.4005534413793866,-0.12155903613288907,-0.08707990717506875,0.011533571144875625,0.014264728882400992,-0.004219094138174907,5.0
0.396544504806806,-0.1256429202815293,-0.04330548792045788,0.008833347473193372,0.020988756706218734,0.014287477187049842,5.0
0.4125802510971303,-0.13381065283553045,-0.06762460499861561,-0.004127733725704894,0.022109427903402683,0.0035731457945503958,5.0
0.4165891876697109,-0.1256429202815293,-0.08221609227336413,-0.011148319718170784,0.02547144149495454,-0.012011334070900215,5.0
0.40857131452455037,-0.11747515198424885,-0.08221609227336413,-0.005747869904755156,0.014825064480992968,-0.005193124872266648,5.0
0.40857131452455037,-0.13381065283553045,-0.07735225608684211,0.0018127606573770934,0.022109427903402683,-0.0022710341549935786,5.0
0.4005534413793866,-0.10522353528160779,-0.08707990717506875,0.0012727169110611156,0.020988756706218734,0.019157627516253696,5.0
0.4125802510971303,-0.09705580272760661,-0.08707990717506875,0.003432896836427364,0.023230099100586637,-0.0003229741718122556,5.0
0.4005534413793866,-0.09705580272760661,-0.08221609227336413,-0.005747869904755156,0.01818707839290184,0.016235537170231167,5.0
0.4005534413793866,-0.10522353528160779,-0.10653520935152185,-0.002507599193355407,0.010902715077277792,0.014287477187049842,5.0
0.4005534413793866,-0.12155903613288907,-0.06762460499861561,-0.011148319718170784,0.01258372187305372,0.0025991165454608083,5.0
0.40857131452455037,-0.12155903613288907,-0.06762460499861561,-0.001967553800338643,0.022109427903402683,0.03279404851227459,5.0
0.4005534413793866,-0.12155903613288907,-0.07248844118513757,0.0018127606573770934,0.020428421107626757,0.012339417203868516,5.0
0.396544504806806,-0.12155903613288907,-0.06762460499861561,0.002892851443410603,0.027152448717873152,0.0035731457945503958,5.0
0.4005534413793866,-0.09297191857896647,-0.07735225608684211,0.00019262612502760575,0.027712784743607815,0.0035731457945503958,5.0
0.4005534413793866,-0.09297191857896647,-0.07735225608684211,-0.007908049830121408,0.027712784743607815,0.009417327229096528,5.0
0.40456237795196975,-0.109307419430248,-0.06762460499861561,-0.0073680044371046555,0.03331614158381294,0.006495236511823462,5.0
0.40456237795196975,-0.10522353528160779,-0.07735225608684211,-0.0035876883326881456,0.02827311991505711,0.01720956753307237,5.0
0.4005534413793866,-0.12155903613288907,-0.07735225608684211,-0.01762885990594473,0.022109427903402683,-0.0022710341549935786,5.0
0.4005534413793866,-0.09297191857896647,-0.06762460499861561,-0.006827959044087904,0.013704393070237674,0.014287477187049842,5.0
0.3885266316616454,-0.08888803443032627,-0.07248844118513757,-0.011688364287837158,0.020428421107626757,0.03766419921272898,5.0
0.39253556823422603,-0.09705580272760661,-0.07735225608684211,-0.004127733725704894,0.022109427903402683,0.03766419921272898,5.0
0.396544504806806,-0.09705580272760661,-0.08707990717506875,-0.014388589606220166,0.03163513350660896,0.016235537170231167,5.0
0.40456237795196975,-0.09297191857896647,-0.07735225608684211,-0.03167003065585093,0.01818707839290184,0.03669016847863724,5.0
0.4005534413793866,-0.09705580272760661,-0.07735225608684211,-0.019248995055807013,0.011463050675869769,0.03182001852068393,5.0
0.3805087585164848,-0.08480415028168604,-0.07248844118513757,-0.021409175135551458,0.010902715077277792,0.023053747946679522,5.0
0.39253556823422603,-0.10113965113296733,-0.08707990717506875,-0.02734967039344324,0.01818707839290184,0.0025991165454608083,5.0
0.4125802510971303,-0.08888803443032627,-0.08707990717506875,-0.03112998608618456,0.027152448717873152,0.00454717652864214,5.0
0.4005534413793866,-0.08480415028168604,-0.07735225608684211,-0.027889715374784806,0.024911106323505246,-0.014933426273175432,5.0
0.4005534413793866,-0.10522353528160779,-0.10653520935152185,-0.03275012061853406,0.040600504792651315,-0.007141183370445818,5.0
0.4005534413793866,-0.10113965113296733,-0.06762460499861561,-0.02518949046807699,0.027712784743607815,0.009417327229096528,5.0
0.4165891876697109,-0.08480415028168604,-0.08707990717506875,-0.024649445280897832,0.040600504792651315,0.015261507178640506,5.0
0.4005534413793866,-0.09705580272760661,-0.07735225608684211,-0.039230661217983194,0.03891949671544734,0.010391356478186113,5.0
0.4005534413793866,-0.109307419430248,-0.06762460499861561,-0.039230661217983194,0.02435077029777059,0.03182001852068393,5.0
0.39253556823422603,-0.10522353528160779,-0.10167139444981727,-0.030589940693167807,0.019307749696871462,0.019157627516253696,5.0
0.4005534413793866,-0.10113965113296733,-0.06762460499861561,-0.0208691301027505,0.026592113546423865,0.06396301269818229,5.0
0.40857131452455037,-0.09297191857896647,-0.05789695391038906,-0.027889715374784806,0.014264728882400992,0.042534349913183375,5.0
0.40456237795196975,-0.0807202661330459,-0.07735225608684211,-0.0003474192679891553,0.017626742740917026,0.06396301269818229,5.0
0.4005534413793866,-0.09297191857896647,-0.06762460499861561,-0.011688364287837158,0.008101036657175226,0.03279404851227459,5.0
0.4005534413793866,-0.10522353528160779,-0.05303313900868443,-0.014928634999236915,0.004739023065623371,0.030845988529093267,5.0
0.40456237795196975,-0.08480415028168604,-0.06762460499861561,-0.010608274325154033,0.01594573578496259,0.03279404851227459,5.0
0.4125802510971303,-0.08480415028168604,-0.10167139444981727,-0.021409175135551458,0.0030580158427047587,0.05519674203136523,5.0
0.40857131452455037,-0.10522353528160779,-0.0968075582632953,-0.019789040037148577,0.013704393070237674,0.054222711297273504,5.0
0.39253556823422603,-0.10522353528160779,-0.05303313900868443,-0.023569355318214705,0.012023386274461745,0.05227464982909,5.0
0.40456237795196975,-0.09705580272760661,-0.09194374336159067,-0.023569355318214705,0.031074798335159668,0.025975838199889415,5.0
0.40456237795196975,-0.09705580272760661,-0.09194374336159067,-0.023569355318214705,0.031074798335159668,0.025975838199889415,5.0
0.40857131452455037,-0.08888803443032627,-0.06762460499861561,-0.020329085018490137,0.028833455940791765,0.019157627516253696,5.0
0.40456237795196975,-0.11747515198424885,-0.05789695391038906,-0.03112998608618456,0.018747414098279486,0.02402777803108282,5.0
0.4005534413793866,-0.09705580272760661,-0.06762460499861561,-0.03599039050658344,0.014264728882400992,0.03863822994682073,5.0
0.4005534413793866,-0.09705580272760661,-0.06276079009691103,-0.02734967039344324,0.015385400079584943,0.06104092049590704,5.0
0.40857131452455037,-0.11339130357888814,-0.05303313900868443,-0.03653043589960019,0.023230099100586637,0.04350837916227296,5.0
0.40857131452455037,-0.09705580272760661,-0.03844165173393591,-0.013848545036553788,0.02547144149495454,0.016235537170231167,5.0
0.40857131452455037,-0.109307419430248,-0.05789695391038906,-0.014928634999236915,0.026031777520689203,0.030845988529093267,5.0
0.40857131452455037,-0.10522353528160779,-0.08707990717506875,-0.011688364287837158,0.016506071436947403,0.00162508581136907,5.0
0.40857131452455037,-0.10522353528160779,-0.07248844118513757,-0.030049895300151057,0.028833455940791765,0.0006510565622794851,5.0
0.40456237795196975,-0.0807202661330459,-0.08707990717506875,-0.02518949046807699,0.016506071436947403,-0.0022710341549935786,5.0
0.4005534413793866,-0.10113965113296733,-0.07248844118513757,-0.018168904887286293,0.028833455940791765,0.005521205777731719,5.0
0.4005534413793866,-0.09705580272760661,-0.06276079009691103,-0.024109400299556268,0.014264728882400992,0.006495236511823462,5.0
0.4005534413793866,-0.09705580272760661,-0.05303313900868443,-0.029509850730484677,0.018747414098279486,0.01331344719545918,5.0
0.40857131452455037,-0.10522353528160779,-0.10653520935152185,-0.038150570431949686,0.015385400079584943,-0.015907454037262868,5.0
0.4205981242422909,-0.12972680443016973,-0.09194374336159067,-0.026809625412101676,0.01986808529546344,0.012339417203868516,5.0
0.40456237795196975,-0.1256429202815293,-0.06762460499861561,-0.0208691301027505,0.0052993582370726615,0.019157627516253696,5.0
0.40857131452455037,-0.10522353528160779,-0.08707990717506875,0.004512985975760109,0.01986808529546344,-0.013959395539083702,5.0
0.4005534413793866,-0.10522353528160779,-0.08707990717506875,0.003432896836427364,0.0069803654599912765,-0.0003229741718122556,5.0
0.40857131452455037,-0.06846864943040452,-0.10167139444981727,0.008833347473193372,0.008661372682909889,0.009417327229096528,5.0
0.4165891876697109,-0.09297191857896647,-0.06762460499861561,-0.0035876883326881456,0.007540700631440564,0.04156031917909164,5.0
0.4005534413793866,-0.0807202661330459,-0.10167139444981727,-0.021409175135551458,0.002497680671255466,0.02889792854591194,5.0
0.39253556823422603,-0.0766364177276852,-0.023850164459187344,-0.040850795750332694,-0.01879507463809573,0.07078122189681582,5.0
0.3885266316616454,-0.08480415028168604,-0.05303313900868443,-0.041930886536366195,-0.02944145229277134,0.06883316339863665,5.0
0.4125802510971303,-0.13381065283553045,-0.08221609227336413,-0.032210076048867685,-0.01991574668956506,0.06493704046226968,5.0
0.40857131452455037,-0.1419784211328108,-0.08707990717506875,-0.007908049830121408,-0.004786682537582911,0.04837852986272735,5.0
0.4165891876697109,-0.1378945369841706,-0.11139904553804382,-0.01006822975548766,0.0237904351263213,0.014287477187049842,5.0
0.4005534413793866,-0.11339130357888814,-0.07735225608684211,-0.01600872496192004,0.01986808529546344,-0.0012970049059039964,5.0
0.39253556823422603,-0.10522353528160779,-0.08707990717506875,-0.016548769943261602,0.036117820003915516,0.030845988529093267,5.0
0.40456237795196975,-0.10522353528160779,-0.08221609227336413,-0.03275012061853406,0.027712784743607815,0.03474210849545592,5.0
0.40456237795196975,-0.09705580272760661,-0.08707990717506875,-0.038150570431949686,0.022109427903402683,0.030845988529093267,5.0
0.40456237795196975,-0.09705580272760661,-0.08707990717506875,-0.024109400299556268,0.01594573578496259,0.02402777803108282,5.0
0.39253556823422603,-0.08888803443032627,-0.06762460499861561,-0.041930886536366195,0.008661372682909889,0.03766419921272898,5.0
0.396544504806806,-0.10522353528160779,-0.06762460499861561,-0.020329085018490137,0.0052993582370726615,0.05811883126363616,5.0
0.39253556823422603,-0.11747515198424885,-0.08707990717506875,-0.02518949046807699,-0.004786682537582911,0.04643046987954602,5.0
0.40456237795196975,-0.12155903613288907,-0.0968075582632953,-0.037610526685633694,-0.012631381772155944,0.0493525605968191,5.0
0.396544504806806,-0.11339130357888814,-0.08707990717506875,-0.015468679568903288,0.001937344645520805,0.053248680563181744,5.0
0.4165891876697109,-0.15014615368681175,-0.10167139444981727,0.015313885602591358,0.014264728882400992,0.04643046987954602,5.0
0.4205981242422909,-0.1256429202815293,-0.07735225608684211,0.01747406717465837,0.026031777520689203,0.012339417203868516,5.0
0.40857131452455037,-0.09297191857896647,-0.11139904553804382,0.022334472418407622,0.014264728882400992,0.021105687777872927,5.0
0.396544504806806,-0.09705580272760661,-0.0968075582632953,0.026114786876123373,0.01986808529546344,0.0035731457945503958,5.0
0.4005534413793866,-0.08480415028168604,-0.12112669662627037,0.0007326715180443545,0.012023386274461745,0.018183597524663035,5.0
0.4005534413793866,-0.09705580272760661,-0.10167139444981727,-0.014388589606220166,0.02266976350199466,0.026949868191480077,5.0
0.40857131452455037,-0.10522353528160779,-0.09194374336159067,-0.009528184362470908,0.01594573578496259,0.023053747946679522,5.0
0.40857131452455037,-0.10522353528160779,-0.09194374336159067,-0.022489265201153383,0.00978204388009384,0.00162508581136907,5.0
0.4005534413793866,-0.10522353528160779,-0.10167139444981727,-0.026269580430760112,0.012023386274461745,0.011365387212277854,5.0
0.4125802510971303,-0.12155903613288907,-0.10167139444981727,-0.002507599193355407,0.0237904351263213,0.02013165769346963,5.0
0.4125802510971303,-0.12155903613288907,-0.10167139444981727,0.006133120508109612,0.031074798335159668,-0.0022710341549935786,5.0
0.40456237795196975,-0.09705580272760661,-0.04330548792045788,0.0007326715180443545,0.01986808529546344,-0.008115214104537558,5.0
0.4205981242422909,-0.10522353528160779,-0.07735225608684211,0.01099352575185886,-0.02439843147830086,-0.026621786172263375,5.0
0.4205981242422909,-0.10522353528160779,-0.07735225608684211,-0.0003474192679891553,-0.05241521226218505,-0.03246596760680951,5.0
0.4205981242422909,-0.11339130357888814,-0.10167139444981727,-0.006827959044087904,-0.0423291706332441,-0.0422062690077183,5.0
0.39253556823422603,-0.1419784211328108,-0.06762460499861561,0.019094203353708625,-0.019355410663830404,-0.010063275572721051,5.0
0.39253556823422603,-0.1419784211328108,-0.06762460499861561,0.026114786876123373,-0.03840682187024295,-0.0022710341549935786,5.0
0.4005534413793866,-0.10522353528160779,-0.07248844118513757,0.03637564275663864,-0.046811858839121395,-0.023699696939992486,5.0
0.4165891876697109,-0.08888803443032627,-0.06762460499861561,0.039075869721722396,0.00025633827688756176,-0.014933426273175432,5.0
0.4165891876697109,-0.08888803443032627,-0.06762460499861561,0.03367541579155488,0.026031777520689203,-0.017855515505446347,5.0
0.3805087585164848,-0.14606230528145095,-0.13571816261620154,0.008833347473193372,0.05685023757896131,-0.06850508100816943,5.0
0.40857131452455037,-0.13381065283553045,-0.12599051152797497,-0.014928634999236915,0.09103071464592676,-0.10357016367543762,5.0
0.4165891876697109,-0.12155903613288907,-0.10653520935152185,-0.023029310233954343,0.07029829536231023,-0.10941434807998805,5.0
0.4286159973874553,-0.07255253357904473,-0.06762460499861561,-0.033830210581217185,0.04284184718701922,-0.02272566620590073,5.0
0.4165891876697109,-0.06030091687640363,-0.05789695391038906,-0.04841142631246495,0.026592113546423865,0.00454717652864214,5.0
0.3885266316616454,-0.06438476528176434,-0.07735225608684211,-0.03167003065585093,-0.0036660121946843326,0.03863822994682073,5.0
0.3885266316616454,-0.06846864943040452,-0.04330548792045788,0.006133120508109612,-0.009269369034889464,0.06298898196409053,5.0
0.37649982194390486,-0.0766364177276852,-0.07735225608684211,0.020174290846340627,0.0008166725940514825,0.08539167399817903,5.0
0.3845176950890654,-0.10113965113296733,-0.05303313900868443,0.031515237512889385,-0.004786682537582911,0.09805406166135441,5.0
0.39253556823422603,-0.10522353528160779,-0.06276079009691103,0.051496907174304676,-0.02944145229277134,0.12727496586408074,5.0
0.4125802510971303,-0.09297191857896647,-0.04330548792045788,0.05041681638827116,-0.02327775942683155,0.10195018459772134,5.0
0.4205981242422909,-0.109307419430248,-0.06276079009691103,0.05959758148275292,-0.017674402586626427,0.09415794466499605,5.0
0.40857131452455037,-0.10113965113296733,-0.12112669662627037,0.050956861781287915,-0.005347018563317563,0.00454717652864214,5.0
0.4125802510971303,-0.11747515198424885,-0.12112669662627037,0.05959758148275292,-0.010950375403522694,-0.0012970049059039964,5.0
0.4286159973874553,-0.109307419430248,-0.09194374336159067,0.04015596050775591,0.013144057471645697,0.021105687777872927,5.0
0.42460706081487215,-0.09297191857896647,-0.08707990717506875,0.016934021781641627,-0.01543306190082925,0.07565137259727021,5.0
0.4165891876697109,-0.06438476528176434,-0.10167139444981727,0.0018127606573770934,0.013144057471645697,0.0931839139309043,5.0
0.40857131452455037,-0.043965416025122064,-0.0968075582632953,-0.023569355318214705,0.026592113546423865,0.07565137259727021,5.0
0.4205981242422909,-0.052133148579122955,-0.07735225608684211,-0.05003156084481445,0.04844520402722435,0.02500180820829875,5.0
0.4125802510971303,-0.06438476528176434,-0.08221609227336413,-0.03275012061853406,0.10391843640354101,-0.020777604737717236,5.0
0.4125802510971303,-0.03579764772784171,-0.12112669662627037,-0.027889715374784806,0.06245359441916644,-0.05389462593680195,5.0
0.39253556823422603,-0.048049264430482776,-0.05303313900868443,-0.05597205687459721,0.03723849034681409,-0.008115214104537558,5.0
0.40456237795196975,-0.109307419430248,-0.07735225608684211,-0.06785304893416273,0.04172117513554989,-0.039284176805443084,5.0
0.4205981242422909,-0.09297191857896647,-0.09194374336159067,-0.06677295814812922,0.08094467301698581,-0.04123223827362657,5.0
0.40456237795196975,-0.0807202661330459,-0.06762460499861561,-0.03437025597423394,0.04676419595002037,-0.021751635471809,5.0
0.396544504806806,-0.0807202661330459,-0.05789695391038906,0.0066731659011263576,0.047884868001489694,0.006495236511823462,5.0
0.37649982194390486,-0.10522353528160779,-0.08221609227336413,0.008833347473193372,0.049005540052959026,0.05130061909499826,5.0
0.37249088537132424,-0.109307419430248,-0.09194374336159067,0.026114786876123373,0.023230099100586637,0.04350837916227296,5.0
0.4125802510971303,-0.0766364177276852,-0.0968075582632953,0.06391793804008392,0.019307749696871462,0.018183597524663035,5.0
0.4205981242422909,-0.08888803443032627,-0.08707990717506875,0.04987677099525442,0.030514463163710377,0.04643046987954602,5.0
0.4165891876697109,-0.13381065283553045,-0.1162628604397484,0.032595328298922886,0.022109427903402683,0.007469267245915203,5.0
0.4165891876697109,-0.09705580272760661,-0.10167139444981727,0.011533571144875625,0.011463050675869769,0.03571613922954765,5.0
0.4286159973874553,-0.10522353528160779,-0.10167139444981727,0.011533571144875625,0.027712784743607815,0.016235537170231167,5.0
0.4205981242422909,-0.0807202661330459,-0.10167139444981727,0.012073616537892365,0.039479832741182,-0.03343999834090127,5.0
0.40857131452455037,-0.10113965113296733,-0.10167139444981727,0.005053031368776851,0.060212253733369275,-0.02564775543817165,5.0
0.4005534413793866,-0.0807202661330459,-0.08221609227336413,0.012073616537892365,0.034436811926711525,-0.02272566620590073,5.0
0.4005534413793866,-0.07255253357904473,-0.03357783683223133,0.006133120508109612,0.040600504792651315,0.01331344719545918,5.0
0.4005534413793866,-0.06030091687640363,-0.05303313900868443,0.0012727169110611156,0.029954127137975718,0.02013165769346963,5.0
0.4005534413793866,-0.06846864943040452,-0.023850164459187344,-0.014928634999236915,0.014825064480992968,0.07175525263090758,5.0
0.396544504806806,-0.052133148579122955,-0.05303313900868443,-0.021409175135551458,-0.0008643337745817606,0.08052152032772032,5.0
0.396544504806806,-0.06846864943040452,-0.04330548792045788,-0.013308499643537038,-0.017674402586626427,0.09610600613317953,5.0
0.4005534413793866,-0.08480415028168604,-0.06762460499861561,-0.001967553800338643,-0.008148696983420137,0.0873397354663625,5.0
0.40456237795196975,-0.09297191857896647,-0.08707990717506875,0.023954608597457887,0.004178687039888709,0.07370331112908673,5.0
0.4165891876697109,-0.12155903613288907,-0.1162628604397484,0.04285618088603665,-0.007028026640521563,0.0824695817959038,5.0
0.42460706081487215,-0.10522353528160779,-0.11139904553804382,0.0466364986371539,0.0052993582370726615,0.021105687777872927,5.0
0.4165891876697109,-0.08888803443032627,-0.09194374336159067,0.029895104627240637,0.020988756706218734,0.021105687777872927,5.0
0.4125802510971303,-0.08888803443032627,-0.06762460499861561,0.01261366193090911,0.02827311991505711,0.016235537170231167,5.0
