acc_x,acc_y,acc_z,gyro_x,gyro_y,gyro_z,activity
-1.0171150707616052,0.34082746014935716,2.4912819444335805,-0.25300749175382736,-0.26931534714596694,-0.06877272168095942,0.0
-1.0171150707616052,0.3300780094500725,2.521441124697058,-0.18030087786246748,-0.0283081684156284,-0.05445755815566053,0.0
-1.0420508261530412,0.32649485921697763,2.502591637032384,-0.1765586298480734,0.11098956756481927,-0.05843399516266801,0.0
-1.0349263067967005,0.31574540851769295,2.4950518419665153,-0.1786970544903778,0.06824211582417547,-0.06400100697247851,0.0
-1.0349263067967005,0.31932855875078786,2.4498130715713,-0.13592846220694144,0.3151454965769684,0.012346535062424913,0.0
-1.0669865815444772,0.34799376257559606,2.4422732765054307,-0.11721720277729043,0.14562974967116152,0.10539509797686769,0.0
-1.0598621245438933,0.31574540851769295,2.4045745651375414,-0.32036803425870347,-0.5228519509602763,0.3710209202962267,0.0
-1.0598621245438933,0.31574540851769295,2.4045745651375414,-0.32036803425870347,-0.5228519509602763,0.3710209202962267,0.0
-0.9565567809442223,0.3085791041314048,2.438503378972496,-0.5133613097700443,-0.6577275607063517,0.5507557372139721,0.0
-0.9672435599787336,0.31574540851769295,2.468662559235973,-0.5245880668541905,-0.7579629613781186,0.4958809550169093,0.0
-1.0028660320489238,0.30141280366521506,2.4724324567689075,-0.4631082165674585,-0.42630170492509156,0.3240989927133226,0.0
-1.0242395901179462,0.25483185063498154,2.4950518419665153,-0.40055913765836954,-0.029782210493752504,0.18969550917582204,0.0
-0.9993037723707534,0.2082508897645513,2.4875120469006458,-0.30753744728198573,-0.05778916279658666,0.1380018571845089,0.0
-0.9423077422315407,0.19750144690546337,2.4535829691042346,-0.20810046341724328,-0.32754033734212673,0.254113740189703,0.0
-0.9458700019097109,0.23691609162931038,2.4875120469006458,-0.056271955187128575,-0.4977931007923346,0.12527726846201304,0.0
-0.9921792530144126,0.27633075203355084,2.4875120469006458,-0.2027543920307595,-0.6606756268839556,-0.02185079894801931,0.0
-0.9993037723707534,0.28708020273283547,2.4875120469006458,-0.334802425046065,-0.48305262607516103,-0.12126166107367405,0.0
-0.885311712092328,0.22258349069693084,2.4611227641701037,-0.21237732574281581,0.16995157430538008,-0.022646086349420797,0.0
-0.885311712092328,0.22258349069693084,2.4611227641701037,-0.1300477813996406,0.31146037789767494,0.09585165885997778,0.0
-0.9173720491958615,0.20466774737165316,2.4045745651375414,-0.15677815137302328,0.22743952098917253,0.17776620785472766,0.0
-0.9173720491958615,0.20466774737165316,2.4045745651375414,-0.12790935186697483,0.09624906812700963,0.05529202685081259,0.0
-0.9743680793350742,0.2512487004018866,2.4422732765054307,-0.10224819421474433,0.08666774293060071,0.05370145204800959,0.0
-0.9458700019097109,0.24766555016879174,2.434733481439561,-0.13111699535091328,0.08224559197559254,0.08869407709732834,0.0
-0.9244965685522024,0.23691609162931038,2.412114360203411,-0.1225632772202501,-0.03715246583098366,0.050520304867385624,0.0
-0.963681300300563,0.24766555016879174,2.37064548734113,-0.1637280493918377,-0.2855298909092313,0.3026262425754101,0.0
-0.963681300300563,0.24766555016879174,2.37064548734113,-0.19580449727218605,-0.26194510978738017,0.38454079642012406,0.0
-0.9173720491958615,0.272747601800456,2.4158842577363453,-0.05947960193130798,0.4514951394118458,0.26047603940091496,0.0
-0.9173720491958615,0.272747601800456,2.4158842577363453,0.10624870885691749,0.47139480185440347,0.25490903729103254,0.0
-0.9387454825533703,0.24049924970260203,2.4045745651375414,-0.0616180298338533,-0.25015270124781025,0.32171312080919,0.0
-0.9993037723707534,0.28708020273283547,2.3932648725387375,-0.24498838141386073,-1.0159217004161223,0.29546866566272467,0.0
-1.0028660320489238,0.20466774737165316,2.434733481439561,-0.26102660209379397,-1.2473476281119595,0.11732440414792612,0.0
-0.9957415126925832,0.1903351464392736,2.4573528666371693,-0.11721720277729043,-0.49115987997814875,-0.040937682031763144,0.0
-0.8568137593784784,0.19391828883217177,2.4422732765054307,0.1559672007892887,0.6062704116004789,0.17617563305192466,0.0
-0.8568137593784784,0.19391828883217177,2.4422732765054307,0.298172781827829,0.8907620698525149,0.3240989927133226,0.0
-0.9066852701613504,0.21183404783784293,2.4573528666371693,0.3628602918997042,0.26871293289902276,0.893524384119672,0.0
-0.9280588282303728,0.2297497911631206,2.438503378972496,0.008950156154961237,-0.38945044621757996,0.46168362585642897,0.0
-0.9102475298395208,0.21183404783784293,2.438503378972496,-0.21505036469629865,-0.3319624725658212,0.1793567826575306,0.0
-0.9102475298395208,0.21183404783784293,2.438503378972496,-0.22681172957114124,-0.13812489203647355,0.028252272178035796,0.0
-0.8425647206657968,0.1258384265631722,2.389494975005803,0.25112732232845875,1.200312614229781,0.05290616585909911,0.0
-0.8532514997003081,0.05059226382798275,2.3631056922752607,0.8060498830474006,1.4980707500674777,0.41953340328207755,0.0
-0.9387454825533703,0.047009137115478064,2.4611227641701037,1.5603809606021868,1.5120742441975392,0.6764110884358403,0.0
-0.8532514997003081,0.05059226382798275,2.645847479322444,2.1201148805892047,0.4890834146637584,0.9571473762317916,0.0
-1.031364109474287,0.17241938743360247,2.608148503993097,1.942090701463152,2.230673609207572,1.2609469501687463,0.0
-1.0705488412226478,0.4196567731176413,2.5327508172958617,1.5822997952544813,4.348883680686777,0.8163815546833671,0.0
-1.1702919251441484,0.5128186830982067,2.385725077472868,1.2925426204752541,4.901652489384873,0.14118300679011492,0.0
-1.6761317082185998,0.6597278504952937,2.3819551799399337,1.1091722721554877,7.422277980896216,1.1130235905073487,0.0
-1.5122681059794245,0.30141280366521506,2.864501008309738,2.0335084837011803,3.804221946105227,1.331727480393839,0.0
-0.8924362314486688,0.4877366314665425,1.891869424523532,0.6601019887896471,-1.1080498831421899,1.5416831991649853,0.0
-0.8568137593784784,0.5164018411714982,2.2537789277816134,-0.5470415810224822,1.168620507290365,1.7341426533048672,0.0
-1.3555290542744678,0.6310626486305346,2.755174243816089,-0.1963391050628826,3.3892768492880956,2.103155697157464,0.0
-1.8186217991555707,0.9033820977065328,2.400804667604607,-1.1308328711522924,6.776643865055786,2.8324336913467376,0.0
-1.9967344089295496,0.7851381321742048,2.359335794742326,-3.102465203472562,10.410914911054794,4.4659531020321745,0.0
-2.1712847668198276,0.8890494967741531,2.359335794742326,-3.9321759729950823,9.493318274387988,4.574112111023354,0.0
-1.8720555852055525,0.5629827863615351,2.6835461906903326,-3.506093674658111,5.252476535565211,3.6929340194679057,0.0
-1.8684933411163211,0.31574540851769295,2.838111725579195,-0.8116722352823441,-1.1485861886144177,3.06306694075389,0.0
-2.007421164580652,-0.03182018369300256,2.476202354301842,-1.547292085806124,0.6386994991270073,4.108869107302544,0.0
-1.7046297232882064,0.0004281762450479205,2.355565897209391,-3.0452621111836926,4.038596155722398,3.1330523096766476,0.0
-1.9326138750229356,-0.3041396327690008,2.9964471580009926,-0.9244744334759468,6.724315366787721,0.8521694780465062,0.0
-2.1926582781220323,-0.35788687842522754,2.758944141349026,2.5985884685542,9.31864351954324,1.0645110687217851,0.0
-2.6415020544406804,-0.5012128877490226,2.49882173949945,1.289334960690111,7.442914587968597,2.9771758626028175,0.0
-3.1045948149107225,-0.7735323995465948,2.163301518971911,-2.1342911139668597,3.8948760238279156,4.93199103425705,0.0
-3.1224061133015746,-0.5513770380535317,2.2386993376498747,-3.2168711793948814,-0.23688625961943846,5.538794943229196,0.0
-3.2114624181885643,-0.03898649983958595,2.4083444626704757,-2.462540101840095,0.7212463229467082,5.031402104931159,0.0
-3.0012895336668084,0.24766555016879174,2.8607311107768036,-0.35297907688878455,7.2829800201827135,4.330754107994929,0.0
-2.930044464814914,-0.2002282368082654,2.608148503993097,-0.009226502208240166,9.44320071788126,5.351902626998192,0.0
-3.279145227362288,-0.43671616787292133,2.0690543446100027,-1.9215172523925181,4.312032350064688,7.436349189184248,0.0
-3.4501333177799256,0.036259662895603374,2.3631056922752607,-2.806292604795339,2.463573569992211,7.788661750503312,0.0
-3.503567088240968,0.4984860821658271,2.1670714165048457,-2.5074471301766805,1.0241636105524998,5.93246178982603,0.0
-3.524940521598477,0.44473882474930554,1.9371081949187476,-2.368983810193497,-3.3169139604295066,4.481858811260491,0.0
-3.418072980676392,0.3551600630417859,2.0388951643465254,-1.9920855590102478,-6.901803855192278,2.1795032876920075,0.0
-3.1758398214068597,0.16166994457451453,2.359335794742326,-1.496504417415251,-7.229779777222281,1.9735239962279407,0.0
-2.8196146642146593,0.3730758156772972,2.6533872743883125,-0.7507270123477546,-5.163898923156912,2.909576520783042,0.0
-2.6236907560498284,0.31574540851769295,2.604378606460162,-0.0231262917253871,-3.2527926221344092,3.2038326071034664,0.0
-2.5025742075929407,0.20466774737165316,2.434733481439561,-0.010295717789633275,-4.27062437181467,4.279856024702928,0.0
-2.7269960996494995,0.49131978169963736,2.7212451660196773,0.43182461213329665,-3.044951727261441,3.36289000978434,0.0
-2.930044464814914,0.1365878851026536,2.973827772803384,0.8001691386654012,1.0101601164224385,3.2929049512592825,0.0
-2.8018033658238073,-0.006738139901535183,2.951208387605778,0.3922637008265697,3.9265682026819078,4.86041518753077,0.0
-2.8018033658238073,-0.006738139901535183,2.951208387605778,-0.8453525065347823,3.1659584991108445,6.407247970765676,0.0
-3.004851793344979,0.2297497911631206,2.397034770071672,-1.4564087744286716,0.4772910061241885,4.691019058331603,0.0
-3.1045948149107225,0.1258384265631722,2.559139836064947,-1.664905721513586,-1.0638283151615142,3.5155851908534275,0.0
-3.1045948149107225,0.1258384265631722,2.559139836064947,-2.3679144511615027,-1.3350534958278897,2.8610641541963284,0.0
-3.115281593945234,0.1365878851026536,2.943668592539907,-2.820192394312487,-1.2834618343177815,3.583184532673203,0.0
-3.040474265415169,0.03984282096889496,2.668466600558594,-2.9554480545105255,-0.9473784066837719,3.0503424975303144,0.0
-3.040474265415169,0.03984282096889496,2.668466600558594,-3.1409569122388605,-3.542443540026404,2.1635975784636896,0.0
-3.0903458385537976,0.036259662895603374,2.6194581965919013,-3.2505512941557555,-3.0736956961086777,1.5337303445508266,0.0
-2.912233228779819,0.04342597904218655,2.600608708927228,-3.5809387914375583,-3.3721906687043317,0.6048352417095616,0.0
-2.759056374397276,-0.06765170170434491,2.6194581965919013,-3.039915941989981,-2.899757634192732,0.250932590584097,0.0
-2.4883252000581373,-0.29697331662241777,2.4875120469006458,-2.0867110010334207,-2.799522233520966,1.2116391118819974,0.0
-2.3208993537297307,-0.38296892221669476,2.340486307077653,-1.8851640530347888,-3.4488412522969583,2.1405342535229743,0.0
-2.3743331397797123,-0.3148891069888758,2.351795999676457,-2.14765632829572,-2.929238871285388,1.8852470461727342,0.0
-2.370770880101542,-0.33638799270705166,2.2990174342153717,-2.434740522805801,-3.280799610394531,1.5218009850301637,0.0
-2.2852768348927226,-0.5907916514165916,2.0916735978268814,-1.7189010496896024,-2.5961035098289837,2.098383953349199,0.0
-2.2033450337731346,-0.48688031817743016,2.1482219288401723,-0.5849986885185653,-3.452526442890828,1.2728762320899845,0.0
-2.338710620942704,-0.5907916514165916,1.8994092195894012,0.17735148633522382,-5.116729288998633,0.254113740189703,0.0
-2.3066503461949273,-0.6373726436478088,1.9521876530697575,1.3128577295626875,-4.6966247527551,0.06483546960517551,0.0
-2.1427867478529867,-0.683953573157452,2.155761723906042,3.0931003554449124,-2.419954506151701,0.9348792901928377,0.0
-2.2247185450753393,-0.9455236107351491,2.5327508172958617,4.911835107404277,-1.7300989661597488,1.9639805086114104,0.0
-2.2033450337731346,-1.0673507343407689,2.4799722518347767,4.864254994470838,-4.511631406715853,2.332993552464007,0.0
-2.2033450337731346,-0.8738605747124647,2.5666796311308158,0.8279687176996952,-6.323238999995397,3.6897530638608584,0.0
-1.7723125324619302,-0.6194568532813505,3.0303762357974042,-0.9437202878590953,-3.9809734539226724,3.93549678359457,0.0
-1.5906376630097812,-0.6051242837097581,3.5016123715684047,-0.9260782633685182,-2.062497347029043,3.189517686076369,0.0
-1.4873323505879885,-0.8989425557823583,3.607169238529116,-0.7950994133321964,-1.624704413719887,2.589075998716009,0.0
-1.7580635249271268,-1.2214261551628651,3.1434728978239868,-2.42725584420352,-5.651809412972798,3.5418296266000397,0.0
-1.9112403637207305,-1.3504195949150684,2.4309635839066264,-3.9872405558753847,-8.578535946597611,4.605128290578226,0.0
-1.9539873863251402,-0.9921045402447926,2.596838811394293,-4.220329109226318,-4.410659025456975,4.842123761597169,0.0
-1.1239826116836897,-0.683953573157452,3.2264103795870898,-4.030543649991685,-1.20017799395368,4.60910479548473,0.0
-0.9244965685522024,-1.0601844181941855,3.05676525456649,-3.988844281440245,-3.733333018420858,3.7883685852355073,0.0
-1.1881031611792436,-1.8341448058211067,2.4950518419665153,-5.015290404955971,-6.653426439103352,2.198590107726219,0.0
-1.1168581546831058,-1.5510759452468075,2.4045745651375414,-6.973022843431385,-7.329278484965245,2.3910495618661005,0.0
-0.9672435599787336,-1.3468364368417762,2.1859209041695187,-8.503069258004965,-8.342687775806214,2.4053647932908957,0.0
-0.7463839587782234,-1.1282642961435785,1.5676590285755256,-12.239441014108582,-10.457949781107814,2.1588258346554245,0.0
-0.7250104007092013,-1.4435814539343546,1.0474142248763751,-15.475419512973234,-9.530771821491935,2.0808876111185097,0.0
-1.245099191318456,-1.493745541517289,1.7184545339507247,-11.287304597562333,-1.1006795738690258,0.6652770454163632,0.0
-0.8781871927359873,-1.9953866682329338,1.6015879743912085,-7.792041691877322,-2.5570409497872473,-0.11410407446106059,0.0
-0.7570706131012209,-2.084965369178929,0.5837178181808801,-8.84254495079849,-7.442042843276229,0.09982809101702124,0.0
-0.5397732715788814,-1.8914753349937727,0.14641062822556333,-10.713136625853013,-6.530343201939559,1.4470440274979914,0.0
-0.7570706131012209,-1.683652543072302,0.5799479206479455,-9.25205458367688,-6.598149443170221,1.3301368473914679,0.0
-0.9173720491958615,-1.3826678921315445,0.3499846660666654,-6.218691765876597,-7.279160353141897,-0.4465339851485409,0.0
-1.0278018497961166,-1.1461799610668886,0.014464488845302903,-4.648549708316438,-4.037724411030031,-2.7655906508456654,0.0
-1.31278200049218,-1.0530181020476022,-0.33990513067235745,-4.524520753038689,-3.5512878823883702,-2.0371077403593048,0.0
-1.2557859703529672,-1.0100203306112505,-0.4907007020379211,-4.395146045878071,-3.4097789799135305,0.875232802987222,0.0
-0.7356971797437125,-1.4794130346672707,-0.4341523710246301,-3.2195440553363173,-3.2218377115258354,1.5679276349115945,0.0
-0.8318779416312858,-1.6048231909030342,-0.4190728138880737,-1.2110240527977412,-1.9887948296140197,-1.0374321460926588,0.0
-0.8033799889174362,-1.6478210877825334,-0.5472490660463939,-0.5983639028474251,-3.896215508555193,-2.8594344284120496,0.0
-0.6929501883171814,-1.8413111219676896,-0.9770164609358414,0.833314782565697,-3.6463641312920436,-3.2276520781640357,0.0
-0.6608898512136478,-1.8843090188471894,-0.9920960510675803,2.8391619091628377,-0.7535407901971354,-2.6940148041193868,0.0
-0.5148375785432023,-1.9523887713534347,-0.9468573466627289,2.345184597460413,0.03286491492610174,-3.281731737858474,0.0
-0.7891309502047548,-1.9273069157266887,-1.2295990017291831,0.21744705107602064,-1.4153892700143873,-2.5484772387626973,0.0
-0.8318779416312858,-1.7803976856080277,-1.018485267807758,1.0140121506163178,0.4220141540202096,-3.661083663428211,0.0
-0.8461269803439674,-1.4865792253707062,-0.9883261535346455,2.602330912183052,1.4221571470619632,-4.775280410698401,0.0
-0.6537653318573069,-1.4507477700809377,-1.3012269228742124,1.5229584022124638,-1.556161048072959,-3.487711029322543,0.0
-0.7107613619965195,-1.7266503145086536,-1.1504314174990131,0.5200348389138931,-0.5228519509602763,-1.3682714722774083,0.0
-0.9743680793350742,-1.5188276480303307,-0.8111412994385394,1.964009536115446,1.0595407642566324,-1.156725198103315,0.0
-0.9708058196569039,-1.3432532787684845,-0.7734424560899216,3.226217714889804,1.125135991811379,-2.0060915608044305,0.0
-1.0776733605789883,-1.3647522272082344,-0.6301866137998628,3.0006134228303094,2.591815815094947,-2.2287718003985764,0.0
0.09786996369848273,-2.554358073234948,-0.7847520826983612,0.8905177705268563,1.341084392288353,-4.3203764438935774,0.0
0.1477413497698409,-2.471945688435538,-0.6829650472802192,-0.4561583218088848,2.2675247960005063,-0.9825573250958837,0.0
-0.36878518116124365,-2.0276350908925584,-0.6980446374119577,-0.595156243062282,1.36024703818651,-1.5845894902597666,0.0
-0.2832911983081814,-1.9416392971335596,-0.731973649218005,0.12923682429542413,1.1782018302394435,-2.035517107356933,0.0
-0.19067257138726468,-1.6549874039291168,-0.9807863584687763,1.1647714302240755,1.9314413683664962,-1.9981387061902716,0.0
0.0693718862731195,-1.5224108061036221,-1.1919001583805655,0.4569511587345895,0.18911422020353683,-0.4425575578414615,0.0
-0.8639382787348193,-0.726951344593804,-1.4218633799666633,-1.6237409281504325,-3.0346334237252512,-0.2866813435659048,0.0
-0.6110183404307759,-1.5797412098331405,-0.5208598163110337,-4.768836637276178,-1.0063403774670439,-1.5718648918373426,0.0
-0.20848386977811675,-1.76248189524157,-0.4190728138880737,-4.6025737382587,-1.8502341371459392,-0.5618505710524054,0.0
-0.2761666789518405,-1.823395331601232,-0.3549846878089136,-1.8990638425519357,-1.7138843864391962,1.802537234026403,0.0
-0.8568137593784784,-1.622738981269492,-0.2833567831614753,-0.9073669841736565,0.677761807467722,3.587956276481468,0.0
-1.0847978799353293,-1.239341945529323,-0.5849479753853759,0.2821345611478958,3.3406332539555925,3.214966882921217,0.0
-0.9601190406223926,-0.8917763650789228,-0.8488402087775213,1.2273204830512368,2.5085321185599994,-0.7710110509217905,0.0
-0.8817494524141576,-0.6732040989375772,-1.13158192983434,0.35430656724855913,1.2725410266414257,-4.816635316771563,0.0
-0.5362110119007114,-0.5477938799802399,-1.2446785918609216,-1.6376407176675793,1.2474821764734836,-8.3548667443233,0.0
0.41847258646473656,-1.3325038045486097,-1.2333688992621177,2.5756004835253337,-5.0555558730519845,-2.903175051190498,0.0
0.7390752092309898,-1.5976570001995987,-1.161741110097817,0.13190985672842512,-3.375875859298202,-4.579639845752625,0.0
1.0668023513535847,-2.3357859325367505,-0.2607374474566408,0.4687125431708779,-0.3540732205988704,-1.55993553231668,0.0
0.6001473312053731,-1.658570562002408,-1.1278120323014051,-0.14768982545166354,0.9371946515091049,-2.4363417248650143,0.0
0.6001473312053731,-1.658570562002408,-1.1278120323014051,-1.2265276722074598,-3.326495283378587,-4.047593049511497,0.0
0.030187029813245118,-1.5797412098331405,-0.8036015703630346,-1.8520183048067829,-0.362180510459147,-4.800729607543248,0.0
-0.9850548583695855,-0.8666942585658813,-0.3926835971478956,-2.127341219208287,2.5977119474501538,-9.229682303869263,0.0
-0.4614036833706465,-1.407749998644586,-0.5321695089098377,-1.2709000210280463,1.7847734579527168,-10.044055982109,0.0
0.7319506898746492,-1.475829876593979,-1.075033598821049,-2.9982165734385413,3.193965199712659,-8.821699915449935,0.0
0.44697066389009976,0.06134173804785769,-0.9883261535346455,1.8244770657556901,-0.8058695761235104,-6.147150082024109,0.0
-0.3545361424485622,-0.4832971601041385,-0.9581670392615327,1.0717497137657641,3.9110907473776213,-7.157164325209622,0.0
-0.15505009931707445,-0.712618837743785,-1.1692807731829575,-0.5550607044034128,0.613640648959066,-5.590449327839897,0.0
0.5645249838466972,-0.8165301709829466,-0.9204681299225507,-0.29256844218344574,0.04613136442013044,-5.378903364063503,0.0
0.3792877300048619,-0.40446780793487047,-0.8488402087775213,-0.29684530450901814,-1.4942509391975058,-4.590773811172675,0.0
0.7283884301964795,-0.2683081147576585,-0.724433854152136,-0.3331986081944572,0.7507272723810554,-4.254367579877326,0.0
0.7533242479436733,-0.2002282368082654,-1.206979748512304,-0.26263041894540173,-0.6680459361571196,-1.317373078587713,0.0
0.7533242479436733,-0.2002282368082654,-1.206979748512304,-0.15838197474511298,0.856121896735495,-0.6509226824099485,0.0
0.4932797902832874,-0.11064950450148354,-0.999635780143085,-0.09155604655141537,0.7381978832543733,-0.3845016260387926,0.0
0.3579141719358395,-0.1679798768702148,-0.705584432477827,0.04904570785479426,1.1140806357734987,-0.15784486213828677,0.0
0.3579141719358395,-0.1679798768702148,-0.705584432477827,0.024453762523715984,1.3388733066978618,0.045748583793326913,0.0
0.6286454086307331,-0.04615278462538222,-1.1240421347684706,-0.15463972347047797,1.1914682718678153,2.4371762117475315,0.0
0.30448052618631105,0.28708020273283547,-0.999635780143085,-0.1963391050628826,0.3210417008467535,4.148633535572186,0.0
0.30448052618631105,0.28708020273283547,-0.999635780143085,-0.17709323763877,-1.4772993788898405,0.882390341100195,0.0
0.1085564933099665,0.1365878851026536,-0.8262208895702781,-0.2305539775855353,-2.749404677014236,1.1480161973693022,0.0
0.3294163439335037,-0.3686363526451022,-0.6716554206717795,-0.21184271795211926,-3.801876240238635,1.5456595488726403,0.0
0.3294163439335037,-0.3686363526451022,-0.6716554206717795,-0.45722752434931413,-5.420383125704074,1.2665139328787727,0.0
0.12993005137898886,-0.1572304653719139,-1.0448744845479363,-0.3765018196794334,-5.356262362725594,1.2800337702029578,0.0
0.4754684918924356,-0.3041396327690008,-1.3879344341509803,-0.29844912136062607,-4.7084173051238265,2.5970288533301673,0.0
0.4754684918924356,-0.3041396327690008,-1.3879344341509803,0.18590521098636892,-0.301744470629784,2.2868670577814254,0.0
0.5467136854558435,-0.41521728215474546,-1.565119222256722,0.07310303887469416,0.14047057093509968,1.1130235905073487,0.0
0.40422354775205455,-0.7054525215972016,-1.508570891243431,0.13244445799863977,0.34610055101469495,1.2490175906480834,0.0
0.4077858074302257,-0.7663660834000116,-1.478411710979954,0.4264785472672948,-0.10716983759874692,2.9063955651759983,0.0
0.37572547032669185,-0.6911198893040356,-1.3125366154730163,0.37943311384985207,2.1024312202756823,4.816674564752321,0.0
0.09430770402031244,-0.7735323995465948,-1.161741110097817,0.5644072920621902,3.0848857443372353,5.291460745691964,0.0
0.2937937471517999,-0.47254768588426366,-1.3577752538875032,-0.04718362926576883,0.03949814023494872,1.6752914050010124,0.0
0.037311549169586,-0.3184722023405935,-1.240908694327987,0.15810563195207503,0.8421184026054335,0.565070929839055,0.0
-0.5005885398305209,-0.1321483902196594,-1.161741110097817,0.27625386892975173,0.6040593260099875,-1.1742214627345797,0.0
-0.5932070420399238,-0.08198430263672458,-1.1466615199660786,0.5173618064808924,2.121593866173839,-1.1797885230440304,0.0
-0.3545361424485622,-0.0748179864901414,-1.2295990017291831,0.3275761907546946,2.709739900490646,-2.06971455291655,0.0
1.0098064459258855,-0.3077227908422925,-0.8676896964421946,0.5237771260511787,5.283431446173784,-2.5087128104930545,0.0
0.3864122493612028,-0.21456086910143182,-0.9770164609358414,0.9616205480051626,8.66342808075373,-1.2744276947110245,0.0
1.1558588433078445,-0.508379203895606,-1.0297948944161979,0.7162357742103773,8.23447948980654,-0.7145456745220685,0.0
1.3517826267611606,-0.2253103433213068,-0.7357435467509397,0.02979984043068166,3.6582911601077135,-0.7407901102686777,0.0
0.12280553202264825,-0.9096920300022331,-0.7772122876324921,0.023919161253501322,1.0027898790638516,0.08948935964876581,0.0
0.09074544434214214,-0.4976297296757313,-0.5208598163110337,-0.09636751340744353,0.24144299714058956,-0.2572557194139774,0.0
0.15486586912618178,-0.6302063275012255,-0.4228427114210082,-0.2455229826840754,-1.0188698385083035,-0.30656351890101435,0.0
-0.07668051110883921,-0.47254768588426366,-0.705584432477827,-0.40911286230951466,-0.596554504332588,0.7328764260358503,0.0
0.3329786036116743,-0.40446780793487047,-0.7206639566192011,-0.29363765776483897,-0.8456689010086259,1.3842164294864818,0.0
0.6607057457342699,-0.5442107219069484,-0.1551805475007462,-0.13699767778833455,-0.28847799304412386,0.7129942895004531,0.0
0.6286454086307331,-0.44746564209279627,-0.4153029163551391,-0.19740832064427574,-0.6791012921950002,0.23661743675872618,0.0
0.5787737731363501,-0.43313307252120375,-0.6188769871914234,0.0014656470852092692,-0.3378586768356063,0.21832583622641982,0.0
0.6820793038032905,-0.5262949315404902,-0.7659026610240526,0.06882618959008535,-0.06589644366754094,0.19049079657722356,0.0
0.3365406138668169,-0.6051242837097581,-0.7093543300107615,-0.19687371285357919,0.02770573843737046,0.1594746073224213,0.0
0.25460889069192577,-0.5442107219069484,-0.6528059330071064,0.12549456324006636,-1.0910982509199474,0.10221395322122573,0.0
0.4932797902832874,-0.4832971601041385,-0.4266125759587608,0.4152517901831488,-0.14696919844115094,0.2819487895388273,0.0
0.4754684918924356,-0.39371839643656986,-0.9242380274554853,0.2441774275698852,1.0750182914754958,0.3590916189751323,0.0
0.38284998968303247,-0.4402993259462131,-0.8224509920373433,-0.08834840143735644,1.164198336109382,0.20719181260679886,0.0
0.1085564933099665,-0.7018693635239102,-0.44546203062825174,-0.24178073466968134,0.0785604665543075,-0.3638241730022097,0.0
0.29735600682996993,-0.6015411256364664,-0.5585587256500157,-0.16586648055462397,0.203854721888677,-0.44573870744706745,0.0
0.3329786036116743,-0.46179827438596266,-0.6301866137998628,-0.30165676810480546,0.34978568767263274,-0.5872997678972534,0.0
0.3009182665081411,-0.5585432914785408,-0.5547888281170812,-0.5021345526858982,0.2267025044447715,-0.8728077607017578,0.0
0.32229182457716343,-0.5513770380535317,-0.5246297138439683,-0.701008546497311,0.4109587620250408,-1.189331933061136,0.0
0.24392211165741462,-0.38296892221669476,-0.5962576019938155,-0.8533716559976404,1.2614856706035449,-1.629125507138826,0.0
0.1477413497698409,-0.4008847125831529,-0.5736382827865723,-0.9383742229930937,1.23274170175631,-2.464176793613995,0.0
0.4505329235682698,-0.5334612476870734,-0.48316093996723375,-0.8485601663199255,1.3071812716730227,-2.04187948416757,0.0
0.4505329235682698,-0.2002282368082654,-0.5020103946367248,-0.6218866195561467,0.5989001382846035,-1.2736323006104142,0.0
0.653581226377927,-0.5047960458223144,-0.46808138283067763,-0.19847752970518698,0.22449141885428,-1.8303332099934766,0.0
0.6037095908835428,-0.2253103433213068,-0.47562114490136465,0.021246128820500386,0.05423864023459102,-0.9539270174451419,0.0
0.5039665693177972,-0.1393147063662427,-0.5623286231829503,-0.043975982521589414,0.20090661975378454,-0.45766798936830577,0.0
0.5360269064213309,-0.2181440271747237,-0.5170899517732813,-0.09904055073080588,-0.026097091814459066,-0.4099507840839283,0.0
0.5324646467431606,-0.24680922903948269,-0.4190728138880737,-0.020987867083082735,-0.6105579265480723,-0.3717770276163687,0.0
0.8067578936931995,-0.09273374549581237,-0.5133200542403467,0.22225851467180788,-1.0284511614573817,0.49747151041985593,0.0
0.3579141719358395,-0.1321483902196594,-0.3964534616856481,0.18216294993101095,-1.1176312060912683,0.8982961279279371,0.0
0.4683439725360947,-0.4510488001660878,-1.6367471434017513,0.2746500390371801,4.040070116896624,0.4537307324425579,0.0
0.6037095908835428,-0.38296892221669476,-0.332365335606488,0.0025348626666024283,1.7324446720263418,0.0775600583276714,0.0
0.6037095908835428,-0.39013523836327807,-0.796061775297165,0.05973786366872563,4.143253439916838,-0.14193911411025684,0.0
0.3864122493612028,-0.23247659674631618,-0.21926865708231524,0.27785769882232336,3.8167514790610624,-0.09024547181887177,0.0
0.19761298526422647,-0.1572304653719139,0.006924710277024719,0.07577608434865878,1.2740151316448045,0.0918752218529703,0.0
0.40422354775205455,-0.16439678151849701,-0.1966493213774807,-0.1225632772202501,0.22965060657966396,0.6787969215402606,0.0
0.4861552709269473,-0.24680922903948269,-0.18156976424092433,-0.05894499414061141,0.6055333590987894,0.3073979669838192,0.0
0.46478171285792413,-0.3184722023405935,-0.1363310928312552,0.052253354598973664,0.677761807467722,0.2660430415107974,0.0
0.3970990283957139,-0.3148891069888758,-0.019464517289697534,0.13244445799863977,-1.1183681866783808,0.12448198106061152,0.0
0.4683439725360947,-0.3686363526451022,-0.045853743825320356,0.02338454694232285,-1.09625747460262,0.0075748130789979416,0.0
0.6500189666997567,-0.4510488001660878,-0.6151070896584888,-0.041837551358803154,0.9113987488394736,-0.2461216957943565,0.0
0.7818223253690356,-0.2718912728309501,-0.7809821851654265,-0.06375645773639861,2.0265176172701675,-0.10694649754837517,0.0
0.41134806710839567,-0.18947882530996446,-0.3700642449454701,-0.0771216459833309,2.367023216085161,0.06483546960517551,0.0
0.3614764316140101,-0.17872935109008978,-0.18533966177385897,-0.03061080079513903,1.736129718791058,0.04097686264348751,0.0
0.21186202397690823,-0.25397554518606597,0.06724294500984683,0.19713196807051497,1.0293227623205952,0.31694141580063706,0.0
0.38284998968303247,-0.28980700047583446,-0.12125153569469883,0.10090263094995189,1.0904958186943587,0.5618897802334492,0.0
0.653581226377927,-0.3077227908422925,-0.06470319230821468,-0.0006727840775769763,0.5030869087938198,0.21196353701520784,0.0
0.5289023870649909,-0.23247659674631618,0.044623605180614506,-0.07605243040193777,-0.166868878862353,0.09744222881281675,0.0
0.40066128807388424,-0.28980700047583446,-0.038313965257042164,-0.0616180298338533,-0.8795720935385336,0.15788403251961827,0.0
0.3365406138668169,-0.26472495668436696,-0.07224297087649288,-0.021522474873779313,-0.8876793833988099,0.35113874496111747,0.0
0.4434084042119292,-0.25039238711277445,-0.1702601046373026,-0.046114413684375695,-0.8220841558440634,1.0064551369191164,0.0
0.58233603281452,-0.3148891069888758,-0.22303855461524988,0.010019371736354372,-0.24867866815900833,1.002478709612037,0.0
0.24748437133558462,-0.2718912728309501,-0.12879131426297702,-0.05092588380064479,0.4603394458165232,1.2140249837861299,0.0
0.08005866530763069,-0.2109777110281403,-0.1438708713995334,0.13832515021678388,0.685132044826309,2.5540833142546306,0.0
0.9421235120406481,0.02551022003651537,-0.2795869021261318,0.3462874177857011,0.9637275347658485,2.047485714858352,0.0
0.8958143856474597,-0.23247659674631618,-0.3549846878089136,0.17735148633522382,1.5120742441975392,1.4549968821121504,0.0
0.13705457073532973,-0.4832971601041385,-0.09863219998986429,-0.015641789176117058,1.7191781584833927,1.6832442596151713,0.0
0.5431514257776738,-0.6087074417830496,0.19918907820351062,-0.019384043710993032,1.258537532511364,1.4931706773794222,0.0
0.5431514257776738,-0.6087074417830496,0.19918907820351062,-0.14875904103305668,-0.33712166029120527,0.3734067922003592,0.0
0.5502759451340138,-0.6051242837097581,0.11625150570365507,-0.17548941426668027,-0.7048971229500539,-1.172630907331633,0.0
0.5574004644903544,-0.49404657160243953,0.018234378129441984,-0.11668259539412398,-0.34080677897049855,-1.341231642430189,0.0
0.7034526124492863,-0.5262949315404902,0.02954404804405815,0.012157789858176837,-0.24351948043362423,-2.3941915798900877,0.0
0.2154242836550785,-0.47613084395755545,0.02954404804405815,-0.23643465676271566,0.17216265090654942,-3.1075638648510426,0.0
0.24392211165741462,-0.4402993259462131,0.014464488845302903,-0.1786970544903778,0.7205092704450184,-2.5492724776644584,0.0
0.5146533483523108,-0.27547443090424195,-0.10994186784228155,-0.032749225437443415,1.4877523027021327,-0.9634704274622479,0.0
0.6428944473434167,-0.3148891069888758,-0.07224297087649288,0.13297908535078204,1.554084582758569,-0.7757827171306312,0.0
0.6571434860560995,-0.2718912728309501,-0.045853743825320356,0.022849945672108185,1.4088906335190141,0.4068088048596536,0.0
0.5431514257776738,-0.2253103433213068,0.04085371589647542,-0.03381844101883655,1.4442678591377238,0.753553879072433,0.0
0.4683439725360947,-0.2432260709661911,0.07855261286226413,-0.13379003267427564,1.4708007423944673,0.5006526600254619,0.0
0.012375731422393068,-0.23247659674631618,0.12002139498779416,-0.17174715973180432,1.6779048005094754,1.0812120944512886,0.0
0.08005866530763069,-0.293390158549126,0.1690299639303979,-0.19206224273731007,0.9047655639825765,0.7360576144411682,0.0
0.7782600656908659,-0.40805096600816226,0.21426863534006696,-0.08460614853260094,0.3431524488798026,-0.12444281067928002,0.0
0.764011026978183,-0.36505319457181057,0.21049873780713235,-0.0070880710454538955,0.5016128397477292,0.14834059340272837,0.0
0.7782600656908659,-0.3005564746957093,0.20295895923885415,0.21423941737280514,0.6261700740430368,0.5078102369381474,0.0
0.617958629596224,-0.3399711507803432,0.21803851637541052,0.2591464196274616,0.5790004758420456,0.3638633239836852,0.0
0.5752115134581799,-0.38296892221669476,0.16526006639746327,0.10197184653134504,0.9394057370995964,0.08789878969592683,0.0
0.5787737731363501,-0.3686363526451022,0.22934819247662333,-0.012434142431937655,0.7175612042674145,-0.22862539236337961,0.0
0.4398461445337589,-0.34713740420535255,0.30474599465699626,-0.17228176752250088,-0.04304866111144645,-0.04014239463036164,0.0
0.42915936549924744,-0.3077227908422925,0.29720619959112715,-0.11775181016045688,-0.15212836818789063,0.17856149525612913,0.0
0.5502759451340138,-0.34713740420535255,0.23688797104490153,-0.1038520167717738,0.06750509141411762,0.12209612370637106,0.0
0.4790307515706056,-0.3399711507803432,0.3085158591947487,0.09127969071741365,-0.06589644366754094,0.5420076048983399,0.0
0.40422354775205455,-0.3041396327690008,0.21049873780713235,-0.009226502208240166,0.25913160994994444,0.6111975409207737,0.0
0.5004043096396273,-0.3005564746957093,0.19164929963523247,-0.14555139754911822,0.5627859320787815,0.6986791356750822,0.0
0.5253401273868206,-0.3399711507803432,0.2821266424545707,-0.05787577855921829,0.1994325776756605,0.7010649299797903,0.0
0.48971753060511763,-0.38296892221669476,0.2708169828509488,-0.2551459229166136,-0.06884454580243339,0.28512993914443335,0.0
0.4825930112487762,-0.4653813697376805,0.24442774961317973,-0.2818762863695144,-0.018726836477227875,-0.1530731377298778,0.0
0.58233603281452,-0.5012128877490226,0.21049873780713235,-0.48342329957296404,0.34536353447029416,-0.7614675633052603,0.0
0.45765719350158357,-0.4653813697376805,0.3386749734678617,-0.1947352816907929,-0.18824259237235702,-0.5793469132830946,0.0
0.37572547032669185,-0.36505319457181057,0.31605565426061816,0.04209581309622081,-0.29142609517901613,-0.23101124486765612,0.0
0.2581711503700958,-0.3184722023405935,0.26704708531801424,-0.02954158521374591,-0.4137722438838321,-0.1316003875919654,0.0
0.2937937471517999,-0.29697331662241777,0.23688797104490153,-0.020987867083082735,-0.5140076805128876,0.08392235268891936,0.0
0.6607057457342699,-0.37580260607011157,0.21803851637541052,-0.05787577855921829,-0.41672034601872465,-0.21669609104228532,0.0
0.6607057457342699,-0.37580260607011157,0.21803851637541052,-0.1038520167717738,-0.2427824459105789,-0.4226753825063523,0.0
0.4434084042119292,-0.33638799270705166,0.19918907820351062,-0.08193311283935904,-0.11085497425668465,-0.33917025385883526,0.0
0.3650386912921807,-0.3148891069888758,0.18410952106695422,-0.03542226439092625,0.007069039224436926,-0.24532641809288305,0.0
0.4505329235682698,-0.27547443090424195,0.14641062822556333,-0.11400955817264415,0.02475763854980853,-0.35109957457978574,0.0
0.5502759451340138,-0.28980700047583446,0.17656974249867605,-0.16800490845716928,-0.04231164456704548,-0.363028856501024,0.0
0.5217778677086509,-0.3113059489155843,0.1727998449657414,-0.13753228557903113,-0.11011793973363941,-0.14909669102294226,0.0
0.40422354775205455,-0.2683081147576585,0.20295895923885415,-0.17174715973180432,-0.017252785409781642,0.1714039086435157,0.0
0.4683439725360947,-0.3256385184871767,0.21803851637541052,-0.16907412403856242,-0.23614922509639313,0.11016682238527667,0.0
0.4754684918924356,-0.36505319457181057,0.19918907820351062,-0.15677815137302328,-0.3607064414130564,0.07040247656502195,0.0
0.568087243524867,-0.32205536041388516,0.18410952106695422,-0.07444860702984807,-0.28700395995532185,0.20878238740960187,0.0
0.5752115134581799,-0.3113059489155843,0.05216338374889271,0.05599560261336778,0.38221479317780577,0.3256895675161254,0.0
0.5752115134581799,-0.3113059489155843,0.05216338374889271,0.14099818264978486,1.456797248264406,0.3916983733328093,0.0
0.6250831489525634,-0.35788687842522754,0.2745868803838836,0.2564733871944606,1.501755796832194,0.2660430415107974,0.0
0.6001473312053731,-0.3686363526451022,0.3499846660666654,0.29656895193525756,1.0624889023488135,0.22389283833630227,5.0
0.6001473312053731,-0.3686363526451022,0.3499846660666654,-0.20168517644936637,0.09108989163827833,-0.017874366790975853,5.0
0.6892035737366033,-0.515545520042189,0.3386749734678617,0.42273631229386455,2.2638397492357902,-0.3463278307715208,5.0
0.44697066389009976,-0.26114179861107534,0.31605565426061816,0.010019371736354372,0.7728380563713932,-0.0019686284628739645,5.0
0.4077858074302257,-0.3292216765604682,0.3424448710007962,-0.19366606610939976,0.749990291793943,-0.11092293455538264,5.0
0.25460889069192577,-0.2683081147576585,0.4065329970799563,-0.034887656600229695,0.46623565008630824,-0.4091555063824549,5.0
0.3080427858644819,-0.28980700047583446,0.43292221382013435,-0.07124096354590961,0.09108989163827833,0.05529202685081259,5.0
0.41134806710839567,-0.28980700047583446,0.3650642232032218,-0.1006443724727751,0.06824211582417547,0.1554981703154138,5.0
0.4932797902832874,-0.29697331662241777,0.3235954163313052,-0.11935563251372129,0.19279934787215242,0.06006374762174855,5.0
0.4932797902832874,-0.29697331662241777,0.3235954163313052,-0.019918651501689588,0.2126990282933544,0.031433420571150776,5.0
0.4790307515706056,-0.37221951071839404,0.3876835424104653,-0.016711004757510195,0.15815917475513233,-0.04014239463036164,5.0
0.5431514257776738,-0.3686363526451022,0.481930782762738,-0.15945119032650612,0.10214527014946401,0.15152173330840632,5.0
0.454094933823413,-0.25397554518606597,0.41407279214582543,-0.024730115097476805,0.03949814023494872,-0.04809526864437661,5.0
0.5004043096396273,-0.3435543088536347,0.3876835424104653,-0.04344137473089286,0.16184429343442577,0.05767788663003506,5.0
0.4932797902832874,-0.27905758897753347,0.41407279214582543,-0.10438662456247037,0.09772311694712532,-0.02821309330926725,5.0
0.4754684918924356,-0.28980700047583446,0.3763738828068434,-0.10973269880166497,0.10804146992458791,-0.0035592032656769673,5.0
0.47190623221426503,-0.3041396327690008,0.3726039852739088,-0.12042484728005418,0.14120759646882278,0.07915063313047441,5.0
0.41134806710839567,-0.1608136234452055,0.44800177095669086,-0.14073993069309007,0.264290779696684,0.03302399416146276,5.0
0.4861552709269473,-0.2718912728309501,0.380143780339778,-0.10331740979613747,-0.01651576437071959,-0.009921497626924914,5.0
0.41134806710839567,-0.32205536041388516,0.4027630995470215,-0.07605243040193777,0.004120937089544472,-0.06718215657808448,5.0
0.4932797902832874,-0.3148891069888758,0.3612943256702872,-0.09048683097002223,0.11393766969971178,0.005984240701176971,5.0
0.4861552709269473,-0.24680922903948269,0.3537545635995999,-0.14608600533981478,0.17068859983910317,0.13879714458591041,5.0
0.4434084042119292,-0.24680922903948269,0.4668512256261818,-0.07819086156472403,-0.10422173546385448,-0.01469321718536985,5.0
0.5253401273868206,-0.37580260607011157,0.4027630995470215,0.02979984043068166,0.03286491492610174,-0.127623960284886,5.0
0.4398461445337589,-0.3113059489155843,0.3914534399433998,-0.11080191356799787,-0.23172707189405437,-0.09422190882587926,5.0
0.35078965257949923,-0.282640747050825,0.44800177095669086,0.006277110680996498,-0.5950803993292089,0.17458505824912166,5.0
0.35078965257949923,-0.26472495668436696,0.3650642232032218,-0.15303590009838824,-0.6982639380931568,0.36147747147940873,5.0
0.4077858074302257,-0.23605975481960798,0.31605565426061816,-0.22627711525996277,-0.4218795337441087,0.28353936434163035,5.0
0.4077858074302257,-0.23605975481960798,0.31605565426061816,-0.6304403442072917,-0.06515941813381781,0.32171312080919,5.0
0.5324646467431606,-0.40805096600816226,0.3726039852739088,-0.32624871343588374,0.26650184730853127,0.11334796714091863,5.0
0.4434084042119292,-0.3148891069888758,0.35752442813735236,-0.3299909614502779,-0.2987963684948917,0.1276631306662175,5.0
0.5182156080304806,-0.3292216765604682,0.2896664375204398,-0.2588881709310077,-0.05410404411729323,0.20162481049691644,5.0
0.5716492537800102,-0.35430372035193575,0.29720619959112715,-0.04023373450719537,0.10951551649737304,0.061654321212060534,5.0
0.5858982924926908,-0.35788687842522754,0.3085158591947487,0.18643981225658357,0.3129344289651212,-0.021055511546617795,5.0
0.4398461445337589,-0.3399711507803432,0.3273653138642398,0.2489888911656725,0.07266426677918363,-0.063205719571077,5.0
0.3329786036116743,-0.28980700047583446,0.31605565426061816,0.0672223596975137,-0.31501091225815586,0.1364112823817059,5.0
0.46478171285792413,-0.3148891069888758,0.3122857567276833,0.09716038293555775,-0.09537744703782133,0.06006374762174855,5.0
0.5324646467431606,-0.27905758897753347,0.3198255517935527,-0.10866348362780195,0.5156163338777907,0.04813444448191764,5.0
0.5324646467431606,-0.27905758897753347,0.3198255517935527,-0.14127453685366614,0.32325278643724475,0.02109469162787736,5.0
0.5324646467431606,-0.27905758897753347,0.3198255517935527,-0.14127453685366614,0.5576267443533974,0.16424633173083025,5.0
0.4505329235682698,-0.32205536041388516,0.33113521139717433,-0.18137009344386062,0.08003451762175373,0.027456985989125306,5.0
0.4790307515706056,-0.33638799270705166,0.3386749734678617,-0.17281637531319743,0.20090661975378454,-0.034575392520479226,5.0
0.454094933823413,-0.3292216765604682,0.3537545635995999,-0.18404313239734346,0.13899651986765343,0.003598378496972485,5.0
0.4434084042119292,-0.3292216765604682,0.3650642232032218,-0.1380668933697277,0.046868389953853555,0.029047559579437294,5.0
0.4434084042119292,-0.28980700047583446,0.3537545635995999,-0.16640108834532055,-0.015778738836996473,0.0775600583276714,5.0
0.4754684918924356,-0.32205536041388516,0.3273653138642398,-0.10331740979613747,-0.046733788780062034,0.10380452317406469,5.0
0.5110910886741405,-0.37221951071839404,0.3122857567276833,0.1345828891614261,0.011491187932114571,0.05608731303972308,5.0
0.4825930112487762,-0.3399711507803432,0.30474599465699626,0.07898373109283825,0.06529401593661353,0.08392235268891936,5.0
0.4825930112487762,-0.3399711507803432,0.30474599465699626,-0.07658703819263434,0.056449715431178785,0.08789878969592683,5.0
0.43628388485558833,-0.293390158549126,0.3122857567276833,-0.08193311283935904,-0.06147429046520225,0.11811969154932761,5.0
0.4505329235682698,-0.3113059489155843,0.33113521139717433,-0.06536028110848832,-0.07031858788055748,0.061654321212060534,5.0
0.5253401273868206,-0.3148891069888758,0.3612943256702872,0.09074508944719899,-0.02093791307839723,0.07437891114704744,5.0
0.5253401273868206,-0.3148891069888758,0.3612943256702872,0.1393943527572132,-0.058526188330309765,0.15152173330840632,5.0
0.46121945317975416,-0.293390158549126,0.2821266424545707,0.5900684138517701,0.7175612042674145,-0.2715708732393483,5.0
0.6286454086307331,-0.34713740420535255,-0.12502142497883795,-0.38024405465286376,0.18248099938935092,-0.08785960961466731,5.0
0.37572547032669185,-0.22889343867302467,0.24819764714611434,-0.1525012923076917,-0.0032493137530256347,0.11891497410076508,5.0
0.40066128807388424,-0.293390158549126,0.31605565426061816,-0.10812887665216563,0.032127889392378636,0.05370145204800959,5.0
0.4861552709269473,-0.32205536041388516,0.30474599465699626,-0.16105501369859582,-0.0010382371518562828,0.08392235268891936,5.0
0.454094933823413,-0.3005564746957093,0.33490510893010916,-0.11454416560675186,-0.019463862010950992,0.07915063313047441,5.0
0.45765719350158357,-0.32205536041388516,0.31605565426061816,-0.02954158521374591,-0.015778738836996473,0.08471764009032086,5.0
0.4790307515706056,-0.33280483463375987,0.33490510893010916,-0.04237215914949971,0.0019098604883751203,0.06960718916362046,5.0
0.4932797902832874,-0.33280483463375987,0.3235954163313052,-0.008691894417543585,0.10140824461574091,0.03779571523552147,5.0
0.4861552709269473,-0.27905758897753347,0.3386749734678617,0.015900050913534712,0.026231689617254774,0.10778096018107218,5.0
0.42915936549924744,-0.282640747050825,0.33113521139717433,0.14527504497535748,-0.15581350484582837,-0.03218953031627473,5.0
0.4683439725360947,-0.282640747050825,0.2255782949436887,-0.08674457969538721,-0.2309900553496534,0.05211087845769761,5.0
0.5182156080304806,-0.35788687842522754,0.2896664375204398,-0.13967071511169693,-0.07547776661661931,0.08789878969592683,5.0
0.4932797902832874,-0.3292216765604682,0.3009760971240617,-0.1439475741770285,-0.15139135164348969,0.07199305136782495,5.0
0.4861552709269473,-0.3005564746957093,0.3273653138642398,-0.024195507306780235,-0.04747081431378515,0.04892973127707364,5.0
0.4932797902832874,-0.3256385184871767,0.33113521139717433,-0.002276600929184776,0.035813014813663675,0.009960675283202455,5.0
0.5182156080304806,-0.3435543088536347,0.2896664375204398,-0.15410511567978138,0.14636676621556247,-0.00594506061991743,5.0
0.5182156080304806,-0.3399711507803432,0.3198255517935527,-0.10705966188583273,0.264290779696684,-0.05763870776126653,5.0
0.5538382048121835,-0.3292216765604682,0.380143780339778,0.04583806111061488,0.6372254660382056,-0.02185079894801931,5.0
0.5467136854558435,-0.3041396327690008,0.3537545635995999,-0.006018855464060736,0.7765231750506868,0.04336272325629756,5.0
0.6037095908835428,-0.28980700047583446,0.3650642232032218,-0.13325542651369954,0.7802082937299802,-0.10376534794276915,5.0
0.29735600682996993,-0.27905758897753347,0.4668512256261818,-0.1402053229023935,0.13310032009252956,0.024275838808501333,5.0
0.3294163439335037,-0.28980700047583446,0.4442319064189384,-0.12202866942955352,0.10140824461574091,0.03381928095661876,5.0
0.4505329235682698,-0.3148891069888758,0.43292221382013435,-0.13379003267427564,0.18911422020353683,0.0004172337413305168,5.0
0.46121945317975416,-0.3292216765604682,0.41784265668357795,-0.11454416560675186,0.18542910152424338,0.015527682243048886,5.0
0.45765719350158357,-0.3256385184871767,0.42538245174944733,-0.1059904463044396,0.183218024923074,0.0020078061191515146,5.0
0.45765719350158357,-0.32205536041388516,0.3952233374763344,-0.10010976468207854,0.18395505045679714,0.005984240701176971,5.0
0.4683439725360947,-0.3399711507803432,0.42161255421651245,-0.08834840143735644,0.2200692836305856,-0.029008380710668736,5.0
0.45765719350158357,-0.32205536041388516,0.45177166848962536,-0.07177557133660617,0.1552110726202399,-0.020260224145216315,5.0
0.44697066389009976,-0.3005564746957093,0.44046200888600345,-0.08995222317932566,0.13531139219903787,-0.009921497626924914,5.0
0.46121945317975416,-0.3005564746957093,0.4065329970799563,-0.08781379364665987,0.16479239556931824,0.013141822463826428,5.0
0.45765719350158357,-0.3148891069888758,0.42538245174944733,-0.08567536411399408,0.163318344501872,-0.009921497626924914,5.0
0.45765719350158357,-0.3148891069888758,0.42538245174944733,-0.08995222317932566,0.16479239556931824,-0.011512072429727908,5.0
0.4434084042119292,-0.3041396327690008,0.41784265668357795,-0.09155604655141537,0.12057089500855873,-0.0019686284628739645,5.0
0.4505329235682698,-0.3113059489155843,0.3952233374763344,-0.07444860702984807,0.12204494607600497,0.009960675283202455,5.0
0.4505329235682698,-0.3113059489155843,0.3952233374763344,-0.07872546609517965,0.11393766969971178,0.054496739449411094,5.0
0.45765719350158357,-0.32205536041388516,0.4065329970799563,-0.05734117076852171,0.10804146992458791,0.019504116825074365,5.0
0.4683439725360947,-0.3184722023405935,0.41784265668357795,-0.04237215914949971,0.07708641661052654,0.031433420571150776,5.0
0.4505329235682698,-0.3148891069888758,0.3952233374763344,-0.03435304880953311,0.04760541548757667,0.054496739449411094,5.0
0.44697066389009976,-0.3041396327690008,0.3726039852739088,-0.03862991113510565,0.018124413240961545,0.07040247656502195,5.0
0.46478171285792413,-0.3077227908422925,0.3876835424104653,-0.03328383322813997,0.001172839449313061,0.10857624758247367,5.0
0.45765719350158357,-0.3113059489155843,0.3612943256702872,-0.02526472288817337,-0.011356590129318868,0.12209612370637106,5.0
0.4683439725360947,-0.3077227908422925,0.380143780339778,-0.019918651501689588,-0.04157461903332238,0.11175739233811563,5.0
0.46478171285792413,-0.3113059489155843,0.3952233374763344,-0.0044150320919710455,-0.0283081684156284,0.11971026150216657,5.0
0.45765719350158357,-0.32205536041388516,0.3952233374763344,-0.0070880710454538955,-0.021674938612120328,0.1292537054690205,5.0
0.45765719350158357,-0.32205536041388516,0.3952233374763344,-0.024195507306780235,-0.03273031262864495,0.1443641563957209,5.0
0.46478171285792413,-0.3041396327690008,0.3952233374763344,-0.03328383322813997,-0.04452271217889267,0.13323014247602802,5.0
0.47190623221426503,-0.3256385184871767,0.3914534399433998,-0.043975982521589414,-0.0378894913647068,0.15867931992101977,5.0
0.46121945317975416,-0.3256385184871767,0.4027630995470215,-0.016711004757510195,-0.01798981094350476,0.1324348550746265,5.0
0.4683439725360947,-0.3148891069888758,0.3914534399433998,-0.002276600929184776,-0.017252785409781642,0.11652911674652461,5.0
0.4754684918924356,-0.3184722023405935,0.3839136778727128,0.04904570785479426,-0.05557809518473945,0.10857624758247367,5.0
0.45765719350158357,-0.32205536041388516,0.4103028946128909,0.06027246493894027,-0.0894812427680364,0.1260725558634145,5.0
0.4683439725360947,-0.3292216765604682,0.3952233374763344,0.10785253874948914,-0.08579611509942082,0.14834059340272837,5.0
0.4790307515706056,-0.33280483463375987,0.4027630995470215,0.12442536069963697,-0.06737049473498717,0.09585165885997778,5.0
0.4790307515706056,-0.3256385184871767,0.3952233374763344,0.11694086467084888,-0.05410404411729323,0.09744222881281675,5.0
0.4754684918924356,-0.3077227908422925,0.4065329970799563,0.10892174128991847,-0.0644223926000947,0.11175739233811563,5.0
0.4505329235682698,-0.28980700047583446,0.43292221382013435,0.08700284143280484,-0.07105561341428061,0.08630821489312385,5.0
0.4505329235682698,-0.27905758897753347,0.41784265668357795,0.05973786366872563,-0.10127365130760628,0.08074120550829539,5.0
0.45765719350158357,-0.282640747050825,0.3952233374763344,0.03514591833764733,-0.0902182683017595,0.10141866581982423,5.0
0.4790307515706056,-0.28622384240254284,0.41784265668357795,0.014830835332141577,-0.0681075202687103,0.09823751621421824,5.0
0.47190623221426503,-0.28622384240254284,0.42538245174944733,-0.019918651501689588,-0.06221131599892537,0.0902846470501673,5.0
0.47190623221426503,-0.28622384240254284,0.43669211135306896,-0.05252970065225261,-0.05778916279658666,0.08233178031109838,5.0
0.45765719350158357,-0.2718912728309501,0.41407279214582543,-0.0755178226112412,-0.07326669001544997,0.09585165885997778,5.0
0.4505329235682698,-0.27905758897753347,0.398993235009269,-0.09209065271199145,-0.06515941813381781,0.10221395322122573,5.0
0.46478171285792413,-0.3005564746957093,0.42538245174944733,-0.08193311283935904,-0.05410404411729323,0.10459981057546619,5.0
0.4754684918924356,-0.29697331662241777,0.3952233374763344,-0.09797133514941275,-0.07031858788055748,0.10141866581982423,5.0
0.4683439725360947,-0.3113059489155843,0.3876835424104653,-0.09797133514941275,-0.08727016616686703,0.10380452317406469,5.0
0.47190623221426503,-0.32205536041388516,0.3763738828068434,-0.09262526050268803,-0.04747081431378515,0.07596948594985045,5.0
0.4754684918924356,-0.3148891069888758,0.3876835424104653,-0.08674457969538721,-0.04157461903332238,0.07676477092626989,5.0
0.4683439725360947,-0.28980700047583446,0.380143780339778,-0.10705966188583273,-0.0032493137530256347,0.03859100203067747,5.0
0.46478171285792413,-0.29697331662241777,0.3650642232032218,-0.12790935186697483,0.0004358139155899604,0.02188997781678785,5.0
0.4683439725360947,-0.293390158549126,0.380143780339778,-0.15089747219584293,0.014439290067007024,0.01711825704585189,5.0
0.47190623221426503,-0.3041396327690008,0.380143780339778,-0.1653318727639274,0.0218095386622466,0.017913544447253387,5.0
0.4825930112487762,-0.3005564746957093,0.4065329970799563,-0.17762784542946655,0.06013484071200568,0.026661698587723808,5.0
0.4825930112487762,-0.3005564746957093,0.4065329970799563,-0.19526988948148946,0.05129054034702909,0.011551247661023426,5.0
0.4754684918924356,-0.3005564746957093,0.3612943256702872,-0.1963391050628826,0.07192724124546052,0.003598378496972485,5.0
0.4754684918924356,-0.3005564746957093,0.3612943256702872,-0.21344654132420895,0.0874047662169933,-0.00594506061991743,5.0
0.45765719350158357,-0.3041396327690008,0.33113521139717433,-0.21879261271069272,0.0667680658803945,0.009165387881800944,5.0
0.4683439725360947,-0.3113059489155843,0.3612943256702872,-0.20703125435633205,0.08445666632943136,0.029842846980838788,5.0
0.4754684918924356,-0.3292216765604682,0.3876835424104653,-0.2161195802776918,0.06308294102094208,0.005984240701176971,5.0
0.4754684918924356,-0.35072056227864407,0.3612943256702872,-0.1867161713508263,0.09624906812700963,-0.0091262102255234,5.0
0.4754684918924356,-0.3435543088536347,0.3612943256702872,-0.1781624532201631,0.08224559197559254,-0.01707907938957434,5.0
0.45765719350158357,-0.34713740420535255,0.3386749734678617,-0.17548941426668027,0.062345915768135286,0.008370100480399451,5.0
0.4754684918924356,-0.3399711507803432,0.33490510893010916,-0.1386014995303038,0.056449715431178785,0.008370100480399451,5.0
0.4683439725360947,-0.3399711507803432,0.33490510893010916,-0.1343246404649722,0.03802408916750249,0.02188997781678785,5.0
0.46478171285792413,-0.32205536041388516,0.36883412073615635,-0.1321862109323064,0.0431832645325685,0.025071124997411823,5.0
0.47190623221426503,-0.3148891069888758,0.3537545635995999,-0.13913610732100035,0.06603104090850402,0.05211087845769761,5.0
0.4754684918924356,-0.3113059489155843,0.3612943256702872,-0.13325542651369954,0.07045319130167955,0.04495329699817092,5.0
0.47190623221426503,-0.29697331662241777,0.3537545635995999,-0.12523631454361245,0.06455699096472305,0.02188997781678785,5.0
0.47190623221426503,-0.3005564746957093,0.3386749734678617,-0.14234375243505928,0.07119021683540266,0.025071124997411823,5.0
0.4790307515706056,-0.3041396327690008,0.3612943256702872,-0.14448218196772508,0.07708641661052654,0.01711825704585189,5.0
0.4754684918924356,-0.3041396327690008,0.3537545635995999,-0.12844395884261114,0.06824211582417547,0.04495329699817092,5.0
0.4683439725360947,-0.3148891069888758,0.3198255517935527,-0.11026730618483142,0.057186740543527424,0.04733915768676165,5.0
0.4683439725360947,-0.3077227908422925,0.3537545635995999,-0.1257709215192488,0.049816489841415484,0.04415801020301492,5.0
0.4861552709269473,-0.3041396327690008,0.3462147685337308,-0.116147987909075,0.03949814023494872,0.024275838808501333,5.0
0.4754684918924356,-0.3041396327690008,0.33490510893010916,-0.11989023989688773,0.06013484071200568,0.04892973127707364,5.0
0.4790307515706056,-0.3005564746957093,0.33490510893010916,-0.12202866942955352,0.07929749208803061,-0.013102642382566854,5.0
0.4932797902832874,-0.29697331662241777,0.3122857567276833,-0.1380668933697277,0.11172659309854242,0.02188997781678785,5.0
0.4754684918924356,-0.3077227908422925,0.3273653138642398,-0.14929364882375323,0.10288229118852608,-0.0035592032656769673,5.0
0.4683439725360947,-0.3184722023405935,0.33113521139717433,-0.15410511567978138,0.0785604665543075,-0.015488504586771364,5.0
0.4683439725360947,-0.3041396327690008,0.3612943256702872,-0.1525012923076917,0.04244624012251066,0.04097686264348751,5.0
0.45765719350158357,-0.3041396327690008,0.36883412073615635,-0.13485924825566878,0.005594988156990691,0.062449607400971024,5.0
0.4754684918924356,-0.3005564746957093,0.35752442813735236,-0.12844395884261114,-0.014304687769550238,0.08789878969592683,5.0
0.4683439725360947,-0.3041396327690008,0.3198255517935527,-0.10812887665216563,-0.01651576437071959,0.10539509797686769,5.0
0.4683439725360947,-0.3113059489155843,0.31605565426061816,-0.11935563251372129,0.014439290067007024,0.09426108405717479,5.0
0.4683439725360947,-0.3113059489155843,0.31605565426061816,-0.12523631454361245,0.02328358748236229,0.06881190418720098,5.0
0.49684204996145764,-0.3113059489155843,0.31605565426061816,-0.12790935186697483,0.05129054034702909,0.03620514134208674,5.0
0.4861552709269473,-0.3184722023405935,0.31605565426061816,-0.12790935186697483,0.07119021683540266,0.019504116825074365,5.0
0.4754684918924356,-0.3148891069888758,0.3462147685337308,-0.12951317360894404,0.0874047662169933,0.011551247661023426,5.0
0.4754684918924356,-0.3041396327690008,0.3085158591947487,-0.14448218196772508,0.07045319130167955,0.03063813316974928,5.0
0.4683439725360947,-0.3041396327690008,0.3462147685337308,-0.14768982545166354,0.056449715431178785,0.04018157577255083,5.0
0.46478171285792413,-0.3184722023405935,0.3424448710007962,-0.1402053229023935,0.03360193821249432,0.06085903502315004,5.0
0.46478171285792413,-0.3184722023405935,0.3424448710007962,-0.13913610732100035,0.022546564195969707,0.10380452317406469,5.0
0.4683439725360947,-0.3292216765604682,0.3537545635995999,-0.13165160314160984,0.038761114701225605,0.10380452317406469,5.0
0.45765719350158357,-0.32205536041388516,0.35752442813735236,-0.12309788419588642,0.019598464308407778,0.061654321212060534,5.0
0.45765719350158357,-0.32205536041388516,0.35752442813735236,-0.09743672735871618,0.02549466408353164,0.08789878969592683,5.0
0.4683439725360947,-0.3184722023405935,0.3650642232032218,-0.08032928946726935,-0.00398633928674876,0.07437891114704744,5.0
0.4683439725360947,-0.3184722023405935,0.3650642232032218,-0.07819086156472403,0.006332013690713825,0.09426108405717479,5.0
0.4754684918924356,-0.3148891069888758,0.3499846660666654,-0.08567536411399408,0.009280111330945202,0.09585165885997778,5.0
0.4932797902832874,-0.3184722023405935,0.3235954163313052,-0.09957515689138198,0.040972189055064424,0.09107993445156881,5.0
0.4861552709269473,-0.3113059489155843,0.33113521139717433,-0.09209065271199145,0.03802408916750249,0.07437891114704744,5.0
0.4683439725360947,-0.3148891069888758,0.3122857567276833,-0.08781379364665987,0.05423864023459102,0.037000428137242726,5.0
0.4683439725360947,-0.3256385184871767,0.3424448710007962,-0.08834840143735644,0.0431832645325685,0.059268460220347055,5.0
0.4683439725360947,-0.3292216765604682,0.3424448710007962,-0.07872546609517965,0.056449715431178785,0.0799459205318759,5.0
0.47190623221426503,-0.33280483463375987,0.35752442813735236,-0.06803332006197116,0.06455699096472305,0.07517419854844894,5.0
0.45765719350158357,-0.33280483463375987,0.3537545635995999,-0.05146049159134137,0.06603104090850402,0.07278833634424445,5.0
0.45765719350158357,-0.33280483463375987,0.3537545635995999,-0.0755178226112412,0.07266426677918363,0.06881190418720098,5.0
0.47190623221426503,-0.3256385184871767,0.36883412073615635,-0.05520273960573545,0.06455699096472305,0.08789878969592683,5.0
0.4683439725360947,-0.3292216765604682,0.3462147685337308,-0.06589488889918489,0.05202756531891957,0.09346579665577329,5.0
0.45765719350158357,-0.33280483463375987,0.3235954163313052,-0.09636751340744353,0.04613136442013044,0.061654321212060534,5.0
0.47190623221426503,-0.34713740420535255,0.3726039852739088,-0.07658703819263434,0.07929749208803061,0.029047559579437294,5.0
0.45765719350158357,-0.35430372035193575,0.3462147685337308,-0.06749871227127459,0.12130792054228187,0.03063813316974928,5.0
0.45765719350158357,-0.3041396327690008,0.3876835424104653,-0.06856792785266771,0.10656741885714167,0.09505637145857629,5.0
0.4861552709269473,-0.29697331662241777,0.4065329970799563,-0.06482567331779175,0.057186740543527424,0.12448198106061152,5.0
0.4861552709269473,-0.27905758897753347,0.41407279214582543,-0.07819086156472403,0.029916815038539806,0.1340254298774295,5.0
0.4754684918924356,-0.3148891069888758,0.3537545635995999,-0.088883009228053,0.05792376558564699,0.1340254298774295,5.0
0.4683439725360947,-0.35430372035193575,0.3198255517935527,-0.08834840143735644,0.09772311694712532,0.07040247656502195,5.0
0.47190623221426503,-0.38655208028998644,0.2745868803838836,-0.049856668219251665,0.17216265090654942,-0.00037805366007097097,5.0
0.4754684918924356,-0.36505319457181057,0.2896664375204398,-0.04290676694019629,0.27092400051086996,-0.04332354423596761,5.0
0.46478171285792413,-0.32205536041388516,0.3876835424104653,-0.063221853205943,0.19869555214193735,-0.01866965419237734,5.0
0.45765719350158357,-0.28622384240254284,0.41407279214582543,-0.09583290561674696,0.1257300692499595,0.07358362374564593,5.0
0.45765719350158357,-0.28980700047583446,0.41784265668357795,-0.11026730618483142,0.02696871290364733,0.1419782941915164,5.0
0.44697066389009976,-0.3005564746957093,0.3952233374763344,-0.11454416560675186,-0.011356590129318868,0.15152173330840632,5.0
0.454094933823413,-0.3148891069888758,0.3424448710007962,-0.0771216459833309,-0.00030121161813317373,0.14118300679011492,5.0
0.4825930112487762,-0.33280483463375987,0.3424448710007962,-0.06536028110848832,0.056449715431178785,0.11811969154932761,5.0
0.4754684918924356,-0.35788687842522754,0.31605565426061816,-0.05466813181503887,0.11246361863226552,0.06324489480237253,5.0
0.4825930112487762,-0.34713740420535255,0.31605565426061816,-0.06536028110848832,0.11688576733994313,0.023480551407099835,5.0
0.4790307515706056,-0.34713740420535255,0.3198255517935527,-0.08460614853260094,0.14489272413743837,-0.009921497626924914,5.0
0.46121945317975416,-0.33280483463375987,0.3612943256702872,-0.1038520167717738,0.13088924349136025,0.03222870676006127,5.0
0.4683439725360947,-0.32205536041388516,0.3612943256702872,-0.1059904463044396,0.0741383167229646,0.08789878969592683,5.0
0.454094933823413,-0.3148891069888758,0.380143780339778,-0.08727918748608378,0.020335489842130888,0.09585165885997778,5.0
0.454094933823413,-0.3148891069888758,0.380143780339778,-0.08834840143735644,0.007069039224436926,0.14038771938871342,5.0
0.454094933823413,-0.3686363526451022,0.3537545635995999,-0.07765625377402746,0.006332013690713825,0.1475453060013269,5.0
0.454094933823413,-0.3686363526451022,0.3537545635995999,-0.02686854626026307,0.03065383832493239,0.126867843264816,5.0
0.4683439725360947,-0.37221951071839404,0.3424448710007962,-0.005484247673364181,0.021072513128523474,0.08312706528751786,5.0
0.45765719350158357,-0.34713740420535255,0.3273653138642398,0.0030694639368171175,0.0313908638586555,0.061654321212060534,5.0
0.45765719350158357,-0.33280483463375987,0.3612943256702872,-0.002276600929184776,0.046868389953853555,0.08312706528751786,5.0
0.47190623221426503,-0.3399711507803432,0.380143780339778,-0.0038804308217563806,0.018861438774684672,0.07040247656502195,5.0
0.47190623221426503,-0.33638799270705166,0.36883412073615635,0.007346326262389657,0.010754162398391437,0.07278833634424445,5.0
0.45765719350158357,-0.32205536041388516,0.380143780339778,0.0020002613963877635,0.014439290067007024,0.09107993445156881,5.0
0.454094933823413,-0.3256385184871767,0.3763738828068434,-0.004949646403149516,-0.00398633928674876,0.08153649290969688,5.0
0.46121945317975416,-0.32205536041388516,0.3726039852739088,-0.021522474873779313,-0.00030121161813317373,0.11573382934512312,5.0
0.4683439725360947,-0.33280483463375987,0.3537545635995999,-0.016711004757510195,-0.0017752626855793918,0.09823751621421824,5.0
0.4683439725360947,-0.3292216765604682,0.3612943256702872,-0.027403154050959628,-0.00030121161813317373,0.11811969154932761,5.0
0.45765719350158357,-0.3184722023405935,0.35752442813735236,-0.00762267883615045,-0.011356590129318868,0.126867843264816,5.0
0.4683439725360947,-0.32205536041388516,0.3537545635995999,-0.008691894417543585,-0.03125626156119872,0.13004899287042201,5.0
0.45765719350158357,-0.33280483463375987,0.36883412073615635,0.006277110680996498,-0.03273031262864495,0.14913588080412987,5.0
0.45765719350158357,-0.3256385184871767,0.380143780339778,-0.002276600929184776,-0.05926321386403288,0.1714039086435157,5.0
0.47190623221426503,-0.33638799270705166,0.3876835424104653,0.008415541843782768,-0.05189296751612384,0.1562934577168153,5.0
0.4790307515706056,-0.32205536041388516,0.3726039852739088,0.022315331360929717,-0.03862651689842989,0.13482071727883096,5.0
0.4825930112487762,-0.3292216765604682,0.3839136778727128,0.020176913239107253,-0.018726836477227875,0.10778096018107218,5.0
0.46121945317975416,-0.32205536041388516,0.36883412073615635,0.024453762523715984,-0.00914551352814949,0.13879714458591041,5.0
0.46478171285792413,-0.3292216765604682,0.3952233374763344,0.018573083346535648,-0.0032493137530256347,0.0918752218529703,5.0
0.45765719350158357,-0.3184722023405935,0.3537545635995999,0.014296221020963108,-0.00398633928674876,0.11493854194372162,5.0
0.47190623221426503,-0.32205536041388516,0.3952233374763344,-0.0006727840775769763,0.020335489842130888,0.0926705092543718,5.0
0.4683439725360947,-0.3041396327690008,0.4065329970799563,-0.026333938469566505,0.03507598927994056,0.04972501807222963,5.0
0.4683439725360947,-0.3113059489155843,0.3876835424104653,-0.048252844847161955,0.022546564195969707,0.04972501807222963,5.0
0.46121945317975416,-0.3148891069888758,0.380143780339778,-0.06215263762454987,0.0291797895048167,0.03779571523552147,5.0
0.4683439725360947,-0.33280483463375987,0.3424448710007962,-0.08193311283935904,0.055712690459288304,0.05608731303972308,5.0
0.4683439725360947,-0.34713740420535255,0.3462147685337308,-0.08727918748608378,0.06087186582435432,0.06960718916362046,5.0
0.4505329235682698,-0.3399711507803432,0.35752442813735236,-0.0771216459833309,0.03949814023494872,0.06006374762174855,5.0
0.46478171285792413,-0.34713740420535255,0.35752442813735236,-0.07979468167657279,0.040972189055064424,0.04813444448191764,5.0
0.454094933823413,-0.3399711507803432,0.35752442813735236,-0.08995222317932566,0.06455699096472305,0.067221329384398,5.0
0.4683439725360947,-0.3292216765604682,0.3424448710007962,-0.09957515689138198,0.06013484071200568,0.065630754581595,5.0
0.4683439725360947,-0.33638799270705166,0.3499846660666654,-0.11561338047496729,0.06455699096472305,0.08630821489312385,5.0
0.4683439725360947,-0.34713740420535255,0.33113521139717433,-0.13753228557903113,0.0667680658803945,0.0680166167857995,5.0
0.46478171285792413,-0.35072056227864407,0.3273653138642398,-0.14127453685366614,0.06381996599283257,0.04972501807222963,5.0
0.4754684918924356,-0.35788687842522754,0.3273653138642398,-0.14768982545166354,0.09330096823944771,0.04733915768676165,5.0
0.4683439725360947,-0.36505319457181057,0.3235954163313052,-0.1402053229023935,0.08666774293060071,0.042567436385360875,5.0
0.46478171285792413,-0.35072056227864407,0.31605565426061816,-0.12470170675291589,0.08003451762175373,0.04892973127707364,5.0
0.4505329235682698,-0.3399711507803432,0.3386749734678617,-0.1386014995303038,0.06603104090850402,0.07358362374564593,5.0
0.45765719350158357,-0.3399711507803432,0.3386749734678617,-0.13592846220694144,0.03728706363377937,0.0902846470501673,5.0
0.46478171285792413,-0.34713740420535255,0.3499846660666654,-0.11721720277729043,0.017387387707238435,0.09107993445156881,5.0
0.454094933823413,-0.3399711507803432,0.35752442813735236,-0.10973269880166497,0.010017136864668328,0.11732440414792612,5.0
0.45765719350158357,-0.33638799270705166,0.3650642232032218,-0.1027828020054409,-0.012093615663041969,0.11573382934512312,5.0
0.4683439725360947,-0.35788687842522754,0.3537545635995999,-0.1038520167717738,-0.006197411393257029,0.11971026150216657,5.0
0.4683439725360947,-0.36505319457181057,0.3424448710007962,-0.0835369329512078,0.011491187932114571,0.10141866581982423,5.0
0.47190623221426503,-0.36505319457181057,0.3499846660666654,-0.08300232842075218,0.0004358139155899604,0.09585165885997778,5.0
0.45765719350158357,-0.34713740420535255,0.3537545635995999,-0.09315986829338459,0.007069039224436926,0.0902846470501673,5.0
0.4683439725360947,-0.3435543088536347,0.3424448710007962,-0.09422908387477773,0.02328358748236229,0.0680166167857995,5.0
0.45765719350158357,-0.35788687842522754,0.3462147685337308,-0.1027828020054409,0.018124413240961545,0.0775600583276714,5.0
0.45765719350158357,-0.34713740420535255,0.3537545635995999,-0.09797133514941275,0.021072513128523474,0.07199305136782495,5.0
0.4683439725360947,-0.35430372035193575,0.3650642232032218,-0.10331740979613747,-0.0032493137530256347,0.09664694141141525,5.0
0.454094933823413,-0.3399711507803432,0.3650642232032218,-0.11775181016045688,-0.006197411393257029,0.09505637145857629,5.0
0.4434084042119292,-0.34713740420535255,0.3612943256702872,-0.10759426886146906,-0.024623040747012815,0.10619038537826918,5.0
0.4683439725360947,-0.36147003649851905,0.3273653138642398,-0.10224819421474433,0.0026468860220982293,0.09107993445156881,5.0
0.4790307515706056,-0.37221951071839404,0.3726039852739088,-0.08407154074190437,0.029916815038539806,0.09903280361561974,5.0
0.4790307515706056,-0.38296892221669476,0.3424448710007962,-0.08674457969538721,0.007069039224436926,0.08312706528751786,5.0
0.46121945317975416,-0.37938576414340325,0.3424448710007962,-0.10117898026347168,0.046868389953853555,0.07199305136782495,5.0
0.46478171285792413,-0.35430372035193575,0.33113521139717433,-0.11240573592126228,0.03802408916750249,0.08630821489312385,5.0
0.4754684918924356,-0.35430372035193575,0.33490510893010916,-0.10705966188583273,0.03802408916750249,0.08551292749172235,5.0
0.4861552709269473,-0.35430372035193575,0.3462147685337308,-0.11775181016045688,0.04465731447634947,0.0918752218529703,5.0
0.4861552709269473,-0.35788687842522754,0.3612943256702872,-0.12790935186697483,0.04023516464500657,0.09107993445156881,5.0
0.4754684918924356,-0.36147003649851905,0.3462147685337308,-0.15036286440514637,0.05276459029081006,0.0918752218529703,5.0
0.4683439725360947,-0.34713740420535255,0.3499846660666654,-0.1525012923076917,0.06381996599283257,0.08710350229452535,5.0
0.46478171285792413,-0.3435543088536347,0.3650642232032218,-0.1653318727639274,0.046868389953853555,0.10857624758247367,5.0
0.4505329235682698,-0.38296892221669476,0.3273653138642398,-0.14448218196772508,0.02328358748236229,0.11652911674652461,5.0
0.4505329235682698,-0.39013523836327807,0.3122857567276833,-0.136463069997638,0.007069039224436926,0.12448198106061152,5.0
0.45765719350158357,-0.39371839643656986,0.3085158591947487,-0.13753228557903113,0.006332013690713825,0.11732440414792612,5.0
0.45765719350158357,-0.38655208028998644,0.3085158591947487,-0.1289785658182475,0.017387387707238435,0.0902846470501673,5.0
0.45765719350158357,-0.37938576414340325,0.3085158591947487,-0.12790935186697483,0.05202756531891957,0.07119776396642347,5.0
0.46478171285792413,-0.3686363526451022,0.3009760971240617,-0.11400955817264415,0.06381996599283257,0.054496739449411094,5.0
0.46121945317975416,-0.35072056227864407,0.3424448710007962,-0.12202866942955352,0.0741383167229646,0.04097686264348751,5.0
0.46478171285792413,-0.35072056227864407,0.3424448710007962,-0.1525012923076917,0.08961584281816265,0.013141822463826428,5.0
0.454094933823413,-0.34713740420535255,0.3122857567276833,-0.16105501369859582,0.07708641661052654,0.009165387881800944,5.0
0.44697066389009976,-0.36505319457181057,0.2934363020581923,-0.162124226019748,0.04539434001007259,0.022685264005698338,5.0
0.4505329235682698,-0.36505319457181057,0.3386749734678617,-0.14555139754911822,0.0505535153751386,0.03302399416146276,5.0
0.46121945317975416,-0.38296892221669476,0.33490510893010916,-0.1289785658182475,0.028442763971093573,0.04018157577255083,5.0
0.45765719350158357,-0.37580260607011157,0.3235954163313052,-0.11561338047496729,0.01591333663979219,0.025071124997411823,5.0
0.4790307515706056,-0.36505319457181057,0.3273653138642398,-0.13539385604636534,0.043920290066291626,0.022685264005698338,5.0
0.4683439725360947,-0.3686363526451022,0.3499846660666654,-0.15570893905187108,0.0616088907962448,0.02109469162787736,5.0
0.46478171285792413,-0.37221951071839404,0.3235954163313052,-0.17548941426668027,0.062345915768135286,-0.0091262102255234,5.0
0.454094933823413,-0.36147003649851905,0.33490510893010916,-0.1867161713508263,0.06971616576795643,0.011551247661023426,5.0
0.4505329235682698,-0.3686363526451022,0.33490510893010916,-0.18938920378382723,0.05276459029081006,0.037000428137242726,5.0
0.4505329235682698,-0.37221951071839404,0.3462147685337308,-0.18243930902525377,0.05939781566988611,0.02109469162787736,5.0
0.46121945317975416,-0.37221951071839404,0.35752442813735236,-0.17335098310389402,0.07119021683540266,0.037000428137242726,5.0
0.45765719350158357,-0.37221951071839404,0.3424448710007962,-0.15410511567978138,0.08519369186315447,0.029047559579437294,5.0
0.4683439725360947,-0.37580260607011157,0.33113521139717433,-0.15677815137302328,0.07487534113302245,0.03222870676006127,5.0
0.46121945317975416,-0.37580260607011157,0.3499846660666654,-0.1482244332423601,0.07192724124546052,0.05131559226878712,5.0
0.454094933823413,-0.37938576414340325,0.3273653138642398,-0.1386014995303038,0.08445666632943136,0.03859100203067747,5.0
0.4505329235682698,-0.38296892221669476,0.3462147685337308,-0.1257709215192488,0.057186740543527424,0.04733915768676165,5.0
0.46478171285792413,-0.36505319457181057,0.3650642232032218,-0.11561338047496729,0.03286491492610174,0.042567436385360875,5.0
0.46478171285792413,-0.36505319457181057,0.3650642232032218,-0.1027828020054409,0.055712690459288304,0.058473174031436564,5.0
0.44697066389009976,-0.35072056227864407,0.3386749734678617,-0.116147987909075,0.04760541548757667,0.05211087845769761,5.0
0.45765719350158357,-0.33638799270705166,0.31605565426061816,-0.14608600533981478,0.05792376558564699,0.03779571523552147,5.0
0.45765719350158357,-0.33638799270705166,0.31605565426061816,-0.14073993069309007,0.05129054034702909,0.0680166167857995,5.0
0.44697066389009976,-0.34713740420535255,0.3612943256702872,-0.14768982545166354,0.06087186582435432,0.05211087845769761,5.0
0.4683439725360947,-0.35072056227864407,0.35752442813735236,-0.1380668933697277,0.05129054034702909,0.029842846980838788,5.0
0.4683439725360947,-0.35072056227864407,0.35752442813735236,-0.14555139754911822,0.057186740543527424,0.019504116825074365,5.0
0.46478171285792413,-0.37221951071839404,0.33490510893010916,-0.13325542651369954,0.07119021683540266,0.06483546960517551,5.0
0.47190623221426503,-0.37221951071839404,0.33490510893010916,-0.11989023989688773,0.062345915768135286,0.065630754581595,5.0
0.47190623221426503,-0.37221951071839404,0.33490510893010916,-0.10919809141849852,0.06529401593661353,0.03859100203067747,5.0
0.4505329235682698,-0.37580260607011157,0.33113521139717433,-0.10545583932880327,0.05792376558564699,0.029047559579437294,5.0
0.4434084042119292,-0.36505319457181057,0.3462147685337308,-0.11454416560675186,0.035813014813663675,0.045748583793326913,5.0
0.45765719350158357,-0.37221951071839404,0.33490510893010916,-0.088883009228053,0.018124413240961545,0.06960718916362046,5.0
0.46478171285792413,-0.36505319457181057,0.3273653138642398,-0.1027828020054409,0.035813014813663675,0.07199305136782495,5.0
0.46478171285792413,-0.35430372035193575,0.3235954163313052,-0.10866348362780195,0.03360193821249432,0.058473174031436564,5.0
0.4754684918924356,-0.35788687842522754,0.33490510893010916,-0.10438662456247037,0.0616088907962448,0.04813444448191764,5.0
0.47190623221426503,-0.3686363526451022,0.33113521139717433,-0.09155604655141537,0.06087186582435432,0.05608731303972308,5.0
0.45765719350158357,-0.36505319457181057,0.3085158591947487,-0.09209065271199145,0.05423864023459102,0.03620514134208674,5.0
0.45765719350158357,-0.36505319457181057,0.3122857567276833,-0.09422908387477773,0.06308294102094208,0.03222870676006127,5.0
0.46121945317975416,-0.36505319457181057,0.3235954163313052,-0.09904055073080588,0.06897914135789858,0.03222870676006127,5.0
0.46478171285792413,-0.36147003649851905,0.2821266424545707,-0.10224819421474433,0.05202756531891957,0.03222870676006127,5.0
0.46121945317975416,-0.36505319457181057,0.29720619959112715,-0.1006443724727751,0.032127889392378636,0.045748583793326913,5.0
0.47190623221426503,-0.37580260607011157,0.2896664375204398,-0.1049212315381067,0.03802408916750249,0.0680166167857995,5.0
0.45765719350158357,-0.35788687842522754,0.29720619959112715,-0.10652505409513616,0.0240206130160854,0.09744222881281675,5.0
0.45765719350158357,-0.34713740420535255,0.3235954163313052,-0.11828641774738839,-0.008408487994426382,0.1276631306662175,5.0
0.4505329235682698,-0.35430372035193575,0.3537545635995999,-0.1268401362855817,-0.04747081431378515,0.16026989472382278,5.0
0.4434084042119292,-0.35430372035193575,0.33113521139717433,-0.11935563251372129,-0.08579611509942082,0.17776620785472766,5.0
0.454094933823413,-0.36505319457181057,0.3273653138642398,-0.10224819421474433,-0.07842586875151178,0.19446723358423101,5.0
0.454094933823413,-0.35072056227864407,0.3424448710007962,-0.12523631454361245,-0.08137397088640426,0.17299448344631865,5.0
0.4754684918924356,-0.3399711507803432,0.3499846660666654,-0.1289785658182475,-0.05115594198240074,0.1380018571845089,5.0
0.4683439725360947,-0.34713740420535255,0.3386749734678617,-0.136463069997638,-0.018726836477227875,0.13323014247602802,5.0
0.4754684918924356,-0.35788687842522754,0.33113521139717433,-0.14287835859563539,0.02696871290364733,0.10619038537826918,5.0
0.4790307515706056,-0.36505319457181057,0.29720619959112715,-0.14448218196772508,0.054975665487397816,0.04733915768676165,5.0
0.4861552709269473,-0.3686363526451022,0.33490510893010916,-0.16586648055462397,0.08150856644186943,0.013141822463826428,5.0
0.4754684918924356,-0.36147003649851905,0.3009760971240617,-0.16640108834532055,0.0955120425932865,0.013937109865227911,5.0
0.46478171285792413,-0.36505319457181057,0.3198255517935527,-0.16265883381044458,0.11393766969971178,0.022685264005698338,5.0
0.4683439725360947,-0.39013523836327807,0.3235954163313052,-0.1786970544903778,0.11835981840738939,-0.004354490667078455,5.0
0.45765719350158357,-0.39013523836327807,0.2896664375204398,-0.17121255194110774,0.08593071739687762,0.0004172337413305168,5.0
0.45765719350158357,-0.3973015545098611,0.28589653998750525,-0.15677815137302328,0.06308294102094208,0.001212518717750004,5.0
0.45765719350158357,-0.42238359830132877,0.28589653998750525,-0.1380668933697277,0.07192724124546052,0.03938628882583346,5.0
0.46121945317975416,-0.4116341240814538,0.2896664375204398,-0.12844395884261114,0.04907946543135764,0.03938628882583346,5.0
0.4505329235682698,-0.40805096600816226,0.29720619959112715,-0.10117898026347168,0.035813014813663675,0.06324489480237253,5.0
0.4505329235682698,-0.40805096600816226,0.29720619959112715,-0.1006443724727751,0.03507598927994056,0.06085903502315004,5.0
0.45765719350158357,-0.3973015545098611,0.2783567449216361,-0.09904055073080588,0.017387387707238435,0.054496739449411094,5.0
0.4505329235682698,-0.38655208028998644,0.28589653998750525,-0.09262526050268803,0.0240206130160854,0.061654321212060534,5.0
0.4505329235682698,-0.38655208028998644,0.28589653998750525,-0.08727918748608378,0.05129054034702909,0.050520304867385624,5.0
0.4683439725360947,-0.39013523836327807,0.28589653998750525,-0.08781379364665987,0.055712690459288304,0.03063813316974928,5.0
0.4505329235682698,-0.37221951071839404,0.3009760971240617,-0.09690211956801961,0.07561236666674556,0.024275838808501333,5.0
0.4505329235682698,-0.37221951071839404,0.3009760971240617,-0.10438662456247037,0.0505535153751386,0.050520304867385624,5.0
0.4505329235682698,-0.38296892221669476,0.29720619959112715,-0.10010976468207854,0.06750509141411762,0.04336272325629756,5.0
0.45765719350158357,-0.37580260607011157,0.29720619959112715,-0.10224819421474433,0.04613136442013044,0.04733915768676165,5.0
0.4754684918924356,-0.39013523836327807,0.2896664375204398,-0.10010976468207854,0.08519369186315447,0.03461456775177475,5.0
0.45765719350158357,-0.39013523836327807,0.30474599465699626,-0.10705966188583273,0.07266426677918363,0.029047559579437294,5.0
0.4683439725360947,-0.3686363526451022,0.2821266424545707,-0.10919809141849852,0.07634939220046869,0.011551247661023426,5.0
0.4683439725360947,-0.37938576414340325,0.29720619959112715,-0.12042484728005418,0.07782344102058437,-0.030598955513471738,5.0
0.4683439725360947,-0.38296892221669476,0.2896664375204398,-0.12951317360894404,0.07192724124546052,-0.0027639158642754525,5.0
0.46121945317975416,-0.37221951071839404,0.29720619959112715,-0.13967071511169693,0.08814179175071639,0.02109469162787736,5.0
0.47190623221426503,-0.36147003649851905,0.33113521139717433,-0.14180914464436273,0.08003451762175373,0.05688260044112458,5.0
0.46121945317975416,-0.35788687842522754,0.33490510893010916,-0.1701433363597146,0.08077154090814631,0.009960675283202455,5.0
0.4505329235682698,-0.36505319457181057,0.3122857567276833,-0.14608600533981478,0.06087186582435432,0.042567436385360875,5.0
0.45765719350158357,-0.3973015545098611,0.33113521139717433,-0.1268401362855817,0.06455699096472305,0.025071124997411823,5.0
0.46121945317975416,-0.4008847125831529,0.3085158591947487,-0.101713587239108,0.05939781566988611,0.03381928095661876,5.0
0.47190623221426503,-0.4008847125831529,0.2934363020581923,-0.08139850504866249,0.06603104090850402,0.016322969644450392,5.0
0.4683439725360947,-0.3686363526451022,0.33113521139717433,-0.08995222317932566,0.09624906812700963,0.008370100480399451,5.0
0.46478171285792413,-0.36147003649851905,0.31605565426061816,-0.10973269880166497,0.09108989163827833,0.012346535062424913,5.0
0.47190623221426503,-0.35788687842522754,0.2821266424545707,-0.10919809141849852,0.08298261750931568,0.018708829423672867,5.0
0.45765719350158357,-0.36147003649851905,0.30474599465699626,-0.09155604655141537,0.08224559197559254,0.010755962684603939,5.0
0.45765719350158357,-0.35788687842522754,0.31605565426061816,-0.11989023989688773,0.10509336778969543,-0.0027639158642754525,5.0
0.45765719350158357,-0.36147003649851905,0.3273653138642398,-0.09850594294010932,0.0955120425932865,0.017913544447253387,5.0
0.4683439725360947,-0.36505319457181057,0.3122857567276833,-0.1038520167717738,0.06897914135789858,0.016322969644450392,5.0
0.46478171285792413,-0.37221951071839404,0.29720619959112715,-0.09048683097002223,0.08371964304303878,0.005984240701176971,5.0
0.4505329235682698,-0.37221951071839404,0.29720619959112715,-0.09422908387477773,0.0940379937731708,0.0075748130789979416,5.0
0.44697066389009976,-0.37938576414340325,0.29720619959112715,-0.08620997190469064,0.08003451762175373,0.002803093520552998,5.0
0.4683439725360947,-0.3973015545098611,0.2632772042826709,-0.07658703819263434,0.06455699096472305,-0.0019686284628739645,5.0
0.4434084042119292,-0.3686363526451022,0.29720619959112715,-0.08139850504866249,0.0431832645325685,0.03302399416146276,5.0
0.44697066389009976,-0.3399711507803432,0.3273653138642398,-0.07979468167657279,0.03360193821249432,0.08312706528751786,5.0
0.45765719350158357,-0.3399711507803432,0.33490510893010916,-0.0910214387607188,-0.022411964145843462,0.16026989472382278,5.0
0.47190623221426503,-0.34713740420535255,0.33490510893010916,-0.07017174796451647,-0.05484106965101633,0.1714039086435157,5.0
0.4825930112487762,-0.36505319457181057,0.3462147685337308,-0.05894499414061141,-0.04157461903332238,0.1562934577168153,5.0
0.4683439725360947,-0.3686363526451022,0.3273653138642398,-0.0616180298338533,0.006332013690713825,0.11096210493671416,5.0
0.4683439725360947,-0.35788687842522754,0.29720619959112715,-0.06536028110848832,0.038761114701225605,0.062449607400971024,5.0
0.4754684918924356,-0.36505319457181057,0.3122857567276833,-0.06054881425246016,0.09182691717200146,0.03381928095661876,5.0
0.4790307515706056,-0.37221951071839404,0.33490510893010916,-0.05947960193130798,0.10583039332341852,0.0075748130789979416,5.0
0.4754684918924356,-0.3686363526451022,0.3424448710007962,-0.05413352402434231,0.11098956756481927,0.0075748130789979416,5.0
0.46121945317975416,-0.36147003649851905,0.3273653138642398,-0.05252970065225261,0.11762279287366628,-0.004354490667078455,5.0
0.454094933823413,-0.35788687842522754,0.31605565426061816,-0.06482567331779175,0.12204494607600497,0.017913544447253387,5.0
0.46121945317975416,-0.36505319457181057,0.3235954163313052,-0.09262526050268803,0.09772311694712532,0.04892973127707364,5.0
0.45765719350158357,-0.36505319457181057,0.3198255517935527,-0.10438662456247037,0.0940379937731708,0.0664260419829965,5.0
0.45765719350158357,-0.36505319457181057,0.3198255517935527,-0.09957515689138198,0.06897914135789858,0.05529202685081259,5.0
0.47190623221426503,-0.36505319457181057,0.29720619959112715,-0.09262526050268803,0.06750509141411762,0.08392235268891936,5.0
0.46121945317975416,-0.36505319457181057,0.3009760971240617,-0.11080191356799787,0.062345915768135286,0.0902846470501673,5.0
0.46121945317975416,-0.36505319457181057,0.3009760971240617,-0.09155604655141537,0.03949814023494872,0.09903280361561974,5.0
0.4683439725360947,-0.3686363526451022,0.2896664375204398,-0.09583290561674696,0.0616088907962448,0.0783553457290729,5.0
0.47190623221426503,-0.37221951071839404,0.3085158591947487,-0.11133652095116432,0.0874047662169933,0.07278833634424445,5.0
0.4754684918924356,-0.35430372035193575,0.33113521139717433,-0.13111699535091328,0.05350161526270054,0.08630821489312385,5.0
0.46478171285792413,-0.3292216765604682,0.3462147685337308,-0.15624354684256767,0.034338963746217435,0.07676477092626989,5.0
0.45765719350158357,-0.34713740420535255,0.3424448710007962,-0.17923166228107434,0.029916815038539806,0.10698567277967068,5.0
0.4754684918924356,-0.3399711507803432,0.3537545635995999,-0.15784736695441642,0.012965238999560782,0.09585165885997778,5.0
0.4683439725360947,-0.35788687842522754,0.33490510893010916,-0.17067794415041118,0.03655004034738679,0.07915063313047441,5.0
0.46121945317975416,-0.35788687842522754,0.31605565426061816,-0.17923166228107434,0.04539434001007259,0.054496739449411094,5.0
0.46478171285792413,-0.36505319457181057,0.31605565426061816,-0.15945119032650612,0.06824211582417547,0.054496739449411094,5.0
0.4754684918924356,-0.38296892221669476,0.3273653138642398,-0.13592846220694144,0.07929749208803061,0.03222870676006127,5.0
0.46121945317975416,-0.37938576414340325,0.3424448710007962,-0.12095945466322063,0.062345915768135286,0.016322969644450392,5.0
0.4683439725360947,-0.36505319457181057,0.33113521139717433,-0.1225632772202501,0.06750509141411762,0.005984240701176971,5.0
0.45765719350158357,-0.36505319457181057,0.3235954163313052,-0.11187112833433077,0.04834243989763452,0.018708829423672867,5.0
0.4505329235682698,-0.37221951071839404,0.31605565426061816,-0.10652505409513616,0.04539434001007259,0.03859100203067747,5.0
0.4505329235682698,-0.39013523836327807,0.29720619959112715,-0.10919809141849852,0.06308294102094208,0.024275838808501333,5.0
0.4683439725360947,-0.39013523836327807,0.2896664375204398,-0.09422908387477773,0.09256394270572457,0.04733915768676165,5.0
0.4683439725360947,-0.38655208028998644,0.29720619959112715,-0.09636751340744353,0.12278196711506703,0.024275838808501333,5.0
0.46478171285792413,-0.38296892221669476,0.3122857567276833,-0.10919809141849852,0.11541172076715797,0.016322969644450392,5.0
0.4683439725360947,-0.3973015545098611,0.33113521139717433,-0.09315986829338459,0.10656741885714167,0.020299404226475862,5.0
0.4505329235682698,-0.39013523836327807,0.31605565426061816,-0.10331740979613747,0.08519369186315447,0.029842846980838788,5.0
0.454094933823413,-0.38655208028998644,0.30474599465699626,-0.09636751340744353,0.08666774293060071,0.031433420571150776,5.0
0.45765719350158357,-0.38296892221669476,0.29720619959112715,-0.08246772063005563,0.09772311694712532,0.054496739449411094,5.0
0.4683439725360947,-0.38296892221669476,0.3462147685337308,-0.08995222317932566,0.09256394270572457,0.07915063313047441,5.0
0.454094933823413,-0.37938576414340325,0.31605565426061816,-0.07926007388587622,0.08150856644186943,0.07040247656502195,5.0
0.45765719350158357,-0.3973015545098611,0.29720619959112715,-0.09262526050268803,0.08445666632943136,0.054496739449411094,5.0
0.4434084042119292,-0.3973015545098611,0.29720619959112715,-0.08300232842075218,0.09330096823944771,0.05211087845769761,5.0
0.45765719350158357,-0.37938576414340325,0.2934363020581923,-0.08995222317932566,0.08298261750931568,0.0680166167857995,5.0
0.454094933823413,-0.3686363526451022,0.3273653138642398,-0.1006443724727751,0.05423864023459102,0.08789878969592683,5.0
0.4505329235682698,-0.36147003649851905,0.3462147685337308,-0.1059904463044396,0.004120937089544472,0.10062337841842274,5.0
0.45765719350158357,-0.35788687842522754,0.3537545635995999,-0.09209065271199145,-0.024623040747012815,0.10698567277967068,5.0
0.45765719350158357,-0.35788687842522754,0.33490510893010916,-0.08834840143735644,-0.05336701858357009,0.1427735815929179,5.0
0.4754684918924356,-0.36147003649851905,0.3499846660666654,-0.07765625377402746,-0.03125626156119872,0.11334796714091863,5.0
0.4825930112487762,-0.36505319457181057,0.3499846660666654,-0.08032928946726935,0.012965238999560782,0.09744222881281675,5.0
0.4861552709269473,-0.35788687842522754,0.3424448710007962,-0.1027828020054409,0.05423864023459102,0.03381928095661876,5.0
0.46121945317975416,-0.34713740420535255,0.33490510893010916,-0.11347495068759517,0.043920290066291626,0.03859100203067747,5.0
0.454094933823413,-0.35072056227864407,0.3273653138642398,-0.11240573592126228,0.04465731447634947,0.020299404226475862,5.0
0.46478171285792413,-0.35430372035193575,0.31605565426061816,-0.12095945466322063,0.08814179175071639,-0.01866965419237734,5.0
0.4683439725360947,-0.3686363526451022,0.3122857567276833,-0.12470170675291589,0.10067121908201782,-0.046504693841573616,5.0
0.47190623221426503,-0.37938576414340325,0.3273653138642398,-0.11828641774738839,0.1264670947836826,-0.061615144768274004,5.0
0.46478171285792413,-0.37938576414340325,0.28589653998750525,-0.11347495068759517,0.10288229118852608,-0.03855182467752267,5.0
0.45765719350158357,-0.39371839643656986,0.2934363020581923,-0.1006443724727751,0.07929749208803061,-0.020260224145216315,5.0
0.45765719350158357,-0.39013523836327807,0.2934363020581923,-0.088883009228053,0.06603104090850402,-0.022646086349420797,5.0
0.45765719350158357,-0.3973015545098611,0.30474599465699626,-0.09048683097002223,0.04539434001007259,-0.02980366811207025,5.0
0.45765719350158357,-0.3973015545098611,0.29720619959112715,-0.09048683097002223,0.034338963746217435,-0.012307359831129405,5.0
0.45765719350158357,-0.39013523836327807,0.3122857567276833,-0.10705966188583273,0.0313908638586555,0.03779571523552147,5.0
0.45765719350158357,-0.36505319457181057,0.3085158591947487,-0.10010976468207854,0.038761114701225605,0.013937109865227911,5.0
0.45765719350158357,-0.35430372035193575,0.3273653138642398,-0.10224819421474433,0.010754162398391437,0.08233178031109838,5.0
0.45765719350158357,-0.3435543088536347,0.33490510893010916,-0.11721720277729043,-0.05189296751612384,0.09107993445156881,5.0
0.46478171285792413,-0.34713740420535255,0.36883412073615635,-0.11400955817264415,-0.04820783984750825,0.15152173330840632,5.0
0.4754684918924356,-0.3399711507803432,0.3726039852739088,-0.10010976468207854,-0.07621479215034242,0.16106518212522425,5.0
0.4754684918924356,-0.35072056227864407,0.3612943256702872,-0.10973269880166497,-0.04157461903332238,0.15788403251961827,5.0
0.4754684918924356,-0.36505319457181057,0.3763738828068434,-0.1049212315381067,-0.005460385859533929,0.1356160046802325,5.0
0.47190623221426503,-0.35788687842522754,0.3537545635995999,-0.09690211956801961,0.021072513128523474,0.10698567277967068,5.0
0.4754684918924356,-0.36505319457181057,0.3085158591947487,-0.1038520167717738,0.057186740543527424,0.06324489480237253,5.0
0.47190623221426503,-0.37221951071839404,0.31605565426061816,-0.09797133514941275,0.08445666632943136,0.03381928095661876,5.0
0.46121945317975416,-0.38296892221669476,0.3198255517935527,-0.08514075632329751,0.10656741885714167,0.010755962684603939,5.0
0.46478171285792413,-0.38296892221669476,0.3085158591947487,-0.07231017912730274,0.09256394270572457,0.0075748130789979416,5.0
0.46478171285792413,-0.38296892221669476,0.3085158591947487,-0.08674457969538721,0.11393766969971178,-0.04411883163736913,5.0
0.4754684918924356,-0.36505319457181057,0.2519675281814579,-0.09262526050268803,0.09919716801457155,-0.03934711207892417,5.0
0.4398461445337589,-0.35430372035193575,0.29720619959112715,-0.11454416560675186,0.10730444439086477,-0.0361659624733182,5.0
0.45765719350158357,-0.34713740420535255,0.3009760971240617,-0.12523631454361245,0.05350161526270054,0.006779528102578486,5.0
0.46121945317975416,-0.35788687842522754,0.3273653138642398,-0.14501678975842164,0.07634939220046869,0.023480551407099835,5.0
0.45765719350158357,-0.36505319457181057,0.3198255517935527,-0.13753228557903113,0.07266426677918363,0.04097686264348751,5.0
0.45765719350158357,-0.36505319457181057,0.3198255517935527,-0.14073993069309007,0.07561236666674556,0.058473174031436564,5.0
0.45765719350158357,-0.37221951071839404,0.3122857567276833,-0.11240573592126228,0.07340129118924148,0.04733915768676165,5.0
0.45765719350158357,-0.37221951071839404,0.3122857567276833,-0.10705966188583273,0.062345915768135286,0.09744222881281675,5.0
0.4505329235682698,-0.35788687842522754,0.3235954163313052,-0.11347495068759517,0.057186740543527424,0.06404018220377403,5.0
0.4505329235682698,-0.34713740420535255,0.3273653138642398,-0.12202866942955352,0.04244624012251066,0.07040247656502195,5.0
0.4505329235682698,-0.34713740420535255,0.3273653138642398,-0.11026730618483142,0.038761114701225605,0.10380452317406469,5.0
0.46478171285792413,-0.36505319457181057,0.33490510893010916,-0.10438662456247037,0.06750509141411762,0.10062337841842274,5.0
0.4754684918924356,-0.36147003649851905,0.33490510893010916,-0.12951317360894404,0.056449715431178785,0.0775600583276714,5.0
0.4683439725360947,-0.35788687842522754,0.3085158591947487,-0.11775181016045688,0.04760541548757667,0.0775600583276714,5.0
0.45765719350158357,-0.36147003649851905,0.33490510893010916,-0.1059904463044396,0.03507598927994056,0.07437891114704744,5.0
0.47190623221426503,-0.35788687842522754,0.3424448710007962,-0.11828641774738839,0.06013484071200568,0.050520304867385624,5.0
0.4683439725360947,-0.3399711507803432,0.33113521139717433,-0.1343246404649722,0.06308294102094208,0.06404018220377403,5.0
0.4683439725360947,-0.34713740420535255,0.3424448710007962,-0.14768982545166354,0.07708641661052654,0.025866412398813318,5.0
0.45765719350158357,-0.36147003649851905,0.31605565426061816,-0.1402053229023935,0.0616088907962448,0.050520304867385624,5.0
0.46478171285792413,-0.37938576414340325,0.33490510893010916,-0.12309788419588642,0.07340129118924148,0.03859100203067747,5.0
0.46121945317975416,-0.39371839643656986,0.31605565426061816,-0.09904055073080588,0.06603104090850402,0.042567436385360875,5.0
0.46478171285792413,-0.3973015545098611,0.30474599465699626,-0.09476369003535381,0.07487534113302245,0.03540985454693074,5.0
0.4683439725360947,-0.39371839643656986,0.3273653138642398,-0.09957515689138198,0.07782344102058437,0.05211087845769761,5.0
0.45765719350158357,-0.39013523836327807,0.3198255517935527,-0.08300232842075218,0.07929749208803061,0.05529202685081259,5.0
0.4683439725360947,-0.38296892221669476,0.3198255517935527,-0.116147987909075,0.10509336778969543,0.03859100203067747,5.0
0.46121945317975416,-0.37938576414340325,0.30474599465699626,-0.116147987909075,0.08961584281816265,0.018708829423672867,5.0
0.4683439725360947,-0.3973015545098611,0.25573742571439256,-0.11775181016045688,0.0940379937731708,0.050520304867385624,5.0
0.46478171285792413,-0.39013523836327807,0.2745868803838836,-0.10919809141849852,0.09182691717200146,0.05131559226878712,5.0
0.4683439725360947,-0.38296892221669476,0.3009760971240617,-0.11882102513055484,0.08371964304303878,0.04813444448191764,5.0
0.4754684918924356,-0.37221951071839404,0.31605565426061816,-0.12309788419588642,0.06455699096472305,0.0664260419829965,5.0
0.44697066389009976,-0.37580260607011157,0.3122857567276833,-0.12844395884261114,0.06603104090850402,0.07119776396642347,5.0
0.4683439725360947,-0.37221951071839404,0.33490510893010916,-0.1257709215192488,0.03286491492610174,0.0799459205318759,5.0
0.4790307515706056,-0.37221951071839404,0.3273653138642398,-0.10705966188583273,0.03507598927994056,0.09346579665577329,5.0
0.4754684918924356,-0.38296892221669476,0.35752442813735236,-0.09957515689138198,0.05423864023459102,0.0783553457290729,5.0
0.4790307515706056,-0.3686363526451022,0.33490510893010916,-0.09422908387477773,0.056449715431178785,0.08869407709732834,5.0
0.4754684918924356,-0.35788687842522754,0.33113521139717433,-0.11828641774738839,0.062345915768135286,0.07119776396642347,5.0
0.46121945317975416,-0.36505319457181057,0.3499846660666654,-0.11775181016045688,0.07782344102058437,0.067221329384398,5.0
0.4683439725360947,-0.3686363526451022,0.33490510893010916,-0.11828641774738839,0.08077154090814631,0.05529202685081259,5.0
0.4683439725360947,-0.37580260607011157,0.3198255517935527,-0.12470170675291589,0.08371964304303878,0.045748583793326913,5.0
0.4683439725360947,-0.37580260607011157,0.3198255517935527,-0.10973269880166497,0.08371964304303878,0.09107993445156881,5.0
0.46121945317975416,-0.36505319457181057,0.33490510893010916,-0.11133652095116432,0.054975665487397816,0.059268460220347055,5.0
0.4683439725360947,-0.37580260607011157,0.3386749734678617,-0.12095945466322063,0.034338963746217435,0.0680166167857995,5.0
0.4683439725360947,-0.37580260607011157,0.3386749734678617,-0.1300477813996406,0.02696871290364733,0.062449607400971024,5.0
0.45765719350158357,-0.37580260607011157,0.3273653138642398,-0.11775181016045688,0.03802408916750249,0.05370145204800959,5.0
0.454094933823413,-0.37221951071839404,0.30474599465699626,-0.12737474407627825,0.0240206130160854,0.09346579665577329,5.0
0.454094933823413,-0.37221951071839404,0.30474599465699626,-0.11400955817264415,0.026231689617254774,0.07915063313047441,5.0
0.4683439725360947,-0.37221951071839404,0.3085158591947487,-0.12042484728005418,0.0313908638586555,0.067221329384398,5.0
0.4683439725360947,-0.37221951071839404,0.33113521139717433,-0.10010976468207854,0.035813014813663675,0.0680166167857995,5.0
0.4683439725360947,-0.38655208028998644,0.3198255517935527,-0.11882102513055484,0.04465731447634947,0.05767788663003506,5.0
0.4505329235682698,-0.37221951071839404,0.3085158591947487,-0.12309788419588642,0.029916815038539806,0.08869407709732834,5.0
0.454094933823413,-0.39013523836327807,0.29720619959112715,-0.10866348362780195,0.0313908638586555,0.08471764009032086,5.0
0.4505329235682698,-0.39371839643656986,0.3273653138642398,-0.10919809141849852,0.02770573843737046,0.0775600583276714,5.0
0.45765719350158357,-0.37580260607011157,0.3273653138642398,-0.10812887665216563,0.028442763971093573,0.0664260419829965,5.0
0.45765719350158357,-0.38296892221669476,0.31605565426061816,-0.10705966188583273,0.04023516464500657,0.06006374762174855,5.0
0.4683439725360947,-0.39013523836327807,0.3198255517935527,-0.12737474407627825,0.04170921458878754,0.05370145204800959,5.0
0.4683439725360947,-0.37938576414340325,0.33113521139717433,-0.12790935186697483,0.02696871290364733,0.0926705092543718,5.0
0.4505329235682698,-0.38296892221669476,0.3273653138642398,-0.11668259539412398,0.01591333663979219,0.08948935964876581,5.0
0.45765719350158357,-0.39013523836327807,0.31605565426061816,-0.11347495068759517,0.029916815038539806,0.08630821489312385,5.0
0.4683439725360947,-0.3973015545098611,0.2896664375204398,-0.1006443724727751,0.04834243989763452,0.065630754581595,5.0
0.4683439725360947,-0.38655208028998644,0.2896664375204398,-0.10919809141849852,0.03728706363377937,0.0664260419829965,5.0
0.45765719350158357,-0.3973015545098611,0.30474599465699626,-0.11240573592126228,0.032127889392378636,0.07676477092626989,5.0
0.45765719350158357,-0.38296892221669476,0.3009760971240617,-0.10117898026347168,0.03065383832493239,0.06960718916362046,5.0
0.454094933823413,-0.37938576414340325,0.3009760971240617,-0.11240573592126228,0.038761114701225605,0.08392235268891936,5.0
0.45765719350158357,-0.38296892221669476,0.3085158591947487,-0.09476369003535381,0.0218095386622466,0.07676477092626989,5.0
0.44697066389009976,-0.39013523836327807,0.31605565426061816,-0.11347495068759517,0.038761114701225605,0.06404018220377403,5.0
0.45765719350158357,-0.3973015545098611,0.3122857567276833,-0.12737474407627825,0.049816489841415484,0.08869407709732834,5.0
0.454094933823413,-0.41521728215474546,0.3009760971240617,-0.11400955817264415,0.03507598927994056,0.0664260419829965,5.0
0.45765719350158357,-0.39371839643656986,0.33113521139717433,-0.10117898026347168,0.014439290067007024,0.08153649290969688,5.0
0.45765719350158357,-0.4008847125831529,0.2896664375204398,-0.10438662456247037,0.03802408916750249,0.07517419854844894,5.0
0.45765719350158357,-0.38655208028998644,0.2896664375204398,-0.10866348362780195,0.04465731447634947,0.0902846470501673,5.0
0.4683439725360947,-0.42596675637462045,0.2783567449216361,-0.116147987909075,0.04539434001007259,0.06324489480237253,5.0
0.46478171285792413,-0.39371839643656986,0.29720619959112715,-0.1038520167717738,0.06897914135789858,0.04097686264348751,5.0
0.45765719350158357,-0.39371839643656986,0.3009760971240617,-0.10759426886146906,0.04023516464500657,0.0775600583276714,5.0
0.4505329235682698,-0.39013523836327807,0.2934363020581923,-0.1049212315381067,0.034338963746217435,0.05211087845769761,5.0
0.4505329235682698,-0.3973015545098611,0.3273653138642398,-0.1038520167717738,0.038761114701225605,0.06006374762174855,5.0
0.45765719350158357,-0.39371839643656986,0.3235954163313052,-0.10331740979613747,0.03507598927994056,0.05608731303972308,5.0
0.46478171285792413,-0.39371839643656986,0.3122857567276833,-0.116147987909075,0.056449715431178785,0.05608731303972308,5.0
0.47190623221426503,-0.40805096600816226,0.3198255517935527,-0.11400955817264415,0.04244624012251066,0.06404018220377403,5.0
0.4683439725360947,-0.3973015545098611,0.30474599465699626,-0.11133652095116432,0.05350161526270054,0.04336272325629756,5.0
0.45765719350158357,-0.4008847125831529,0.31605565426061816,-0.09583290561674696,0.05129054034702909,0.05767788663003506,5.0
0.45765719350158357,-0.39371839643656986,0.28589653998750525,-0.08139850504866249,0.05939781566988611,0.04892973127707364,5.0
0.45765719350158357,-0.38655208028998644,0.31605565426061816,-0.101713587239108,0.04539434001007259,0.019504116825074365,5.0
0.47190623221426503,-0.39371839643656986,0.2934363020581923,-0.101713587239108,0.054975665487397816,0.05608731303972308,5.0
0.45765719350158357,-0.38296892221669476,0.2821266424545707,-0.11026730618483142,0.04023516464500657,0.05211087845769761,5.0
0.4327216251774183,-0.37938576414340325,0.3009760971240617,-0.12095945466322063,0.05276459029081006,0.03222870676006127,5.0
0.4505329235682698,-0.4008847125831529,0.3009760971240617,-0.1268401362855817,0.06381996599283257,0.02188997781678785,5.0
0.45765719350158357,-0.39013523836327807,0.3009760971240617,-0.11294034330442872,0.07266426677918363,0.03859100203067747,5.0
0.45765719350158357,-0.39013523836327807,0.3009760971240617,-0.11347495068759517,0.07487534113302245,0.02188997781678785,5.0
0.46121945317975416,-0.3973015545098611,0.29720619959112715,-0.10973269880166497,0.07266426677918363,0.04654387089160566,5.0
0.4505329235682698,-0.3973015545098611,0.2896664375204398,-0.11080191356799787,0.0947750170595634,0.03381928095661876,5.0
0.4505329235682698,-0.3973015545098611,0.2896664375204398,-0.10545583932880327,0.07340129118924148,0.03779571523552147,5.0
0.44697066389009976,-0.39013523836327807,0.30474599465699626,-0.11080191356799787,0.056449715431178785,0.04336272325629756,5.0
0.45765719350158357,-0.39013523836327807,0.2934363020581923,-0.1049212315381067,0.06308294102094208,0.05290616585909911,5.0
0.454094933823413,-0.3973015545098611,0.30474599465699626,-0.10010976468207854,0.05350161526270054,0.05688260044112458,5.0
0.46121945317975416,-0.3973015545098611,0.3085158591947487,-0.11721720277729043,0.055712690459288304,0.06324489480237253,5.0
0.45765719350158357,-0.37580260607011157,0.2896664375204398,-0.10973269880166497,0.0741383167229646,0.025071124997411823,5.0
0.4505329235682698,-0.37938576414340325,0.2934363020581923,-0.09476369003535381,0.062345915768135286,0.050520304867385624,5.0
0.4434084042119292,-0.38655208028998644,0.2708169828509488,-0.1049212315381067,0.05939781566988611,0.04018157577255083,5.0
0.4505329235682698,-0.37938576414340325,0.2896664375204398,-0.12095945466322063,0.057186740543527424,0.028252272178035796,5.0
0.4754684918924356,-0.38296892221669476,0.29720619959112715,-0.12042484728005418,0.09108989163827833,0.03461456775177475,5.0
0.4754684918924356,-0.39371839643656986,0.3085158591947487,-0.09904055073080588,0.08593071739687762,0.058473174031436564,5.0
0.4683439725360947,-0.39013523836327807,0.3085158591947487,-0.1049212315381067,0.08224559197559254,0.07358362374564593,5.0
0.46121945317975416,-0.37938576414340325,0.3424448710007962,-0.11080191356799787,0.04244624012251066,0.059268460220347055,5.0
0.46478171285792413,-0.38655208028998644,0.3235954163313052,-0.101713587239108,0.03728706363377937,0.0664260419829965,5.0
0.46121945317975416,-0.39013523836327807,0.3235954163313052,-0.08086389725796592,0.04244624012251066,0.07358362374564593,5.0
0.4398461445337589,-0.38296892221669476,0.31605565426061816,-0.09476369003535381,0.034338963746217435,0.0775600583276714,5.0
0.4505329235682698,-0.3973015545098611,0.3085158591947487,-0.11294034330442872,0.02328358748236229,0.08153649290969688,5.0
0.45765719350158357,-0.3973015545098611,0.2783567449216361,-0.11080191356799787,0.032127889392378636,0.07676477092626989,5.0
0.44697066389009976,-0.38655208028998644,0.2896664375204398,-0.1038520167717738,0.02696871290364733,0.062449607400971024,5.0
0.45765719350158357,-0.40805096600816226,0.29720619959112715,-0.10117898026347168,0.04907946543135764,0.054496739449411094,5.0
0.46121945317975416,-0.40805096600816226,0.2934363020581923,-0.11133652095116432,0.049816489841415484,0.06006374762174855,5.0
0.454094933823413,-0.39013523836327807,0.3085158591947487,-0.1059904463044396,0.06381996599283257,0.045748583793326913,5.0
0.45765719350158357,-0.39013523836327807,0.29720619959112715,-0.11454416560675186,0.054975665487397816,0.067221329384398,5.0
0.4683439725360947,-0.3973015545098611,0.29720619959112715,-0.11989023989688773,0.05423864023459102,0.06085903502315004,5.0
0.4683439725360947,-0.40805096600816226,0.33490510893010916,-0.12042484728005418,0.06308294102094208,0.05688260044112458,5.0
0.4683439725360947,-0.40805096600816226,0.33490510893010916,-0.11187112833433077,0.043920290066291626,0.061654321212060534,5.0
0.454094933823413,-0.40805096600816226,0.3273653138642398,-0.11026730618483142,0.05202756531891957,0.06006374762174855,5.0
0.4683439725360947,-0.40805096600816226,0.3085158591947487,-0.10545583932880327,0.057186740543527424,0.062449607400971024,5.0
0.4683439725360947,-0.40805096600816226,0.3085158591947487,-0.10812887665216563,0.04907946543135764,0.0664260419829965,5.0
0.47190623221426503,-0.3973015545098611,0.2821266424545707,-0.10224819421474433,0.0874047662169933,0.045748583793326913,5.0
0.46478171285792413,-0.40805096600816226,0.29720619959112715,-0.09850594294010932,0.07192724124546052,0.054496739449411094,5.0
0.45765719350158357,-0.4008847125831529,0.3009760971240617,-0.09636751340744353,0.06529401593661353,0.04972501807222963,5.0
0.4505329235682698,-0.38296892221669476,0.30474599465699626,-0.08727918748608378,0.04539434001007259,0.05290616585909911,5.0
0.47190623221426503,-0.40805096600816226,0.2708169828509488,-0.09583290561674696,0.04907946543135764,0.05211087845769761,5.0
0.46478171285792413,-0.3973015545098611,0.3122857567276833,-0.10224819421474433,0.05939781566988611,0.05211087845769761,5.0
0.4683439725360947,-0.38296892221669476,0.3009760971240617,-0.12202866942955352,0.08445666632943136,0.04733915768676165,5.0
0.4790307515706056,-0.39013523836327807,0.29720619959112715,-0.13485924825566878,0.06971616576795643,0.059268460220347055,5.0
0.45765719350158357,-0.3973015545098611,0.3085158591947487,-0.1300477813996406,0.0667680658803945,0.059268460220347055,5.0
0.45765719350158357,-0.4116341240814538,0.29720619959112715,-0.10545583932880327,0.0505535153751386,0.04018157577255083,5.0
0.46121945317975416,-0.41521728215474546,0.30474599465699626,-0.1006443724727751,0.04834243989763452,0.03938628882583346,5.0
0.46478171285792413,-0.40446780793487047,0.3085158591947487,-0.09262526050268803,0.06013484071200568,0.028252272178035796,5.0
0.46478171285792413,-0.39013523836327807,0.2896664375204398,-0.09636751340744353,0.05423864023459102,0.04415801020301492,5.0
0.46121945317975416,-0.3973015545098611,0.29720619959112715,-0.1038520167717738,0.057186740543527424,0.028252272178035796,5.0
0.45765719350158357,-0.40805096600816226,0.2934363020581923,-0.09850594294010932,0.04760541548757667,0.04336272325629756,5.0
0.45765719350158357,-0.40446780793487047,0.2934363020581923,-0.09315986829338459,0.0431832645325685,0.025866412398813318,5.0
0.4505329235682698,-0.3973015545098611,0.31605565426061816,-0.09262526050268803,0.0431832645325685,0.024275838808501333,5.0
0.45765719350158357,-0.39371839643656986,0.3085158591947487,-0.10919809141849852,0.0431832645325685,0.02188997781678785,5.0
0.4683439725360947,-0.39371839643656986,0.29720619959112715,-0.1059904463044396,0.04613136442013044,0.03381928095661876,5.0
0.454094933823413,-0.39371839643656986,0.29720619959112715,-0.11400955817264415,0.05202756531891957,0.026661698587723808,5.0
0.44697066389009976,-0.39013523836327807,0.29720619959112715,-0.11400955817264415,0.05423864023459102,0.03938628882583346,5.0
0.454094933823413,-0.40446780793487047,0.3273653138642398,-0.11347495068759517,0.057186740543527424,0.05608731303972308,5.0
0.45765719350158357,-0.4116341240814538,0.31605565426061816,-0.1027828020054409,0.07487534113302245,0.025866412398813318,5.0
0.4505329235682698,-0.4008847125831529,0.3273653138642398,-0.10973269880166497,0.057186740543527424,0.03222870676006127,5.0
0.4505329235682698,-0.3973015545098611,0.3198255517935527,-0.09904055073080588,0.0667680658803945,0.037000428137242726,5.0
0.46478171285792413,-0.4008847125831529,0.31605565426061816,-0.09529829782605038,0.06897914135789858,0.06006374762174855,5.0
0.46478171285792413,-0.39013523836327807,0.2821266424545707,-0.10973269880166497,0.06971616576795643,0.03859100203067747,5.0
0.4683439725360947,-0.38296892221669476,0.29720619959112715,-0.10224819421474433,0.07561236666674556,0.026661698587723808,5.0
0.45765719350158357,-0.3973015545098611,0.3009760971240617,-0.10438662456247037,0.08961584281816265,0.020299404226475862,5.0
0.46478171285792413,-0.39013523836327807,0.2896664375204398,-0.10010976468207854,0.07119021683540266,0.013937109865227911,5.0
0.454094933823413,-0.38296892221669476,0.2896664375204398,-0.10438662456247037,0.08224559197559254,0.006779528102578486,5.0
0.45765719350158357,-0.38655208028998644,0.2821266424545707,-0.11347495068759517,0.05939781566988611,0.029842846980838788,5.0
0.46121945317975416,-0.39013523836327807,0.30474599465699626,-0.1059904463044396,0.10730444439086477,0.018708829423672867,5.0
0.4434084042119292,-0.4008847125831529,0.2896664375204398,-0.12202866942955352,0.09772311694712532,0.018708829423672867,5.0
0.4505329235682698,-0.3973015545098611,0.3009760971240617,-0.12095945466322063,0.07192724124546052,0.037000428137242726,5.0
0.46121945317975416,-0.3973015545098611,0.3085158591947487,-0.11026730618483142,0.06013484071200568,0.02109469162787736,5.0
0.4683439725360947,-0.39013523836327807,0.2821266424545707,-0.10866348362780195,0.0667680658803945,0.03381928095661876,5.0
0.46121945317975416,-0.38296892221669476,0.31605565426061816,-0.11294034330442872,0.05423864023459102,0.04892973127707364,5.0
0.454094933823413,-0.38655208028998644,0.3085158591947487,-0.12363249198658299,0.07782344102058437,0.03938628882583346,5.0
0.46478171285792413,-0.37580260607011157,0.3122857567276833,-0.11294034330442872,0.07487534113302245,0.023480551407099835,5.0
0.47190623221426503,-0.38296892221669476,0.3085158591947487,-0.11347495068759517,0.06603104090850402,0.05290616585909911,5.0
0.45765719350158357,-0.39013523836327807,0.3085158591947487,-0.1059904463044396,0.07119021683540266,0.03540985454693074,5.0
0.4683439725360947,-0.4008847125831529,0.2896664375204398,-0.11080191356799787,0.07045319130167955,0.027456985989125306,5.0
0.46478171285792413,-0.40805096600816226,0.29720619959112715,-0.11935563251372129,0.06603104090850402,0.03779571523552147,5.0
0.46121945317975416,-0.39371839643656986,0.3235954163313052,-0.09636751340744353,0.07487534113302245,0.027456985989125306,5.0
0.4505329235682698,-0.39013523836327807,0.3273653138642398,-0.10117898026347168,0.06897914135789858,0.027456985989125306,5.0
0.4505329235682698,-0.38296892221669476,0.31605565426061816,-0.10010976468207854,0.046868389953853555,0.020299404226475862,5.0
0.4505329235682698,-0.38296892221669476,0.31605565426061816,-0.11828641774738839,0.0431832645325685,0.05211087845769761,5.0
0.45765719350158357,-0.37580260607011157,0.3273653138642398,-0.1006443724727751,0.04244624012251066,0.05529202685081259,5.0
0.45765719350158357,-0.38296892221669476,0.29720619959112715,-0.09209065271199145,0.05423864023459102,0.029047559579437294,5.0
0.45765719350158357,-0.38296892221669476,0.29720619959112715,-0.09262526050268803,0.06455699096472305,0.042567436385360875,5.0
0.45765719350158357,-0.36505319457181057,0.3085158591947487,-0.09048683097002223,0.046868389953853555,0.04415801020301492,5.0
0.45765719350158357,-0.36505319457181057,0.2934363020581923,-0.09262526050268803,0.05792376558564699,0.054496739449411094,5.0
0.46121945317975416,-0.38296892221669476,0.2783567449216361,-0.09850594294010932,0.054975665487397816,0.050520304867385624,5.0
0.46121945317975416,-0.38296892221669476,0.2783567449216361,-0.09850594294010932,0.054975665487397816,0.050520304867385624,5.0
0.45765719350158357,-0.37580260607011157,0.3009760971240617,-0.09315986829338459,0.07192724124546052,0.067221329384398,5.0
0.45765719350158357,-0.37580260607011157,0.3273653138642398,-0.1059904463044396,0.06603104090850402,0.019504116825074365,5.0
0.45765719350158357,-0.38655208028998644,0.29720619959112715,-0.10866348362780195,0.07782344102058437,0.04097686264348751,5.0
0.46121945317975416,-0.38296892221669476,0.3122857567276833,-0.10224819421474433,0.07782344102058437,0.03302399416146276,5.0
0.454094933823413,-0.39013523836327807,0.3235954163313052,-0.09369447608408116,0.07192724124546052,0.03540985454693074,5.0
0.4434084042119292,-0.38655208028998644,0.3198255517935527,-0.1059904463044396,0.06529401593661353,0.03859100203067747,5.0
0.4434084042119292,-0.38296892221669476,0.31605565426061816,-0.10010976468207854,0.06381996599283257,0.03859100203067747,5.0
0.46121945317975416,-0.39013523836327807,0.2934363020581923,-0.09797133514941275,0.06455699096472305,0.020299404226475862,5.0
0.454094933823413,-0.37580260607011157,0.30474599465699626,-0.12042484728005418,0.0667680658803945,0.027456985989125306,5.0
0.454094933823413,-0.37938576414340325,0.31605565426061816,-0.116147987909075,0.06455699096472305,0.04495329699817092,5.0
0.46478171285792413,-0.39013523836327807,0.3273653138642398,-0.1038520167717738,0.08371964304303878,0.03620514134208674,5.0
0.454094933823413,-0.3973015545098611,0.3235954163313052,-0.10652505409513616,0.08224559197559254,0.03779571523552147,5.0
0.454094933823413,-0.38655208028998644,0.29720619959112715,-0.11240573592126228,0.056449715431178785,0.04495329699817092,5.0
0.454094933823413,-0.38296892221669476,0.3085158591947487,-0.10224819421474433,0.05276459029081006,0.04018157577255083,5.0
0.4398461445337589,-0.37221951071839404,0.33490510893010916,-0.1038520167717738,0.05129054034702909,0.03938628882583346,5.0
0.454094933823413,-0.36505319457181057,0.3198255517935527,-0.11561338047496729,0.08077154090814631,0.06006374762174855,5.0
0.4754684918924356,-0.37580260607011157,0.3273653138642398,-0.12470170675291589,0.08150856644186943,0.04733915768676165,5.0
0.45765719350158357,-0.39013523836327807,0.3085158591947487,-0.10652505409513616,0.07119021683540266,0.04733915768676165,5.0
0.45765719350158357,-0.38296892221669476,0.3009760971240617,-0.11775181016045688,0.06308294102094208,0.022685264005698338,5.0
0.4683439725360947,-0.38296892221669476,0.3009760971240617,-0.11400955817264415,0.07708641661052654,0.02188997781678785,5.0
0.4683439725360947,-0.38655208028998644,0.29720619959112715,-0.09422908387477773,0.10509336778969543,0.029047559579437294,5.0
0.45765719350158357,-0.38296892221669476,0.3198255517935527,-0.09690211956801961,0.06824211582417547,0.031433420571150776,5.0
0.45765719350158357,-0.3973015545098611,0.30474599465699626,-0.088883009228053,0.06603104090850402,0.05370145204800959,5.0
0.46121945317975416,-0.39013523836327807,0.3235954163313052,-0.08727918748608378,0.06824211582417547,0.04813444448191764,5.0
0.4398461445337589,-0.3973015545098611,0.3009760971240617,-0.09583290561674696,0.06603104090850402,0.06404018220377403,5.0
0.4505329235682698,-0.39371839643656986,0.3273653138642398,-0.07444860702984807,0.05792376558564699,0.026661698587723808,5.0
0.454094933823413,-0.38655208028998644,0.3085158591947487,-0.07819086156472403,0.06087186582435432,0.03461456775177475,5.0
0.454094933823413,-0.38655208028998644,0.3085158591947487,-0.07872546609517965,0.057186740543527424,0.05131559226878712,5.0
0.46478171285792413,-0.3686363526451022,0.3273653138642398,-0.09690211956801961,0.08445666632943136,0.03620514134208674,5.0
0.45765719350158357,-0.37221951071839404,0.3122857567276833,-0.09690211956801961,0.07340129118924148,0.04813444448191764,5.0
0.4434084042119292,-0.37221951071839404,0.3085158591947487,-0.0910214387607188,0.04613136442013044,0.05529202685081259,5.0
0.45765719350158357,-0.39013523836327807,0.29720619959112715,-0.09583290561674696,0.02475763854980853,0.04495329699817092,5.0
0.4754684918924356,-0.38296892221669476,0.3273653138642398,-0.08995222317932566,0.04834243989763452,0.050520304867385624,5.0
0.46121945317975416,-0.37938576414340325,0.3122857567276833,-0.09529829782605038,0.0667680658803945,0.028252272178035796,5.0
0.46121945317975416,-0.37580260607011157,0.3273653138642398,-0.1049212315381067,0.06455699096472305,0.010755962684603939,5.0
0.45765719350158357,-0.38296892221669476,0.31605565426061816,-0.10331740979613747,0.05423864023459102,0.031433420571150776,5.0
0.45765719350158357,-0.38296892221669476,0.31605565426061816,-0.09315986829338459,0.0505535153751386,0.04813444448191764,5.0
0.46478171285792413,-0.37221951071839404,0.31605565426061816,-0.08514075632329751,0.07340129118924148,0.04813444448191764,5.0
0.4505329235682698,-0.37580260607011157,0.2896664375204398,-0.09904055073080588,0.06824211582417547,0.04733915768676165,5.0
0.44697066389009976,-0.38296892221669476,0.30474599465699626,-0.0910214387607188,0.06455699096472305,0.028252272178035796,5.0
0.45765719350158357,-0.37580260607011157,0.3273653138642398,-0.09743672735871618,0.05939781566988611,0.029842846980838788,5.0
0.46121945317975416,-0.38296892221669476,0.33490510893010916,-0.1059904463044396,0.06971616576795643,0.05529202685081259,5.0
0.454094933823413,-0.36505319457181057,0.3085158591947487,-0.09529829782605038,0.062345915768135286,0.04733915768676165,5.0
0.46121945317975416,-0.36505319457181057,0.2896664375204398,-0.10919809141849852,0.07266426677918363,0.04495329699817092,5.0
0.46478171285792413,-0.38296892221669476,0.31605565426061816,-0.11026730618483142,0.10877849545831103,0.013141822463826428,5.0
0.4683439725360947,-0.3686363526451022,0.3085158591947487,-0.09797133514941275,0.08887881728443953,0.02188997781678785,5.0
0.4505329235682698,-0.37580260607011157,0.33490510893010916,-0.10545583932880327,0.07192724124546052,0.012346535062424913,5.0
0.44697066389009976,-0.36505319457181057,0.3424448710007962,-0.08995222317932566,0.06603104090850402,0.017913544447253387,5.0
0.4505329235682698,-0.36505319457181057,0.3085158591947487,-0.09422908387477773,0.06971616576795643,0.037000428137242726,5.0
0.47190623221426503,-0.36505319457181057,0.3273653138642398,-0.10919809141849852,0.09698609141340223,0.027456985989125306,5.0
0.4683439725360947,-0.38296892221669476,0.3537545635995999,-0.1268401362855817,0.09993419354829466,0.006779528102578486,5.0
