acc_x,acc_y,acc_z,gyro_x,gyro_y,gyro_z,activity
-1.0960040747542585,-0.10883454849475702,5.1144182168680725,-0.029041042427712434,0.04623840449759797,-0.01163943654758692,0.0
-1.088545695829602,-0.11238225619788457,5.198625308354776,-0.04146423041684126,0.010290479109881437,-0.0275221958077776,0.0
-1.0997332642165865,-0.119477656078882,5.254762714231539,-0.0051149038698794355,0.0003049471238699921,-0.05399346303511676,0.0
-1.1109208326035709,-0.13366845584087678,5.161199934360685,0.0008666305942053059,-0.017669014713643724,-0.07869997803775385,0.0
-1.0960040747542585,-0.12302534825675181,5.1144182168680725,-0.007875612623683192,0.03824997673938251,-0.04340495506796833,0.0
-1.1183792115282272,-0.13366845584087678,5.161199934360685,-0.017077973148795934,0.13610821501725792,0.0033609466002527343,0.0
-1.1109208326035709,-0.1265730559598794,5.179912621357731,-0.014777383105204503,0.12013136140381499,0.02012608130016147,0.0
-1.1146500220658988,-0.11238225619788457,5.1144182168680725,-0.0028143134755409796,0.15208506863070087,0.03071458724941093,0.0
-1.088545695829602,-0.08400065667389497,5.170556277859209,-0.026740452033373982,0.09816318311815983,0.022773207619315585,0.0
-1.0960040747542585,-0.10173914861375956,5.22669368373597,-0.0515868259071495,0.06720802695852858,-0.035463575437872964,0.0
-1.1146500220658988,-0.11592994837575442,5.179912621357731,-0.0695314307023918,0.08218632950471688,-0.05487583914746782,0.0
-1.1034624536789146,-0.1265730559598794,5.22669368373597,-0.07643320048241908,0.10515305581284592,-0.018698442755863232,0.0
-1.0997332642165865,-0.1265730559598794,5.170556277859209,-0.025360098357966147,0.053228278524375644,0.0827747429012062,0.0
-1.0960040747542585,-0.12302534825675181,5.179912621357731,-0.02397974398106427,0.08717909702011302,0.04306784475072946,0.0
-1.1034624536789146,-0.13012074813774918,5.207981651853299,-0.055267772782871954,0.15508073096680697,0.05630347836439905,0.0
-1.1109208326035709,-0.13366845584087678,5.161199934360685,-0.06032906912503801,0.14908940629459475,0.03512646512063412,0.0
-1.0960040747542585,-0.144311547899744,5.245406370733015,-0.03916364002250281,0.08118777539268154,0.05189160049317586,0.0
-1.1034624536789146,-0.1407638557218742,5.245406370733015,-0.005575022229344742,0.030261549171465865,0.047479722621952665,0.0
-1.1146500220658988,-0.1407638557218742,5.179912621357731,-0.03962375838196812,0.06321381355516784,0.05100922438082482,0.0
-1.1183792115282272,-0.1407638557218742,5.14248724736364,-0.036863049628164356,0.04024708382166047,0.08806899419424846,0.0
-1.1034624536789146,-0.1265730559598794,5.22669368373597,-0.004654785510414124,0.025268781656069755,0.10659888179149225,0.0
-1.0997332642165865,-0.1265730559598794,5.217337340237448,-0.006495257545287273,0.09616607489408911,0.05100922438082482,0.0
-1.1109208326035709,-0.13366845584087678,5.207981651853299,-0.012016674351400743,0.11713569906770888,-0.00016855515861941882,0.0
-1.1034624536789146,-0.13366845584087678,5.151843590862162,-0.02489997999850084,0.20201273769510045,0.00689044869544139,0.0
-1.1071916431412427,-0.1372161480187466,5.133130903865117,-0.0515868259071495,0.2509418648265876,0.04571497039725059,0.0
-1.1258375904528835,-0.1407638557218742,5.1144182168680725,-0.08839627221656472,0.20400984591917115,-0.05046395858571263,0.0
-1.1146500220658988,-0.10883454849475702,5.207981651853299,-0.10680099537127234,0.1440966418239794,0.06512723141631344,0.0
-1.1146500220658988,-0.10883454849475702,5.207981651853299,-0.07689331884188438,0.07819211610135617,0.07836286772051501,0.0
-1.1034624536789146,-0.144311547899744,5.282831744727108,-0.04744576347793791,0.1301168964346072,0.026302710723453738,0.0
-1.1146500220658988,-0.1514069477807414,5.273475401228584,0.009608873812093794,0.2379606613701278,0.002478571160534696,0.0
-1.1221084009905553,-0.144311547899744,5.245406370733015,0.0073082848207434254,0.2978738715548811,-0.04781683562972351,0.0
-1.0698997485179613,-0.24364715787765096,5.292188088225629,0.043657607158741,0.11813425317974424,0.1401291525365757,0.0
-1.1221084009905553,-0.1407638557218742,5.245406370733015,-0.018918445446729344,0.19302576286590506,0.0483620987343037,0.0
-1.1295666493596357,-0.154954655483869,5.133130903865117,-0.0051149038698794355,0.060218152741452105,-0.06634671784590332,0.0
-1.1743169229075734,-0.1620500553648664,5.048923812378412,0.04457784387767161,0.18004457158856824,-0.1616432734070475,0.0
-1.1183792115282272,-0.13366845584087678,5.14248724736364,0.019731472108378216,0.16306915168396696,-0.03722832766257504,0.0
-1.1519417861336048,-0.1514069477807414,5.123774560366595,-0.02213927177081761,0.26592016432799515,-0.014286564884640036,0.0
-1.1221084009905553,-0.13366845584087678,5.207981651853299,-0.02213927177081761,0.25393751498357076,-0.024875070161256504,0.0
-1.1295666493596357,-0.10883454849475702,5.273475401228584,-0.00925596629909103,0.21199827881545413,0.002478571160534696,0.0
-1.1519417861336048,-0.1478592556028716,5.245406370733015,-0.02720057039283929,0.27590570544834886,-0.015168938306459075,0.0
-1.1183792115282272,-0.13366845584087678,5.245406370733015,-0.032721987198952765,0.22697657831686166,-0.04252257895561727,0.0
-1.1146500220658988,-0.1265730559598794,5.245406370733015,-0.05572788833636111,0.1560792850788423,0.007772824135159427,0.0
-1.1221084009905553,-0.13012074813774918,5.273475401228584,-0.01523750111392279,0.11014582637302277,0.04395022086308052,0.0
-1.1295666493596357,-0.13012074813774918,5.2360500272344925,0.012829699522374775,0.13411110679318722,0.03424408900828309,0.0
-1.1295666493596357,-0.13012074813774918,5.2360500272344925,-0.02397974398106427,0.11713569906770888,0.046597346509601616,0.0
-1.133295838821964,-0.13366845584087678,5.22669368373597,-0.04100411205737595,0.036252870037702146,0.02453795849875166,0.0
-1.1407542177466203,-0.1372161480187466,5.22669368373597,-0.03778328494410689,0.024270229066424752,0.007772824135159427,0.0
-1.1407542177466203,-0.1407638557218742,5.2360500272344925,-0.05112671035366037,0.1131414826195674,-0.0178160666435122,0.0
-1.1221084009905553,-0.144311547899744,5.161199934360685,-0.02351962597234598,0.09716462900612446,-0.040757832111979184,0.0
-1.1407542177466203,-0.1514069477807414,5.254762714231539,-0.04790588183740322,0.14809085218255938,-0.04164020284326624,0.0
-1.1444834072089483,-0.13012074813774918,5.254762714231539,-0.03732316798762966,0.0941689697147991,-0.06017009044051004,0.0
-1.1482125966712764,-0.10883454849475702,5.245406370733015,0.013289817881840093,0.0052977146392660735,-0.10693599748979508,0.0
-1.1519417861336048,-0.10883454849475702,5.207981651853299,0.019731472108378216,0.04823551138957713,-0.06987622229530746,0.0
-1.1743169229075734,-0.13366845584087678,5.123774560366595,0.0004065122347399889,0.15807639330291307,-0.11752450007587956,0.0
-1.1855044912945578,-0.13366845584087678,5.030211125381367,-0.014777383105204503,0.2858912222104566,-0.09546510802923158,0.0
-1.1705877334452452,-0.13366845584087678,5.105061873369548,-0.06907131234292649,0.3208406039525716,-0.09105323822960439,0.0
-1.1668585439829173,-0.1265730559598794,5.179912621357731,-0.029961278445149005,0.35578996133644064,-0.1687022823058558,0.0
-1.133295838821964,-0.08400065667389497,5.22669368373597,-0.0699915490618571,0.278901355605332,0.007772824135159427,0.0
-1.133295838821964,-0.08400065667389497,5.22669368373597,-0.04284458409224909,0.24295343193030464,-0.07252335063236061,0.0
-1.1780461123699013,-0.144311547899744,5.207981651853299,-0.02305950796362769,0.27590570544834886,-0.06105246655286107,0.0
-1.1743169229075734,-0.1620500553648664,5.2360500272344925,-0.018918445446729344,0.28189700576231513,-0.06281721877756316,0.0
-1.1929627396636384,-0.1620500553648664,5.264119057730062,0.022492179459193885,0.11214293459709353,0.05012684826847376,0.0
-1.133295838821964,-0.0946437487327622,5.320257118721198,-0.008795847939625723,0.05822104603977174,0.0730686110464088,0.0
-1.1407542177466203,-0.09819145643588979,5.338969805718245,0.013289817881840093,-0.0526183842766357,0.06248010846032432,0.0
-1.1146500220658988,-0.0946437487327622,5.338969805718245,0.0519397320171642,-0.1484795120468548,0.08365711901355724,0.0
-1.1482125966712764,-0.11592994837575442,5.22669368373597,0.04319749441122803,0.1231270176503596,0.0871866234629614,0.0
-1.155670975595933,-0.1265730559598794,5.161199934360685,-0.003734550194471595,0.39373499323553873,0.0483620987343037,0.0
-1.1482125966712764,-0.10528685631688718,5.14248724736364,-0.0014339598001331525,0.3338217952299084,0.11983451271462985,0.0
-1.1221084009905553,-0.059166749327775214,5.245406370733015,-0.0051149038698794355,0.2649215980368369,0.21336631605107195,0.0
-1.1258375904528835,-0.0662621492087726,5.348326149216767,-0.046525529564983466,0.5465136871230895,0.24513183457145332,0.0
-1.1407542177466203,-0.07335754908976999,5.395107866709379,0.019731472108378216,0.09616607489408911,0.23542570809771993,0.0
-1.1444834072089483,-0.0698098569119002,5.32961346221972,0.023872534537589817,0.18004457158856824,0.2195429595996572,0.0
-1.1444834072089483,-0.07690525679289759,5.245406370733015,0.047798672393928765,0.1680619222441438,0.21336631605107195,0.0
-1.1295666493596357,-0.0698098569119002,5.179912621357731,0.06068197523505268,0.19102865464183433,0.23719046032242197,0.0
-1.1034624536789146,-0.05561904162464766,5.161199934360685,0.16512877549024937,0.11913280729177964,0.21601345515025303,0.0
-1.040066363374912,-0.0024035502797958752,5.357682492715288,0.43245737959297503,-0.3032552898002303,0.34836978590588485,0.0
-0.9878578414578938,0.06500277187756591,5.629015799058076,0.5741737220692428,-0.5618806221305463,0.36778203885335176,0.0
-0.9878578414578938,0.06500277187756591,5.629015799058076,0.4793894185867221,-0.5279298066795898,-0.0178160666435122,0.0
-1.1109208326035709,-0.016594350041790763,5.469958614697562,0.3188082065365199,-0.6627345265505038,-0.25870459195502177,0.0
-1.0587123106865526,-0.005951257982923639,5.320257118721198,0.23736730741873147,-0.7536029142083537,-0.1828202893413444,0.0
-1.032607984450256,0.02952575694732117,5.2360500272344925,0.07908670400171262,-0.9692904075420261,0.1851303019800947,0.0
-1.0810873169049457,-0.0946437487327622,4.871153941020854,-0.048826118556333835,-0.6637331171999081,0.33954602478237456,0.0
-1.155670975595933,-0.119477656078882,4.646602024613494,-0.0005137230812025343,-0.21837825117283877,0.2751326008671326,0.0
-1.0549831212242247,0.10757517116355032,4.674670727551875,-0.24621675727411824,0.03425576333602178,0.8742656260032637,0.0
-1.0549831212242247,0.10757517116355032,4.674670727551875,-0.3340993022005162,-0.08656920581715381,1.041916936680169,0.0
-1.028878794987928,-0.11238225619788457,4.581107620123835,0.10485330968396049,-0.2363522251894754,1.0498583539777124,0.0
-1.0251496055255995,-0.26848105940179906,4.749521475540058,0.11267531618291837,0.4147046174091586,1.1680966023629595,0.0
-1.0512539317618963,-0.41038906672503317,4.880510284519377,-0.20296566515609343,1.2794519425503774,2.166063393514944,0.0
-1.032607984450256,-0.3039580617177719,5.030211125381367,-0.3787307550088893,1.9614638286517554,1.9516461596455619,0.0
-1.032607984450256,-0.3039580617177719,5.030211125381367,-0.5186066464951054,2.0034030769989952,1.9384104641496562,0.0
-1.2116086869752793,-0.6622757857883274,5.451245927700517,0.19595668873856795,0.677324190545862,1.565165573105599,0.0
-1.386880265315762,-0.5026292651779994,5.629015799058076,1.1488611658167,-2.5879456366423987,0.7330854910756099,0.0
-1.0139620371386153,-0.1797885550673599,5.4980276451931305,1.7175671662942973,-2.5699715895510242,0.2883682317902702,0.0
-0.767836054847261,-0.08754834885176481,5.105061873369548,1.1484010755169962,1.0737498685458293,0.37395866087768087,0.0
-1.6740272011371495,-0.08754834885176481,5.395107866709379,0.5258613223851472,2.6354874767228176,1.6110490878993409,0.0
-1.2190670658999354,-0.3110534625690979,4.225567222294345,1.1999342419858734,-3.046281693946805,5.086726366689587,0.0
-1.2190670658999354,-0.3110534625690979,4.225567222294345,0.40393003008222117,-4.2375560066785,5.9567488475553585,0.0
-0.9132741827669071,-0.2223609543533443,3.542555784688118,-0.4900793418799702,-4.2994660936839875,6.450878953889798,0.0
-0.7342734802418838,-0.23655175799665354,3.6548315791132047,-0.9593997318174432,-4.460233244826067,6.944126737922524,0.0
-0.4769599295635453,-0.23655175799665354,4.094578740872212,-1.2511145809120683,-4.516152372533032,6.621177489762908,0.0
-0.670877389937881,-0.0946437487327622,4.805659536531194,-1.0505030884242412,-5.798294829340115,6.837359540429758,0.0
-0.7902111916212301,-0.1265730559598794,5.320257118721198,-0.39483490320212744,-7.944186142430243,8.159158246431165,0.0
-0.41356383925954265,-0.36426896749855003,4.843084910525286,0.7135894783601365,-7.82136446163569,7.995918288971745,0.0
-0.41356383925954265,-0.36426896749855003,4.843084910525286,1.431833760469532,-8.56129236444389,8.187393937638305,0.0
-0.1152293350511706,-0.8857809053276323,3.0560269054364957,1.7405729383568025,-9.522899012183235,8.048861070955368,0.0
-0.07047906150323316,-0.8822331976245046,2.7004865076070046,1.3577547326553792,-7.887268911238794,7.830914375685094,0.0
-0.07047906150323316,-0.8822331976245046,2.7004865076070046,0.7784661165371737,-5.924112769247802,7.266193663780429,0.0
-0.007083101754806247,-1.0099504265329733,2.9718198139497902,0.7462579099419349,-5.501724416394211,7.246781884366593,0.0
-0.036916617453431,-1.105738286113294,3.2150844173541953,1.2445656947942465,-5.1702047922139105,5.3699690449436295,0.0
-0.06302068257857683,-1.6769179842962139,2.4104405142671728,1.9536076770577642,0.1271212340985011,3.509039040115752,0.0
-0.14133366128746763,-1.652084154576383,3.7671073735382907,2.0341283282327165,-3.9190171840436028,3.339622826544353,0.0
0.2203969332249071,-1.733681183344193,3.318003868280758,0.5369041630123146,-0.705672316830656,1.3525131560336867,0.0
0.4926272417525582,-1.2511939914363697,3.542555784688118,-0.8485113250373032,0.9209712477330164,0.2733678486424306,0.0
0.36210587168222486,-1.130572177934156,3.944877572453036,-1.1807165448692567,1.1027079256157322,-0.3478245039675805,0.0
0.2539596383858605,-0.8680423668119942,5.067636499375459,-0.5655386854888524,1.1296688988198098,-1.6652111249268013,0.0
-0.08166662989021753,-0.6906573853123171,5.4044642102079035,1.2123574881990076,-2.6907966736446727,2.174887133114199,0.0
-1.5174015701083077,-0.28976726074286635,6.181038755242171,2.797004018254867,-3.7961951135171135,2.9637307964011166,0.0
-0.6186688680208631,-0.39265056702253964,4.319130657279572,2.990253616991249,0.33282325329699597,3.2619736425604393,0.0
-0.27558409026455327,-0.19043165488885597,3.5051304106940266,3.1259883366151833,3.353447359573961,3.189619081162982,0.0
-0.5254392620182357,-0.4706999734761399,2.6162797436774867,3.108043737431894,6.111452038863696,3.635218705798544,0.0
-0.5627311566415167,-0.8680423668119942,2.8314749890291364,3.3758324542821314,5.18279722619397,4.294353069807729,0.0
-0.5478143987922041,-0.7296820768951741,3.03731421843945,3.0956205810099964,4.499786944309152,4.958782056403374,0.0
-0.5590019671791884,-0.612607971096088,3.6080498616205903,1.7529960947786993,2.29797650351206,5.832333826475992,0.0
-0.6186688680208631,-0.6374418939674654,4.094578740872212,1.1516218871973964,0.0991617372301952,6.613235900271317,0.0
-0.5590019671791884,-0.7048481850743121,4.337843344276618,1.4566801631045632,-0.5718661876091462,7.423256676351681,0.0
-0.45458479278957664,-0.8290177062796531,4.225567222294345,2.037809230212821,0.7911592862431563,7.365902282859503,0.0
-0.4881474979505297,-0.7119435694300515,4.665314711610541,2.402682926522191,0.572476069677763,7.154132532477399,0.0
-0.514251693631251,-0.8786854899213771,5.385751523210857,1.8284555730744376,4.895214031659716,7.310312533970748,0.0
-0.5515435882545323,-1.1554061318560491,5.6009467685625065,2.1473173660938487,8.274318905828782,8.096509230352533,0.0
-0.7156275329302434,-1.3115048981874764,5.095705529871026,3.1407123037005484,9.705246205448965,9.608900573942595,0.0
-1.0661706896112089,-0.988664180314208,4.955360377393184,3.6767498277007284,6.860366770351618,9.508310321338001,0.0
-1.155670975595933,-0.8219222908733981,4.422050108206135,1.1221743121916168,7.8908741268072005,5.494383721634902,0.0
-1.8604863152257234,-0.8041837834082757,4.244279909291389,-0.5890047274335355,4.3400182863834935,5.423793804840867,0.0
-2.099153918592421,-0.9922118880173355,4.253636252789912,-0.7606287352152866,0.278901355605332,5.8146860028893865,0.0
-1.7859026565347362,-1.315052605890604,4.103935084370736,-0.6768872723599335,-2.514052656710027,5.20143515367394,0.0
-1.6889439589864623,-1.2760278832572316,4.450119138701704,-0.1790395329117068,-4.064806157475503,5.240259745665898,0.0
-1.5621517783784573,-1.3576250362271036,4.515613215634176,0.540585109888037,-3.3977725465172885,5.227023877975944,0.0
-1.431630408308124,-1.4214836506813382,4.749521475540058,1.713886084731719,-0.5429081305392435,5.181140363182205,0.0
-1.6069019213708193,-1.4108405275719555,5.22669368373597,2.9212359416387854,-1.4406076561237688,5.198788186768809,0.0
-1.6069019213708193,-1.5421054641835517,5.46060227119904,2.547619990887623,-4.873634379268004,4.090524220141024,0.0
-1.2973799140532505,-1.6201547852482345,5.385751523210857,1.6089792110126764,-5.463779335778622,2.991966831996349,0.0
-1.2414421373961164,-1.4427697726980415,5.563521394568417,0.9855192323858011,-3.9629536136896504,2.687547213142904,0.0
-1.3794218863911059,-1.080904394292432,5.189268964856254,-0.15925444906665095,-5.021420339132748,0.9969157441881381,0.0
-1.58079766041231,-0.9744734116027286,4.553038589628266,-2.140062645308189,-6.667036151705261,-0.28605821915152,0.0
-1.1295666493596357,-1.2689325299520073,5.0395674688798895,-2.9788579039257814,-7.844330585077232,-1.3872628970651681,0.0
-1.2116086869752793,-1.3434342054145934,5.338969805718245,-1.0090925370875057,-8.191827269916065,-1.1834341334954863,0.0
-1.2414421373961164,-1.205073915497773,4.384624734212044,-0.8963635895260764,-11.09162694977202,0.047479722621952665,0.0
0.05631311910477218,-1.648536446873255,4.197498519355962,-2.2320862723056325,-12.066214788788704,-1.6643288026250902,0.0
-0.1823546148175013,-1.7762536757817238,5.076992842873981,-2.302024307839977,-10.129021029352385,-0.3478245039675805,0.0
-0.31660517435016267,-1.6449887391701277,4.75887781903858,-1.9698189982167862,-9.336169868218418,0.22307244252480535,0.0
0.015292035019162766,-1.439222064994914,2.62563608717601,-2.2951224145969986,-12.700296174945366,-0.5560651373368898,0.0
0.05631311910477218,-1.3824588659469348,1.0911988652115534,-2.839442102739269,-18.257246093789693,-0.7043042381148402,0.0
-0.04437499637808734,-1.0631659178778248,3.2057280738556724,-2.018591443304967,-15.908648186344276,-1.0060766748205912,0.0
0.026479603406147124,-1.47469914202619,4.057153366878122,-2.1285596694856994,-11.890469849668381,0.10571650567914119,0.0
0.007833656094506428,-1.375363574742742,2.5882107131819185,-1.8713537478585431,-10.325735884945276,3.675807942393922,0.0
0.8282535100286368,-1.47469914202619,0.5298194836396396,-2.483310660871691,-15.049892575607204,3.2655032761553797,0.0
0.2949807224714696,-1.2192646842092523,1.7367852563808754,-2.664137103186177,-10.629296529869999,2.4784242574718838,0.0
-0.04064580691575932,-1.1163814092226767,2.232670315352428,-1.7195147902501344,-8.651162210168826,1.3622192179346524,0.0
-0.15997947804353257,-1.038332026056963,1.4280265760439983,-0.4514294221326937,-5.590595768902726,0.28748586644004714,0.0
-0.3203343638124907,-0.8822331976245046,-0.7426405246945822,0.14028239530302744,-6.170755403517202,-0.16252564951939852,0.0
0.04885474018011584,-0.9389963966724838,-2.4735604739103167,-0.16339550868988642,-10.163970630318717,-0.40959081030789724,0.0
0.44041885039111683,-1.0596182101746976,-1.3882268390926886,-1.1774957331888565,-7.404967068080621,-0.25870459195502177,0.0
0.2837931540844855,-1.2263600996155075,0.3801183152204623,-0.2986702165814492,-2.055716599405621,-0.8516609735425678,0.0
0.17564692078812089,-1.2831232986634864,-1.4256521721421316,1.4944099022524326,-3.3678158013649977,-1.3881452193668793,0.0
0.24650125946120413,-1.4250313583844658,-1.874755718344311,-0.029041042427712434,-4.415298321963599,-0.6945980901168509,0.0
-0.24202151565917565,-1.6449887391701277,-0.8736290572975244,-0.2627810182148693,-2.6009268279197357,0.399547557373733,0.0
-0.23829232619684793,-1.6591795699826377,-1.827974082740994,-1.6081661135878158,3.858715326173676,3.4375664566319113,0.0
0.03393798233080346,-1.8755892430651717,-2.4080660694206575,-4.102466297977494,4.506776786556034,4.831719724030778,0.0
0.03393798233080346,-1.8755892430651717,-2.4080660694206575,-4.891108481442846,5.2826527835469825,4.559065946561551,0.0
0.24277206999887582,-1.8791369507682996,-0.6865025814193098,-4.068877551109433,5.3775150953540205,3.5540398882196875,0.0
-0.08539581935254555,-1.8578507045495338,-1.0981808252805332,-1.4070946205915225,3.5751261045051077,3.8090465308784975,0.0
-0.08539581935254555,-1.8578507045495338,-1.0981808252805332,-0.16155504647592983,0.051231171822695265,4.531712233268031,0.0
-0.4769599295635453,-1.4001974044625725,-3.2314226595047253,-0.31477434232687795,-2.7696823145251144,4.9534877782050115,0.0
0.16073016293880882,-1.4959852640428934,-2.1835143986811882,-0.12704618635188883,-6.291580487610851,1.5475180939070903,0.0
0.08614637369224573,-1.6095117863409139,-1.4443648181945286,1.7842842105657681,-6.114836275810237,-0.1439957619221547,0.0
-0.3874596435788214,-1.9217093190037682,-1.5753532996166602,2.5301354820040345,-4.058814808445046,0.4745494731129313,0.0
-0.372542885729509,-1.8968754892839372,-2.015100543264966,1.458520614094615,-1.8739799215229054,1.1389782444660153,0.0
-0.3986470814102303,-1.747872014156703,-2.2677212445000023,0.050099264191255294,-0.48399347446652546,0.5636694066497462,0.0
-0.3986470814102303,-1.747872014156703,-2.2677212445000023,0.1798525629931392,-1.2289143305217463,-0.08752373378020022,0.0
-0.2569382735084883,-1.843659997939086,-3.081721491085548,0.034915363940852505,-2.889508710536375,-0.9354865858325081,0.0
-0.27558409026455327,-2.095546623850834,-2.847813394958259,-0.5153858348147051,-2.986368398508191,-0.8101893285484529,0.0
-0.27558409026455327,-2.095546623850834,-2.847813394958259,0.3353724450294615,-1.5204919850865983,-0.6010662867804087,0.0
-0.20845881049822287,-1.7798013834848516,-2.978801876380391,1.0347518575649226,-0.2473363082427415,-1.2910839115810329,0.0
-0.025729049066446644,-1.9962110565673854,-2.21158334728746,1.2634305643681811,0.4885975729832839,-2.798181321360831,0.0
-0.025729049066446644,-1.9962110565673854,-2.21158334728746,1.2947185903640126,2.415805718224512,-3.8173252253062637,0.0
0.09733394207923038,-2.123928285475854,-2.389353546202205,1.283675794632464,1.5420714426123432,-3.269370014686492,0.0
0.2390428805365481,-2.244550098978068,-2.061882178868283,0.9643538215221109,0.1271212340985011,-3.3373126201872987,0.0
0.2390428805365481,-2.244550098978068,-2.061882178868283,0.2953421870396462,-0.6477562514073423,-1.6422693675299302,0.0
-0.19727137266681366,-1.6201547852482345,-2.0525258353697597,0.26727497272421474,-1.4446019212884023,-2.02080853677235,0.0
-0.2793132797268813,-1.258289406842625,-2.398709889700728,0.2967225477299944,-0.624789494651406,-3.223486499892753,0.0
-0.2793132797268813,-1.258289406842625,-2.398709889700728,1.5703292912653992,0.7542127962769706,-6.123854510381608,0.0
-0.4098346497972146,-0.8254699985765256,-2.5858362683354033,2.180905933379437,-0.07758221880883548,-8.902455499860514,0.0
-0.1674378569681886,-0.8715900745151219,-2.3425718287095916,2.589030632015594,1.6748790299009408,-10.511908495624521,0.0
0.6678988853708295,-1.3682681593364867,0.09942858348985635,0.9068390322009,3.94459119903293,-12.006652015627981,0.0
0.6604405064461741,-1.72658589214,-1.6782729143218176,0.8732504649153129,1.6638950199224125,-9.295112342512455,0.0
0.13089664724018316,-2.4112919884188777,-2.0805947839760317,-0.2494375914023278,-0.4340657932230029,-1.382851027265541,0.0
0.9289416255114951,-1.9146139035975134,-1.5285717459026402,0.2833791209174528,0.4646322742944351,0.5521985279513107,0.0
0.6380653696722048,-1.4605083112136794,-1.6689165708232943,0.0404367842544362,-0.12551279182828726,-0.3204708767710823,0.0
0.22785531214956375,-1.1908830846852627,-1.6127785917214545,0.06482304047024044,0.1311154444570811,-1.2240233700908656,0.0
0.26514720677284453,-1.1412153010435389,-1.6595602273247716,0.0795468167492256,0.5994369941653489,-1.6766820036252368,0.0
0.14581340508949583,-1.020593487541325,-1.6876291759310433,-0.08563556205977288,0.6144153180250027,-2.3172867383282507,0.0
0.30616829085845426,-1.080904394292432,-1.565997038007434,-0.11048193663504244,0.3537928774706158,-2.3084629987289964,0.0
0.38075181899386673,-1.0347843183538354,-1.594065986613706,-0.1403896131644304,0.6803198650610912,-2.0384560159708585,0.0
0.26887639623517257,-0.946091812078739,-1.453721120748403,-0.3589456823877382,0.6933010563384279,-2.4081714456140233,0.0
0.42177290307947496,-0.8964239663359841,-1.519215402404117,-0.1900823623149696,0.4117089672521754,-2.48317331830471,0.0
0.2987099119337982,-0.8219222908733981,-1.3508015469878945,-0.22413109846759285,0.8730406503553186,-2.526409693999271,0.0
0.3882101979185222,-0.8290177062796531,-1.6127785917214545,-0.14591103347801407,0.31484927928035933,-2.4664081614079123,0.0
0.3360015454459281,-0.8077314911114031,-1.481790110299323,-0.22183051228221876,-0.26830593241636125,-2.387876655122286,0.0
0.3882101979185222,-0.8006360757051478,-1.2385256706735117,-0.1173837064150697,-0.8055276793177011,-2.663177916078786,0.0
0.21293855430025135,-0.7296820768951741,-1.2665946602244316,-0.3465225035180318,-0.49497758187803736,-3.264075736488131,0.0
0.14208421562716753,-0.6551803703820723,-1.6782729143218176,-0.4767359150674287,1.0477874859911556,-3.3770195344809695,0.0
0.3434599243705844,-0.48134306553500716,-2.2490085575029575,-0.2452965317790923,2.279003963204265,-2.0631625901651995,0.0
0.6455237485968602,-0.5522970798702391,-1.8841119799535373,-0.1523526792866237,1.5710294996822463,-1.3413793822714257,0.0
0.5112731890641995,-0.47779537335713734,-1.5098590589055945,-0.11140217335397305,1.501130784914508,-1.156080506298988,0.0
0.3248139770589437,-0.3465304639147421,-1.6782729143218176,-0.33547966289086456,2.467730483333859,-1.0907846955092673,0.0
0.6045026645112515,-0.5168200649399941,-1.144962440411526,-0.3883932349457085,2.834199708480487,-0.7219517603618609,0.0
0.5075439996018715,-0.4919861731191322,-0.8268474376882105,-0.1808799951256634,1.2425054525841916,-0.39900229695968487,0.0
0.6082318539735795,-0.47779537335713734,-0.9484796466251939,-0.18502106597280343,1.0208266102200614,0.0033609466002527343,0.0
0.39193938738085016,-0.5558447720481088,-0.7145715504979054,-0.0971385154344532,-0.492980449295721,-0.056640591372169875,0.0
0.1980217964509381,-0.6800142932534498,-2.15544536818562,0.06252244867291391,-0.533921155710048,-0.8860736096378742,0.0
0.20920936483792246,-0.42457986648702795,-1.144962440411526,-0.029041042427712434,1.3263839492786709,1.8987035498559874,0.0
0.17564692078812089,-0.46715226577301233,-1.126249794359129,0.17617161611741666,0.959914821565027,2.669899733944395,0.0
0.36210587168222486,-0.612607971096088,-1.0046175950185474,0.4126722845240144,1.8985550535638798,2.414010941177922,0.0
-0.014541480679462286,-0.4848907732381348,-0.9952612719923488,0.47800905789637405,3.1717106816912453,2.931965471599037,0.0
0.6194194223605629,-0.7545159997665515,-0.7987784666903344,0.2617535748584404,2.6414788257532757,2.725489482833151,0.0
0.8282535100286368,-0.7970883990525359,-0.6865025814193098,0.028473712520290545,1.4022740130768672,1.613696226998522,0.0
0.7946910659788349,-0.7119435694300515,-0.780065819358417,0.16926983511348473,1.5600453922707338,1.334865590738154,0.0
0.7499407924308957,-0.7119435694300515,-0.6865025814193098,0.1720305564941813,1.3443578989370615,0.8786774958028912,0.0
0.4329604714664614,-0.7580636764191635,-0.11576682564038655,0.02709336024787079,-0.03564297655115739,0.4533724464165065,0.0
0.4329604714664614,-0.7687067995285463,-0.1531921177451806,0.03583560065978312,-0.8654408773233312,-0.06458197100226523,0.0
0.4777104839032461,-0.7013004773711842,-0.5742266948687647,0.16006747914808322,-0.6128068940234731,-0.25693983973031964,5.0
0.5821275277372822,-0.7935406913494083,-0.7894221423846155,0.19089538117249716,0.42868437497765366,-0.6990099599164779,5.0
0.42923128200413097,-0.7296820768951741,-0.6397209560521547,0.2120608144839967,1.2834461102820272,-1.4225579415592098,5.0
0.09733394207923038,-0.6055125867403484,-0.5274450797377719,-0.046985647924448766,0.5994369941653489,-2.888183706344894,5.0
-0.249479894583832,-0.6303464785612103,0.1274976139854248,-0.5448333649248661,-1.6133574078937811,-5.932378861715048,5.0
0.6194194223605629,-0.4174844666060306,-1.144962440411526,0.1301598026186954,0.313850737347447,-3.5137877565604843,5.0
0.44414777874229394,-0.36781666743904873,-0.7332842016683836,0.293501713601785,1.960465335435335,-1.8108030866055707,5.0
0.2390428805365481,-0.2117178545318482,-0.6210083099997576,0.24795003529838594,3.5651407826089656,-0.35311878216594283,5.0
0.40312695576783303,-0.45296146601101756,0.19299185469649058,0.2093001155511095,2.6175136244974104,-0.23135094323426753,5.0
0.4926272417525582,-0.3820074672010435,-0.1999737533484977,0.23092566161012187,1.8026938588084844,-0.00546280914219365,5.0
0.4926272417525582,-0.3820074672010435,-0.1999737533484977,0.23552683398087038,2.393837503401488,0.12159926493933193,5.0
0.7685867397425376,-0.4174844666060306,0.02457799928026807,0.05285996873609482,0.03325720998518159,-0.12105400452528368,5.0
0.7312948451192568,-0.4848907732381348,0.043290686277314014,0.016510643592121062,-0.29826253141917636,-0.28958772360092394,5.0
0.7312948451192568,-0.4848907732381348,0.043290686277314014,0.016510643592121062,-0.43306725129009055,-0.6195961743776526,5.0
0.6045026645112515,-0.41393676666553186,-0.19061740984997502,0.09150988287141891,-0.12850845416439333,-0.4201793236561096,5.0
0.5560234626121363,-0.41038906672503317,-0.05027258492932021,0.0404367842544362,-0.9573078069140931,-0.2498808308315113,5.0
0.5038148101395404,-0.5026292651779994,0.1274976139854248,0.04273737605176273,-1.2209258976254636,-0.11134786728942228,5.0
0.4516061576669494,-0.4174844666060306,-0.05027258492932021,0.04457784387767161,-0.9063815350211667,-0.014286564884640036,5.0
0.4516061576669494,-0.3075057616582706,-0.3590312652661976,-0.005575022229344742,-0.8634437934575064,0.12248164105168294,5.0
0.40685614523016106,-0.3252442623310927,-0.1719047637975778,-0.08977662729496064,-1.3217798507619125,0.23454334274749683,5.0
0.4105853346924915,-0.37845976726054487,-0.06898519003706953,-0.13854913972656915,-1.9598554046502257,0.36866440420357477,5.0
0.44787696820462136,-0.44231837395215035,-0.3122496296628804,-0.12014441657186153,-2.0886688242071734,0.3774881653270851,5.0
0.4143145241548195,-0.45296146601101756,-0.45259449552818337,-0.07321237757811426,-1.6273370923875385,0.37925293907604324,5.0
0.42177290307947496,-0.460056865892015,-0.5368014027639705,0.014670172960236013,-1.156019941238779,0.40925370537172256,5.0
0.42923128200413097,-0.42812757419015557,-0.6022956639473604,0.19825727492394207,-0.07159090631574622,0.2636617221686971,5.0
0.48143967336557475,-0.506176972881127,-0.4900197876329776,0.1623680653334575,0.016281800737312915,0.22219007717458233,5.0
0.4329604714664614,-0.4919861731191322,-0.5742266948687647,0.18261326192602628,0.5335324958457525,0.1551295356844154,5.0
0.4329604714664614,-0.5026292651779994,-0.5742266948687647,0.16972994786099777,0.8181202107307423,0.16571803827049983,5.0
0.4590645365916054,-0.47779537335713734,-0.7519968477207807,0.10991460602612653,1.1875850129596155,0.21071919847614676,5.0
0.4627937260539328,-0.460056865892015,-0.7052152274717068,0.10853425655968293,1.2445025364500164,0.21071919847614676,5.0
0.44041885039111683,-0.4565091737141452,-0.29353698361048336,0.0772462305638514,0.6793212744116869,0.2548379610451867,5.0
0.4329604714664614,-0.4494137738331478,-0.2748243375580863,0.09150988287141891,0.29288111317382715,0.19483642845382812,5.0
0.42923128200413097,-0.4494137738331478,-0.4713071415805804,0.12785921643332115,0.5974399102995245,0.22042532494988026,5.0
0.39193938738085016,-0.45296146601101756,-0.4713071415805804,0.1209574466532939,0.7522157124111457,0.13659964808717154,5.0
0.42923128200413097,-0.46360457359514257,-0.5929393409211619,0.16604901220918003,1.2614779928919868,-0.06281721877756316,5.0
0.48889805229023015,-0.460056865892015,-0.5742266948687647,0.14350322943123697,2.2300748726101465,-0.05046395858571263,5.0
0.48516886282790217,-0.44231837395215035,-0.39645655737099184,0.1798525629931392,2.456746473355331,-0.01163943654758692,5.0
0.4143145241548195,-0.4068413667845344,-0.23739904545329193,0.0993318893703768,2.135212171071172,-0.03369882590370289,5.0
0.3546474927575694,-0.44231837395215035,-0.09705422053263732,-0.01753809133288773,1.8935621977498422,-0.08311185321844503,5.0
0.3546474927575694,-0.5097246650589967,0.07135963488358518,-0.004194667150948819,1.7547632614307866,-0.13076013099901715,5.0
0.40685614523016106,-0.46360457359514257,0.043290686277314014,-0.029041042427712434,1.853620130701411,-0.15105477082096302,5.0
0.4329604714664614,-0.46715226577301233,0.06200329138506249,-0.02397974398106427,1.7288008788761131,-0.1845850415660465,5.0
0.37329344006920767,-0.42103216654652925,0.3801183152204623,0.0017868673131359216,0.7482214959630041,-0.14664289025920782,5.0
0.3546474927575694,-0.41393676666553186,0.4643252429285733,0.0031672209885437487,0.32783047055769615,-0.18899691136567368,5.0
0.40312695576783303,-0.4068413667845344,0.17427916769944538,0.039056429176040276,0.39173788501146795,-0.15546665138271823,5.0
0.42923128200413097,-0.45296146601101756,0.06200329138506249,0.011909462803444163,0.6893068398902863,-0.1713494106429089,5.0
0.4143145241548195,-0.44231837395215035,0.3052677310108733,0.0188112353894476,0.28289557205347354,-0.16958465841820683,5.0
0.3397307349082561,-0.41038906672503317,0.4456125559315281,0.04825879075339408,-0.32023072188395457,-0.11752450007587956,5.0
0.36956425060688025,-0.3820074672010435,0.23977349029980768,0.039056429176040276,-0.039637192999298854,-0.12987775488666609,5.0
0.36956425060688025,-0.37491206732004617,0.23977349029980768,-0.028580924769741167,-0.1584650531672085,0.009537575182753756,5.0
0.36210587168222486,-0.36781666743904873,0.19299185469649058,-0.03364222251489529,0.10016029134223056,0.1807184321804675,5.0
0.3956685768431776,-0.3997459669035371,0.2584860954075562,-0.05204694426661482,-0.5159472060516572,0.1648356621581488,5.0
0.4143145241548195,-0.44586606613002017,0.3146240745093967,-0.03456245923382591,-1.2398984379332583,0.008655199574877467,5.0
0.38448100845619476,-0.5026292651779994,0.13685387559465076,-0.017077973148795934,-0.9193628237314873,0.04571497039725059,5.0
0.37329344006920767,-0.46360457359514257,-0.08769787703411473,0.002246985672601223,-0.013674804355063706,0.0571858517862181,5.0
0.3882101979185222,-0.4565091737141452,-0.26546803500421184,0.0404367842544362,1.245501127099421,0.1966011806785302,5.0
0.4739812944409187,-0.3820074672010435,0.06200329138506249,0.026173123528940186,1.6069773989990277,0.055421102252048,5.0
0.5112731890641995,-0.3571735637362382,0.4736815864270965,0.08966940943355768,0.9469336302876898,-0.11928925230058164,5.0
0.48516886282790217,-0.33233966415274735,0.4456125559315281,0.10761401984075232,0.6303921838175687,-0.24811607860680926,5.0
0.4627937260539328,-0.4032936668440357,0.3333366796171452,0.1232580328386681,0.7602040965909369,-0.42547355880596,5.0
0.3583766822198974,-0.6267987708580829,0.230417146801285,-0.04284458409224909,1.6828674627972238,-0.3257651334451887,5.0
0.30616829085845426,-0.5274631725241192,0.15556656259169616,-0.163855632661304,1.7457764327510668,-0.24458657415740512,5.0
0.23158450161189145,-0.3181488624500953,0.6608080469510675,0.017890998670516984,-0.07957932703290621,-0.1457605141468568,5.0
0.3360015454459281,-0.35362586379573957,0.595313806240002,0.12141755940080684,0.182041667633516,-0.056640591372169875,5.0
0.38075181899386673,-0.38910286708204095,0.6420953599540223,0.07080457353133711,0.08717909702011302,0.014831828325536736,5.0
0.36583506114455283,-0.3820074672010435,0.6140263294584537,0.06574327718917106,0.17605035514042675,0.055421102252048,5.0
0.40685614523016106,-0.4174844666060306,0.7263022876621333,0.1619079525859445,0.5345310377786648,0.0660096075286645,5.0
0.42923128200413097,-0.36426896749855003,0.6608080469510675,0.11911697321543264,0.14209953359990868,-0.008109934788714766,5.0
0.42923128200413097,-0.36426896749855003,0.6608080469510675,0.09979201334179444,0.20800406236731264,-0.04869921174207455,5.0
0.41804371361714693,-0.3713643673795475,0.632739016455499,0.013289817881840093,0.1600735015269838,-0.053111086922765734,5.0
0.36210587168222486,-0.3997459669035371,0.6982332571665648,0.034915363940852505,0.1271212340985011,-0.035463575437872964,5.0
0.3882101979185222,-0.41038906672503317,0.6608080469510675,0.04319749441122803,0.17005903046821455,-0.03634595155022399,5.0
0.3583766822198974,-0.3997459669035371,0.5859574627414792,0.04089690261390149,0.22697657831686166,0.002478571160534696,5.0
0.3360015454459281,-0.38910286708204095,0.5766011192429568,0.06528315882970574,0.18004457158856824,-0.019580816177682273,5.0
0.3434599243705844,-0.39265056702253964,0.5859574627414792,0.07862658003029499,0.1850373299696221,-0.004580433029842609,5.0
0.36210587168222486,-0.3997459669035371,0.6140263294584537,0.09519082974714138,0.278901355605332,-0.03899307988727713,5.0
0.3360015454459281,-0.3997459669035371,0.6701643904495902,0.10485330968396049,0.22797513242889708,-0.03811070377492607,5.0
0.3546474927575694,-0.3500781638552408,0.6701643904495902,0.14672405233554173,0.31884349572850085,-0.04869921174207455,5.0
0.36956425060688025,-0.37845976726054487,0.6233826729569764,0.18537396085891353,0.5804645025740461,-0.10075936470333782,5.0
0.38448100845619476,-0.38555516714154225,0.5766011192429568,0.2267846019868865,0.6273965093023395,-0.07075859840765851,5.0
0.3248139770589437,-0.3075057616582706,0.5204631401411164,0.16512877549024937,0.4556452994652397,0.20454257645181753,5.0
0.3173558592454383,-0.3075057616582706,0.5672447757444334,0.11175507946398776,0.33282325329699597,0.19483642845382812,5.0
0.3471891138329122,-0.36426896749855003,0.5204631401411164,0.08184740293459983,0.3228377121766423,0.15336478345971333,5.0
0.3471891138329122,-0.4352229740711529,0.5485321706366848,0.06206233031344862,0.1650662599080377,-0.012521812659937959,5.0
0.3360015454459281,-0.4352229740711529,0.632739016455499,0.09841165265144619,0.11114438048505816,-0.08134710099374297,5.0
0.38448100845619476,-0.3465304639147421,0.632739016455499,0.13706157239872258,-0.11353014248386285,0.06424485530396241,5.0
0.37329344006920767,-0.3075057616582706,0.6982332571665648,0.12417826955759868,-0.09455762653431378,0.14542340921068195,5.0
0.36210587168222486,-0.3429827639742434,0.6795207339481134,0.06758375062703229,-0.1424881995537656,0.09159849864365259,5.0
0.36210587168222486,-0.37491206732004617,0.6608080469510675,0.038136192457109655,-0.14348675366580094,-0.05134633469806365,5.0
0.3471891138329122,-0.37491206732004617,0.6701643904495902,0.09795153990393321,-0.15047662027092557,-0.06369959488991421,5.0
0.36956425060688025,-0.3075057616582706,0.6888770774466362,0.1145157896207796,-0.2173797092399264,0.03247933947411301,5.0
0.38075181899386673,-0.29686266110902804,0.6701643904495902,0.04549808059660222,-0.23535365889831708,0.07218623493405774,5.0
0.3770226295315387,-0.36426896749855003,0.6701643904495902,-0.027660688752304596,-0.12052002126811041,0.0757157393834619,5.0
0.3583766822198974,-0.3961982669630384,0.6420953599540223,-0.06262966092236454,-0.06659813575556937,0.0898337464189505,5.0
0.36210587168222486,-0.37491206732004617,0.6233826729569764,-0.027660688752304596,-0.09755328887041986,0.028067461602889816,5.0
0.3434599243705844,-0.4387706662490227,0.7263022876621333,0.021111824380797964,-0.05661260072477715,-0.039875455999628155,5.0
0.3360015454459281,-0.44231837395215035,0.6701643904495902,-0.029041042427712434,-0.30824807253953024,0.17895367995576542,5.0
0.3546474927575694,-0.35362586379573957,0.6982332571665648,-0.058488598493152945,-0.36316851216410645,0.215131068275774,5.0
0.3360015454459281,-0.35362586379573957,0.7637276616562244,-0.17075740244133128,-0.7775682128972025,0.14277628087362884,5.0
0.3471891138329122,-0.44231837395215035,0.651451703452545,-0.1555735021909285,-0.6317793856147763,-0.031934073679000814,5.0
0.48516886282790217,-0.5593924797512362,0.2865550440138281,0.25347143316416026,1.018829428921253,-0.14664289025920782,5.0
0.3173558592454383,-0.4494137738331478,0.7543713181577018,0.28798029328820135,-0.04363140335787885,-0.21546817321194883,5.0
0.3770226295315387,-0.27557645928279645,0.6140263294584537,0.20377869523752581,-0.046627065693984955,0.06777435975336654,5.0
0.39193938738085016,-0.3287919642122486,0.5017505350333676,0.08966940943355768,0.035254316686861964,0.13836440031187364,5.0
0.30616829085845426,-0.36781666743904873,0.6140263294584537,0.07494563315457253,-0.32422491397385017,-0.082229477106094,5.0
0.30616829085845426,-0.36781666743904873,0.6140263294584537,0.1264788557429729,0.17704890925246214,0.09953987827374794,5.0
0.3546474927575694,-0.3997459669035371,0.5111068785318904,0.09104977012390593,-0.047625619806020314,0.007772824135159427,5.0
0.40312695576783303,-0.33233966415274735,0.6420953599540223,0.14856452577340298,0.1271212340985011,0.047479722621952665,5.0
0.40312695576783303,-0.33233966415274735,0.6420953599540223,0.08414800034387865,-0.0106791420189576,0.0483620987343037,5.0
0.36210587168222486,-0.3146011625095966,0.6795207339481134,0.006848166461278124,-0.06759668986760473,0.0368912173453362,5.0
0.36210587168222486,-0.3961982669630384,0.5298194836396396,-0.02351962597234598,-0.024658887408329794,0.0413030952165594,5.0
0.36210587168222486,-0.3961982669630384,0.5298194836396396,0.028013594160825238,-0.08357354348104772,0.0660096075286645,5.0
0.36210587168222486,-0.38910286708204095,0.5111068785318904,-0.02720057039283929,0.04723695803873695,0.0015961957208166584,5.0
0.3546474927575694,-0.3429827639742434,0.5485321706366848,-0.04192434877630657,0.05722249192773637,0.021890832852230546,5.0
0.3956685768431776,-0.3571735637362382,0.5578884322459108,-0.09851887051284913,0.22597802420482632,-0.0178160666435122,5.0
0.3770226295315387,-0.38910286708204095,0.6795207339481134,-0.08425520698137695,-0.18143178556489897,-0.08575898155549816,5.0
0.3397307349082561,-0.41393676666553186,0.6420953599540223,-0.13302771941298547,-0.13449976665748262,-0.07428809747599865,5.0
0.38075181899386673,-0.37845976726054487,0.5766011192429568,0.113135440154336,-0.36616416232108956,-0.14929001859626093,5.0
0.3098974803207823,-0.26138565952080167,0.23977349029980768,0.251170846978786,0.24994329853542926,0.10748125790384327,5.0
0.4143145241548195,-0.3500781638552408,0.5111068785318904,-0.05572788833636111,0.07519645376525004,0.04218546863837844,5.0
0.36210587168222486,-0.47779537335713734,0.5766011192429568,-0.0695314307023918,-0.17643900282559927,-0.12105400452528368,5.0
0.3509183032952405,-0.42103216654652925,0.5578884322459108,0.13890204583658383,-0.22936235858435078,-0.1784084195417172,5.0
0.36583506114455283,-0.42103216654652925,0.5298194836396396,0.46466563108383235,-0.18342889378896976,0.014831828325536736,5.0
0.41804371361714693,-0.2862195605597855,0.4456125559315281,0.2981028859725333,-0.02865310385647128,0.1551295356844154,5.0
0.4366896609287894,-0.4032936668440357,0.595313806240002,0.01605052523265577,0.1810431257006036,0.09512800309305677,5.0
0.36583506114455283,-0.44586606613002017,0.6140263294584537,0.050099264191255294,0.16606481402007306,0.0254203346111027,5.0
0.3882101979185222,-0.4352229740711529,0.5485321706366848,0.05378020545502542,0.2589302977228705,-0.08752373378020022,5.0
0.39193938738085016,-0.39265056702253964,0.5298194836396396,-0.06354989764129516,0.6024326686805781,-0.0654643417335523,5.0
0.4105853346924915,-0.22945635811565612,0.6608080469510675,-0.07321237757811426,1.0967166740182577,0.05630347836439905,5.0
0.36210587168222486,-0.22945635811565612,0.5859574627414792,-0.021679153762099324,0.7821723114139607,0.11542264291500264,5.0
0.37329344006920767,-0.3039580617177719,0.4456125559315281,0.04411772551820631,0.19302576286590506,0.10130463049845002,5.0
0.38075181899386673,-0.3500781638552408,0.4736815864270965,0.0597617441280744,0.17804746336449748,0.1604237923585216,5.0
0.3583766822198974,-0.33233966415274735,0.6233826729569764,0.09887177662286382,0.1371067691292933,0.20542494180204057,5.0
0.3509183032952405,-0.3252442623310927,0.7356586311606558,0.05746115233074787,0.0941689697147991,0.20542494180204057,5.0
0.3546474927575694,-0.33233966415274735,0.6420953599540223,0.02571300516947487,0.15807639330291307,0.12424639327638504,5.0
0.36956425060688025,-0.36426896749855003,0.5017505350333676,0.04503796223713692,0.13411110679318722,0.07659811549581293,5.0
0.37329344006920767,-0.3465304639147421,0.632739016455499,0.014670172960236013,0.02926299658182086,0.05630347836439905,5.0
0.3546474927575694,-0.3004103612921089,0.7263022876621333,-0.038703521663037505,-0.02665599563240053,0.01836133042072539,5.0
0.3546474927575694,-0.27202875934229775,0.7730838413761538,-0.0695314307023918,-0.0016921611002007563,0.04571497039725059,5.0
0.3583766822198974,-0.27202875934229775,0.7450149746591792,-0.10219981177661926,0.04723695803873695,0.046597346509601616,5.0
0.36956425060688025,-0.33233966415274735,0.6608080469510675,-0.09575816035605729,0.041245637172500654,-0.0019333060380554961,5.0
0.3770226295315387,-0.3820074672010435,0.7356586311606558,-0.07689331884188438,0.019277461551028656,-0.05928771432815901,5.0
0.3583766822198974,-0.38555516714154225,0.7730838413761538,-0.05112671035366037,-0.0016921611002007563,-0.0010509312709704548,5.0
0.3173558592454383,-0.36781666743904873,0.7450149746591792,0.0031672209885437487,-0.06160536519539254,0.002478571160534696,5.0
0.3360015454459281,-0.39265056702253964,0.7263022876621333,0.012829699522374775,-0.08157643525697694,0.00071381960846562,5.0
0.3770226295315387,-0.38910286708204095,0.6608080469510675,-0.029041042427712434,-0.029651657968506637,-0.004580433029842609,5.0
0.36956425060688025,-0.37845976726054487,0.6233826729569764,-0.032721987198952765,0.028264442469785492,0.009537575182753756,5.0
0.3434599243705844,-0.3500781638552408,0.7263022876621333,-0.009716084658556336,0.05222972517353545,0.08630424735061037,5.0
0.3322723559835998,-0.35362586379573957,0.7075896006650881,-0.012016674351400743,0.0791906671686108,0.169247542719904,5.0
0.3434599243705844,-0.3429827639742434,0.6888770774466362,-0.012476792710866052,0.08218632950471688,0.21601345515025303,5.0
0.36956425060688025,-0.35362586379573957,0.6608080469510675,-0.009716084658556336,0.06421236614481285,0.22571958162398645,5.0
0.37329344006920767,-0.38555516714154225,0.6420953599540223,-0.02628033437540271,0.09616607489408911,0.1780713038434144,5.0
0.3509183032952405,-0.3997459669035371,0.6608080469510675,-0.06032906912503801,0.09317041560276373,0.14718816143538402,5.0
0.3248139770589437,-0.39265056702253964,0.4643252429285733,-0.15419315272448492,-0.19341441055107753,0.09071612253130155,5.0
0.3770226295315387,-0.36781666743904873,0.5766011192429568,-0.314314229579365,-0.321229263816867,0.005125697479688814,5.0
0.36956425060688025,-0.460056865892015,0.4362562943223021,0.14764428905447236,-0.020664677049749818,0.12071688882698087,5.0
0.4143145241548195,-0.45296146601101756,0.5578884322459108,0.21436140066937082,0.11613714495567352,0.19836593290323226,5.0
0.4143145241548195,-0.45296146601101756,0.5578884322459108,-0.12888665978975006,0.07319934858596006,0.27160309641772845,5.0
0.3248139770589437,-0.49908157300012956,0.9321413532938538,-0.24345605834123116,0.055225385226056,0.23630809497219893,5.0
0.2912515330091416,-0.5452016799892415,0.8385782458658133,-0.11600335694862612,-0.17144624444454534,0.2548379610451867,5.0
0.3434599243705844,-0.6516326937294603,0.7075896006650881,0.12923956589976474,-0.3022567478673179,0.25042609124555953,5.0
0.3434599243705844,-0.6516326937294603,0.7075896006650881,0.34687539840414194,0.007294819818556066,0.34572264680670367,5.0
0.3210847875966154,-0.562940187454364,0.6140263294584537,0.45684360213706515,-0.13150410432137652,0.39248854847492476,5.0
0.30616829085845426,-0.5487493721671113,0.6608080469510675,0.5125178955726056,-0.22636668406912172,0.4330778281188165,5.0
0.30616829085845426,-0.5487493721671113,0.6608080469510675,0.5097572190875277,-0.31324083092058386,0.44631348056621,5.0
0.30616829085845426,-0.5345585724051166,0.6608080469510675,0.48399059095747066,-0.3851367026288846,0.4648433251149419,5.0
0.36956425060688025,-0.5522970798702391,0.6233826729569764,0.39426755014540216,-0.3781468116655139,0.43572496721799764,5.0
0.36956425060688025,-0.5522970798702391,0.6233826729569764,0.45730373733238744,-0.3501873208867696,0.5266096314552587,5.0
0.36210587168222486,-0.44231837395215035,0.6420953599540223,0.6450318933073766,-0.34219888799048687,0.6413184614881257,5.0
0.3956685768431776,-0.3961982669630384,0.5766011192429568,0.565891602822772,-0.3691598368363187,0.6263180783402861,5.0
0.40685614523016106,-0.37491206732004617,0.5391758271381621,0.37908367234280876,-0.3342104550942037,0.5424923799533214,5.0
0.3882101979185222,-0.3713643673795475,0.5485321706366848,0.2304655488626089,-0.3252234802650086,0.557492763101161,5.0
0.3882101979185222,-0.41038906672503317,0.3333366796171452,0.18307337467353926,-0.13849398310562405,0.5795521551478089,5.0
0.36956425060688025,-0.37491206732004617,0.4456125559315281,0.29074101466889773,-0.2024014097385188,0.6792606020328362,5.0
0.38075181899386673,-0.2791241601936238,0.5485321706366848,0.35193670597021254,-0.24034644163761687,0.8469119127097419,5.0
0.42177290307947496,-0.3252442623310927,0.4643252429285733,0.18307337467353926,-0.18742311023711122,0.7516154217213654,5.0
0.42923128200413097,-0.45296146601101756,0.3052677310108733,0.060221856875587385,-0.2483348501756539,0.5592575368501191,5.0
0.3098974803207823,-0.4174844666060306,0.5766011192429568,0.06528315882970574,-0.4220831438785786,0.47101996866352736,5.0
0.28752234354681383,-0.39265056702253964,0.595313806240002,0.14166275599337574,-0.46102676642708074,0.4542548548152415,5.0
0.3546474927575694,-0.3997459669035371,0.5298194836396396,0.13430086224193083,-0.35118586281968206,0.3668996519788727,5.0
0.40685614523016106,-0.4174844666060306,0.3426930231156679,0.12141755940080684,-0.16745202799640385,0.33601652033297036,5.0
0.4329604714664614,-0.3961982669630384,0.2865550440138281,0.09795153990393321,-0.12551279182828726,0.2945448753388555,5.0
0.44787696820462136,-0.3571735637362382,0.22106080330276248,0.05746115233074787,-0.15347228260703163,0.28307399664042,5.0
0.44414777874229394,-0.36781666743904873,0.3333366796171452,0.006848166461278124,-0.10154750531856137,0.2177782073749551,5.0
0.4143145241548195,-0.4352229740711529,0.3988310022175075,-0.08701591713816881,-0.14348675366580094,0.1189521366022788,5.0
0.36956425060688025,-0.4848907732381348,0.4456125559315281,-0.12106465329079216,-0.1634578115482624,-0.014286564884640036,5.0
0.38448100845619476,-0.4848907732381348,0.4081872638267335,-0.0649302499137149,-0.10054895120652597,-0.082229477106094,5.0
0.40312695576783303,-0.460056865892015,0.4081872638267335,-0.048826118556333835,-0.08457209759308305,-0.12634825043726194,5.0
0.38075181899386673,-0.3997459669035371,0.3146240745093967,-0.1261259496329582,-0.07258946042778157,-0.24282182193270302,5.0
0.3434599243705844,-0.3181488624500953,0.2865550440138281,-0.21952992609684452,-0.11952146715607506,-0.27811684490248856,5.0
0.3397307349082561,-0.33233966415274735,0.3707619717219396,-0.2632411309623823,-0.224369575845051,-0.3063528589734657,5.0
0.3956685768431776,-0.41038906672503317,0.3707619717219396,-0.2370144125326214,-0.208392734410731,-0.3592953826660162,5.0
0.4366896609287894,-0.460056865892015,0.3052677310108733,-0.13532831682226434,-0.12451423771625189,-0.33282412081974083,5.0
0.3882101979185222,-0.44586606613002017,0.20234819819501307,-0.09621827871552259,-0.23535365889831708,-0.34341263416795353,5.0
0.3397307349082561,-0.44231837395215035,0.22106080330276248,-0.1509723298201801,-0.34918875459561133,-0.3592953826660162,5.0
0.38448100845619476,-0.46715226577301233,0.2678424389060796,-0.1762788227549149,-0.37714826973260185,-0.3592953826660162,5.0
0.44414777874229394,-0.44231837395215035,0.3426930231156679,-0.12704618635188883,-0.20040430151444807,-0.3672367569150475,5.0
0.42177290307947496,-0.4032936668440357,0.19299185469649058,-0.10726111373073763,-0.1634578115482624,-0.33458887304444296,5.0
0.40685614523016106,-0.42457986648702795,0.11814127048690229,-0.11876406710541795,-0.1744419189597744,-0.33458887304444296,5.0
0.3882101979185222,-0.44231837395215035,0.15556656259169616,-0.10404028521448047,-0.16545491977233312,-0.20929155118761955,5.0
0.40312695576783303,-0.3961982669630384,0.2584860954075562,-0.04744576347793791,-0.19940573522328975,-0.10164174081568887,5.0
0.41804371361714693,-0.38555516714154225,0.230417146801285,-0.022599389954909406,-0.16445637783942071,-0.04781683562972351,5.0
0.42177290307947496,-0.44586606613002017,0.09007232188063037,-0.05894871685261825,-0.13449976665748262,-0.05575821525981885,5.0
0.42177290307947496,-0.4848907732381348,0.03393434277879076,-0.15741397562878973,0.035254316686861964,-0.1598785211823454,5.0
0.4329604714664614,-0.4742476656540098,0.08071597838210787,-0.20710672477932884,0.1600735015269838,-0.28341110157659494,5.0
0.41804371361714693,-0.42457986648702795,0.005865394172519496,-0.26048043202949506,0.15208506863070087,-0.3495892561922826,5.0
0.41804371361714693,-0.42103216654652925,0.043290686277314014,-0.3681480495770442,0.1720561386922853,-0.3928256534110995,5.0
0.40312695576783303,-0.5026292651779994,0.06200329138506249,-0.4293437408783591,0.24195487781826922,-0.42106168900633273,5.0
0.40685614523016106,-0.601964879037221,0.11814127048690229,-0.3534242620741544,0.31584784557151774,-0.45282718600245814,5.0
0.3956685768431776,-0.6197033865023432,0.22106080330276248,-0.2627810182148693,0.3927364513026263,-0.3672367569150475,5.0
0.38448100845619476,-0.5664878641069762,0.1649229060902194,-0.18548117872031641,0.36877117697202333,-0.2216448167605341,5.0
0.36956425060688025,-0.5026292651779994,0.11814127048690229,-0.1914627117814132,0.29288111317382715,-0.16781990619350476,5.0
0.3583766822198974,-0.5026292651779994,0.17427916769944538,-0.2452965317790923,0.19102865464183433,-0.2172329254366509,5.0
0.3882101979185222,-0.5345585724051166,0.230417146801285,-0.22873227083834138,0.07220079447392468,-0.2869406060259991,5.0
0.37329344006920767,-0.5239154803462494,0.2865550440138281,-0.1380890157551515,-0.008682033794886863,-0.27988159712719063,5.0
0.37329344006920767,-0.5239154803462494,0.2865550440138281,-0.0653903682731802,-0.10654027587873821,-0.28517585380129695,5.0
0.3546474927575694,-0.4848907732381348,0.3707619717219396,-0.08011414735814154,-0.22736525036028007,-0.3178237376719015,5.0
0.36956425060688025,-0.4565091737141452,0.19299185469649058,-0.1422300866022916,-0.3032552898002303,-0.3698838960142286,5.0
0.36956425060688025,-0.44586606613002017,0.23977349029980768,-0.15281280325804134,-0.2852813401418396,-0.27811684490248856,5.0
0.39193938738085016,-0.38555516714154225,0.19299185469649058,-0.1261259496329582,-0.21038984263480173,-0.1395838921225275,5.0
0.3956685768431776,-0.3997459669035371,0.19299185469649058,-0.11922417985293093,-0.16245926961534998,-0.022227944514735382,5.0
0.44041885039111683,-0.44586606613002017,0.1649229060902194,-0.1887020016246213,-0.06360247341946328,0.008655199574877467,5.0
0.41804371361714693,-0.44231837395215035,0.22106080330276248,-0.20940731096470308,0.07819211610135617,0.06248010846032432,5.0
0.39193938738085016,-0.4352229740711529,0.1836355111979679,-0.14453067278766582,0.07819211610135617,0.03424408900828309,5.0
0.4143145241548195,-0.44231837395215035,0.13685387559465076,-0.11140217335397305,0.10515305581284592,0.09336325086835467,5.0
0.4143145241548195,-0.44231837395215035,0.13685387559465076,-0.12796642307081943,0.09716462900612446,0.12954064995049125,5.0
0.3882101979185222,-0.5168200649399941,0.20234819819501307,-0.11140217335397305,0.0791906671686108,0.07483336327111087,5.0
0.3882101979185222,-0.5132723727621243,0.1274976139854248,-0.09299745019926546,0.10016029134223056,0.0015961957208166584,5.0
0.3882101979185222,-0.5132723727621243,0.1274976139854248,-0.05940883521208356,0.1840387758575867,-0.023110317936554426,5.0
0.40685614523016106,-0.4919861731191322,0.2678424389060796,-0.010176202316527602,0.22298236186872022,-0.028404571920128657,5.0
0.39193938738085016,-0.47779537335713734,0.22106080330276248,0.02157194274026328,0.24395198604233997,-0.04869921174207455,5.0
0.39193938738085016,-0.47779537335713734,0.22106080330276248,0.022492179459193885,0.2579317314317122,-0.0681114700706054,5.0
0.3993977663055056,-0.44586606613002017,0.21170445980423924,0.01697076195158638,0.21499394115156023,-0.09987698859098677,5.0
0.4105853346924915,-0.3820074672010435,0.24912975190903366,0.009148755452628493,0.20500840003120654,-0.05399346303511676,5.0
0.4105853346924915,-0.3820074672010435,0.24912975190903366,-0.019378563499291006,0.20500840003120654,-0.07869997803775385,5.0
0.3956685768431776,-0.4068413667845344,0.20234819819501307,-0.027660688752304596,0.1530836227427362,-0.0681114700706054,5.0
0.40685614523016106,-0.4352229740711529,0.20234819819501307,-0.00695537590475258,0.12512412587443034,-0.10428886915274199,5.0
0.40685614523016106,-0.4352229740711529,0.20234819819501307,0.008688637093163197,0.13211399856911646,-0.08046472488139193,5.0
0.4105853346924915,-0.4174844666060306,0.2865550440138281,0.041817139332832105,0.17704890925246214,-0.010757061780501878,5.0
0.40685614523016106,-0.41038906672503317,0.3052677310108733,0.07540575712599017,0.28089846382940276,-0.039875455999628155,5.0
0.3956685768431776,-0.4032936668440357,0.2865550440138281,0.11957708596294564,0.44266413254614884,-0.10605362137744406,5.0
0.39193938738085016,-0.41038906672503317,0.3052677310108733,0.12509850627652933,0.32783047055769615,-0.09193561434195541,5.0
0.3583766822198974,-0.4565091737141452,0.4081872638267335,0.1329205127754872,0.15008796040663014,-0.10605362137744406,5.0
0.3770226295315387,-0.46715226577301233,0.3520493666141904,0.1356812229322791,0.13510966090522256,-0.11575974785117747,5.0
0.4143145241548195,-0.41393676666553186,0.23977349029980768,0.15040499921126427,0.174053246916356,-0.04693445951737246,5.0
0.38448100845619476,-0.4032936668440357,0.230417146801285,0.13476098621334848,0.1131414826195674,-0.029286948032479686,5.0
0.3770226295315387,-0.4387706662490227,0.3052677310108733,0.08506823706280928,0.041245637172500654,-0.04781683562972351,5.0
0.3882101979185222,-0.4494137738331478,0.230417146801285,0.08000694072064324,0.03325720998518159,-0.08311185321844503,5.0
0.38075181899386673,-0.42812757419015557,0.3333366796171452,0.09519082974714138,0.12512412587443034,-0.030169324144830742,5.0
0.3956685768431776,-0.41038906672503317,0.3707619717219396,0.0905896461524883,0.15807639330291307,0.028067461602889816,5.0
0.4105853346924915,-0.3820074672010435,0.4362562943223021,0.08230752690601743,0.15208506863070087,0.015714203765254776,5.0
0.4143145241548195,-0.38910286708204095,0.4456125559315281,0.04457784387767161,0.1311154444570811,-0.0010509312709704548,5.0
0.3956685768431776,-0.3820074672010435,0.389474658718985,0.05285996873609482,0.1570778391908777,0.03865596687950628,5.0
0.36956425060688025,-0.36781666743904873,0.2865550440138281,0.0593016257686091,0.14010243146539939,0.0801276145641531,5.0
0.36956425060688025,-0.37491206732004617,0.3146240745093967,0.038136192457109655,0.15208506863070087,0.07483336327111087,5.0
0.3546474927575694,-0.41393676666553186,0.3333366796171452,0.0519397320171642,0.16606481402007306,0.053656352717877935,5.0
0.38075181899386673,-0.3997459669035371,0.3333366796171452,0.05101950091018591,0.11913280729177964,0.046597346509601616,5.0
0.3956685768431776,-0.41038906672503317,0.3146240745093967,0.057921270690213175,0.1271212340985011,0.0254203346111027,5.0
0.40685614523016106,-0.3961982669630384,0.2678424389060796,0.07356528368812894,0.1311154444570811,-0.014286564884640036,5.0
0.3882101979185222,-0.3997459669035371,0.2865550440138281,0.08184740293459983,0.11214293459709353,0.03071458724941093,5.0
0.3882101979185222,-0.3997459669035371,0.2865550440138281,0.11589613908722318,0.10016029134223056,0.10924601012854536,5.0
0.3770226295315387,-0.4174844666060306,0.4456125559315281,0.09381048028069777,0.0003049471238699921,0.10748125790384327,5.0
0.3770226295315387,-0.4174844666060306,0.4456125559315281,0.06068197523505268,-0.046627065693984955,0.05983298012327121,5.0
0.3956685768431776,-0.42457986648702795,0.3614056282234164,0.05285996873609482,0.0052977146392660735,0.01924370586044343,5.0
0.3956685768431776,-0.42457986648702795,0.3614056282234164,0.0685039873459629,0.05422683187521583,0.026302710723453738,5.0
0.38448100845619476,-0.35362586379573957,0.3801183152204623,0.07264504696919832,0.06720802695852858,0.03247933947411301,5.0
0.38448100845619476,-0.35362586379573957,0.3801183152204623,0.03583560065978312,-0.011677696130992957,0.05983298012327121,5.0
0.38075181899386673,-0.37845976726054487,0.3614056282234164,-0.004654785510414124,0.024270229066424752,0.0254203346111027,5.0
0.3882101979185222,-0.39265056702253964,0.3801183152204623,-0.007875612623683192,-0.003689269324271499,0.012184701754145247,5.0
0.3882101979185222,-0.39265056702253964,0.3801183152204623,0.005467811382882205,-0.00968058790692222,0.00071381960846562,5.0
0.3583766822198974,-0.3997459669035371,0.41754360732525614,0.004547574663951591,-0.04962272803009106,0.002478571160534696,5.0
0.3583766822198974,-0.3997459669035371,0.41754360732525614,0.01605052523265577,-0.030650212080542028,0.026302710723453738,5.0
0.3770226295315387,-0.37491206732004617,0.3801183152204623,0.02709336024787079,-0.039637192999298854,0.05983298012327121,5.0
0.3993977663055056,-0.3997459669035371,0.24912975190903366,-0.020758917656975996,-0.030650212080542028,-0.024875070161256504,5.0
0.3993977663055056,-0.3997459669035371,0.24912975190903366,-0.04284458409224909,-0.022661785273820557,-0.06105246655286107,5.0
0.38075181899386673,-0.45296146601101756,0.23977349029980768,-0.0051149038698794355,-0.08357354348104772,-0.012521812659937959,5.0
0.38075181899386673,-0.45296146601101756,0.23977349029980768,0.020191587661867367,-0.1864245439459529,0.24160233012204915,5.0
0.38448100845619476,-0.18688395494835727,0.3520493666141904,-0.020758917656975996,-0.2463377663098291,0.4330778281188165,5.0
0.42923128200413097,-0.24719485781814962,0.2678424389060796,-0.08563556205977288,-0.23435511696540468,0.3819000351267124,5.0
0.42923128200413097,-0.24719485781814962,0.2678424389060796,-0.10910158155664652,-0.16745202799640385,0.21866057272517814,5.0
0.4255020925418024,-0.3820074672010435,0.24912975190903366,-0.12152476603830516,-0.08656920581715381,0.0033609466002527343,5.0
0.4143145241548195,-0.4387706662490227,0.19299185469649058,-0.11830394313400032,0.006296265706520708,-0.1342896354484213,5.0
0.3882101979185222,-0.45296146601101756,0.24912975190903366,-0.09115698237335657,0.020276014140673652,-0.19517355491425895,5.0
0.38075181899386673,-0.45296146601101756,0.2678424389060796,-0.06032906912503801,0.05222972517353545,-0.26576357932957406,5.0
0.3882101979185222,-0.4565091737141452,0.2678424389060796,-0.06907131234292649,0.030261549171465865,-0.36017774801623925,5.0
0.39193938738085016,-0.5203677726431217,0.230417146801285,-0.08425520698137695,0.05822104603977174,-0.46076856025148966,5.0
0.36583506114455283,-0.5522970798702391,0.23977349029980768,-0.045145174486587544,0.06920513366020895,-0.490769326547169,5.0
0.36956425060688025,-0.5026292651779994,0.3801183152204623,0.017430880311051684,-0.017669014713643724,-0.24546896103188415,5.0
0.37329344006920767,-0.26493335946130037,0.41754360732525614,0.03031418595815176,-0.06160536519539254,0.09512800309305677,5.0
0.38075181899386673,-0.1939793548293547,0.4268999508237794,0.02571300516947487,-0.11652580481996896,0.5019031003094294,5.0
0.41804371361714693,-0.11238225619788457,0.3520493666141904,-0.014317264745739198,-0.15646794494313776,0.7498506049238957,5.0
0.44414777874229394,-0.1762408551268612,0.2865550440138281,-0.08977662729496064,-0.06759668986760473,0.6404360961379025,5.0
0.41804371361714693,-0.2117178545318482,0.24912975190903366,-0.12382536344758398,-0.03863863888726349,0.48425562111092085,5.0
0.36956425060688025,-0.3181488624500953,0.2865550440138281,-0.15373303997697194,-0.03863863888726349,0.3210161371851307,5.0
0.3546474927575694,-0.41038906672503317,0.2584860954075562,-0.129346772537263,0.03126010328350123,0.0730686110464088,5.0
0.3770226295315387,-0.46715226577301233,0.22106080330276248,-0.12382536344758398,0.036252870037702146,-0.09017086211725338,5.0
0.3956685768431776,-0.47779537335713734,0.230417146801285,-0.12842654704223708,0.08717909702011302,-0.19164405046485478,5.0
0.38075181899386673,-0.4848907732381348,0.19299185469649058,-0.11140217335397305,0.11414003673160279,-0.27899923177696756,5.0
0.38075181899386673,-0.5381062801082441,0.15556656259169616,-0.0966783970749879,0.17804746336449748,-0.38488427916206824,5.0
0.3770226295315387,-0.5487493721671113,0.1836355111979679,-0.0433047024517144,0.17804746336449748,-0.335471259918922,5.0
0.3956685768431776,-0.46360457359514257,0.3052677310108733,0.020651706021332664,0.1311154444570811,-0.15899614506999435,5.0
0.4105853346924915,-0.3713643673795475,0.3707619717219396,0.08230752690601743,0.1311154444570811,0.06512723141631344,5.0
0.42177290307947496,-0.3713643673795475,0.3052677310108733,0.04917902747232467,0.21199827881545413,0.20454257645181753,5.0
0.42923128200413097,-0.26138565952080167,0.3239803361186227,-0.02628033437540271,0.19102865464183433,0.3201337503106516,5.0
0.3956685768431776,-0.23655175799665354,0.3614056282234164,-0.06401001600076046,0.1440966418239794,0.39248854847492476,5.0
0.38075181899386673,-0.225908654293843,0.389474658718985,-0.07827367392028031,0.015283246625277547,0.4613138637140497,5.0
0.37329344006920767,-0.2791241601936238,0.3146240745093967,-0.10127957505768864,-0.03264732030461274,0.4542548548152415,5.0
0.3993977663055056,-0.38555516714154225,0.21170445980423924,-0.13026700925619364,-0.0526183842766357,0.3527816557055121,5.0
0.38075181899386673,-0.41038906672503317,0.20234819819501307,-0.13348784338440312,-0.06160536519539254,0.2468965867961554,5.0
0.3471891138329122,-0.42812757419015557,0.2678424389060796,-0.11646346969613909,-0.08257498936901232,0.14277628087362884,5.0
0.36583506114455283,-0.44586606613002017,0.19299185469649058,-0.08655579877870348,-0.09555618064634913,0.13836440031187364,5.0
0.40685614523016106,-0.46715226577301233,0.043290686277314014,-0.07091178578078773,-0.0556140466127418,0.09071612253130155,5.0
0.42177290307947496,-0.506176972881127,0.09007232188063037,-0.09621827871552259,0.009291928042626808,-0.007227560021629728,5.0
0.3956685768431776,-0.460056865892015,0.1274976139854248,-0.07827367392028031,0.07419789965321467,-0.032816449791351836,5.0
0.37329344006920767,-0.4032936668440357,0.24912975190903366,-0.0653903682731802,0.07120224036188931,0.006008072919406852,5.0
0.3956685768431776,-0.35362586379573957,0.22106080330276248,-0.08793615385709942,0.032258655873146226,0.05895060401092016,5.0
0.42177290307947496,-0.33233966415274735,0.17427916769944538,-0.1141628835107649,0.07020368624985394,0.0686567358657176,5.0
0.41804371361714693,-0.33233966415274735,0.3052677310108733,-0.13946937644549975,0.053228278524375644,0.07836286772051501,5.0
0.40685614523016106,-0.33233966415274735,0.2865550440138281,-0.13210748269405487,0.042244190713639634,0.07218623493405774,5.0
0.3882101979185222,-0.36781666743904873,0.2865550440138281,-0.1436104360687352,-0.014673358467099063,0.06336248457267535,5.0
0.3956685768431776,-0.3961982669630384,0.19299185469649058,-0.12658607360437585,-0.039637192999298854,0.028067461602889816,5.0
0.3956685768431776,-0.42457986648702795,0.20234819819501307,-0.12106465329079216,-0.05661260072477715,0.0254203346111027,5.0
0.36583506114455283,-0.41038906672503317,0.22106080330276248,-0.1173837064150697,-0.11552725070793357,-0.024875070161256504,5.0
0.3546474927575694,-0.41393676666553186,0.21170445980423924,-0.14084972591194336,-0.19141732668525271,-0.04340495506796833,5.0
0.39193938738085016,-0.44231837395215035,0.14621021909317347,-0.16799669228453945,-0.23435511696540468,-0.05487583914746782,5.0
0.42923128200413097,-0.5593924797512362,0.20234819819501307,-0.17029728969381833,-0.29526688126219314,-0.19693830713896102,5.0
0.42177290307947496,-0.6693711701440673,0.08071597838210787,-0.16109492250451216,-0.1424881995537656,-0.4184145499071519,5.0
0.42177290307947496,-0.6693711701440673,0.08071597838210787,-0.12428547619509697,-0.021663231161785177,-0.4872398651462768,5.0
0.3882101979185222,-0.38910286708204095,0.2865550440138281,-0.048826118556333835,-0.08656920581715381,-0.2869406060259991,5.0
0.3993977663055056,-0.3110534625690979,0.2678424389060796,-0.02351962597234598,-0.16245926961534998,-0.1122302434017733,5.0
0.3993977663055056,-0.3110534625690979,0.2678424389060796,-0.07045166742132242,-0.1754404608926868,0.03777359076715524,5.0
0.42923128200413097,-0.3181488624500953,0.13685387559465076,-0.13900925247408213,-0.12850845416439333,0.0730686110464088,5.0
0.4143145241548195,-0.3394350640337447,0.17427916769944538,-0.13762890300763855,-0.006684928615596872,0.07836286772051501,5.0
0.4143145241548195,-0.3394350640337447,0.17427916769944538,-0.13624855354119494,0.05023261847185509,0.01306707727794241,5.0
0.36956425060688025,-0.3571735637362382,0.19299185469649058,-0.1652359821277476,-0.027654549744435923,-0.019580816177682273,5.0
0.36956425060688025,-0.3571735637362382,0.19299185469649058,-0.20296566515609343,-0.11952146715607506,-0.016051314418810112,5.0
0.42177290307947496,-0.44231837395215035,0.11814127048690229,-0.2038859018750241,-0.07858077292087087,-0.06017009044051004,5.0
0.4329604714664614,-0.47779537335713734,0.09942858348985635,-0.16477586938023464,0.020276014140673652,-0.09370035580452951,5.0
0.40685614523016106,-0.5274631725241192,0.09007232188063037,-0.1426901993498046,0.020276014140673652,-0.19429116803977992,5.0
0.39193938738085016,-0.5452016799892415,0.1087849269883796,-0.10173969341715397,-0.08457209759308305,-0.23929231748329885,5.0
0.3882101979185222,-0.4919861731191322,0.21170445980423924,-0.0561880066958264,-0.09555618064634913,-0.2604693441797238,5.0
0.3882101979185222,-0.44586606613002017,0.13685387559465076,-0.010176202316527602,-0.13250265843341189,-0.25870459195502177,5.0
0.40312695576783303,-0.4352229740711529,0.06200329138506249,0.03859631081657496,-0.14348675366580094,-0.29664673249973245,5.0
0.4143145241548195,-0.4706999734761399,0.03393434277879076,0.04963914583178999,-0.11253158837182746,-0.36017774801623925,5.0
0.3882101979185222,-0.44231837395215035,0.08071597838210787,0.02571300516947487,-0.09156197637733066,-0.40164943605886605,5.0
0.3993977663055056,-0.3997459669035371,0.06200329138506249,0.034915363940852505,-0.04462995746991421,-0.3204708767710823,5.0
0.40685614523016106,-0.3713643673795475,0.02457799928026807,0.028473712520290545,-0.01267625024302835,-0.2375275652585968,5.0
0.42177290307947496,-0.4068413667845344,0.06200329138506249,0.011909462803444163,0.04623840449759797,-0.18634979379074856,5.0
0.42177290307947496,-0.4068413667845344,0.03393434277879076,0.021111824380797964,0.09317041560276373,-0.17046702376842987,5.0
0.40312695576783303,-0.3997459669035371,0.01522165578174547,0.032154659396012995,0.14010243146539939,-0.14134864434722957,5.0
0.3956685768431776,-0.38910286708204095,0.08071597838210787,0.05101950091018591,0.16207060975105456,-0.04516970729267038,5.0
0.3956685768431776,-0.37845976726054487,0.14621021909317347,0.041817139332832105,0.2060069541432419,-0.0275221958077776,5.0
0.3770226295315387,-0.3429827639742434,0.06200329138506249,0.0404367842544362,0.1810431257006036,-0.00016855515861941882,5.0
0.40685614523016106,-0.33233966415274735,0.06200329138506249,0.03721595573817904,0.16406770579600236,0.08453949512590829,5.0
0.4329604714664614,-0.3252442623310927,0.07135963488358518,0.03721595573817904,0.14509519593601475,0.12954064995049125,5.0
0.3993977663055056,-0.33588736409324604,0.05264694788653999,0.023872534537589817,0.13910387735336405,0.1992483197777113,5.0
0.37329344006920767,-0.3429827639742434,0.1087849269883796,0.024332652897055114,0.08118777539268154,0.2310138382980927,5.0
0.38075181899386673,-0.36781666743904873,0.09942858348985635,0.021111824380797964,0.07819211610135617,0.2468965867961554,5.0
0.3882101979185222,-0.37845976726054487,0.09007232188063037,0.029854067598686463,0.05622393933809137,0.22130769030010328,5.0
0.38075181899386673,-0.39265056702253964,0.09942858348985635,0.0616022119539833,0.024270229066424752,0.2760149877416117,5.0
0.3993977663055056,-0.38910286708204095,0.1274976139854248,0.11819673649650207,0.002302052303159973,0.3042510018125889,5.0
0.3882101979185222,-0.42103216654652925,0.19299185469649058,0.12739909246190353,-0.06859524397964012,0.3210161371851307,5.0
0.3993977663055056,-0.4565091737141452,0.09942858348985635,0.13154016330904358,-0.04962272803009106,0.3060157540372911,5.0
0.3993977663055056,-0.460056865892015,0.08071597838210787,0.15224547264912536,0.03425576333602178,0.21336631605107195,5.0
0.39193938738085016,-0.4494137738331478,0.09007232188063037,0.14626393958802875,0.051231171822695265,0.1851303019800947,5.0
0.3956685768431776,-0.4174844666060306,0.1274976139854248,0.15822700571022214,0.051231171822695265,0.20189543735263643,5.0
0.42177290307947496,-0.4032936668440357,0.21170445980423924,0.18031267574065218,0.018278908961383653,0.20366018957733845,5.0
0.42177290307947496,-0.4174844666060306,0.230417146801285,0.2005578611093163,0.04523985105160838,0.238072825672645,5.0
0.40685614523016106,-0.4352229740711529,0.15556656259169616,0.19871738767145503,0.06620947284649321,0.19836593290323226,5.0
0.39193938738085016,-0.4352229740711529,0.06200329138506249,0.18997515567747117,0.03725142338854233,0.215131068275774,5.0
0.3956685768431776,-0.4352229740711529,0.15556656259169616,0.2120608144839967,0.05822104603977174,0.18865980642949884,5.0
0.4143145241548195,-0.42457986648702795,0.09007232188063037,0.2120608144839967,0.09616607489408911,0.20189543735263643,5.0
0.3993977663055056,-0.42457986648702795,0.14621021909317347,0.23874766810907977,0.10115884545426596,0.20807205937696568,5.0
0.39193938738085016,-0.42457986648702795,0.1274976139854248,0.2557720417973438,0.06221525944313247,0.22748433384868855,5.0
0.3993977663055056,-0.4174844666060306,0.24912975190903366,0.2861398198503401,0.06321381355516784,0.17542417550636125,5.0
0.40685614523016106,-0.42457986648702795,0.17427916769944538,0.2953421870396462,0.06421236614481285,0.18689505420479677,5.0
0.3993977663055056,-0.4174844666060306,0.043290686277314014,0.2916612401639237,0.04923406474041731,0.18424792586774363,5.0
0.39193938738085016,-0.4068413667845344,0.1274976139854248,0.2594529662252569,0.05023261847185509,0.1604237923585216,5.0
0.3882101979185222,-0.4068413667845344,0.1649229060902194,0.25255120766913425,0.025268781656069755,0.15336478345971333,5.0
0.40685614523016106,-0.41038906672503317,0.23977349029980768,0.25071073423127316,0.032258655873146226,0.0986575021613969,5.0
0.42177290307947496,-0.4174844666060306,0.17427916769944538,0.23414647329052207,0.05622393933809137,0.10659888179149225,5.0
0.40685614523016106,-0.4032936668440357,0.1649229060902194,0.18813468223961005,0.0991617372301952,0.05189160049317586,5.0
0.3956685768431776,-0.41393676666553186,0.19299185469649058,0.15684665624377853,0.13211399856911646,0.009537575182753756,5.0
0.3956685768431776,-0.41393676666553186,0.19299185469649058,0.1301598026186954,0.14908940629459475,0.01924370586044343,5.0
0.3882101979185222,-0.37491206732004617,0.22106080330276248,0.1232580328386681,0.174053246916356,0.03512646512063412,5.0
0.3956685768431776,-0.39265056702253964,0.22106080330276248,0.11221520343540539,0.13610821501725792,0.028949836369974856,5.0
0.3956685768431776,-0.39265056702253964,0.22106080330276248,0.08138729018708683,0.14010243146539939,-0.030169324144830742,5.0
0.3993977663055056,-0.38555516714154225,0.21170445980423924,0.03169454103654768,0.1720561386922853,-0.04781683562972351,5.0
0.3956685768431776,-0.3820074672010435,0.22106080330276248,0.0188112353894476,0.174053246916356,-0.04164020284326624,5.0
0.3956685768431776,-0.3820074672010435,0.22106080330276248,-5.360472173721985e-05,0.12512412587443034,-0.056640591372169875,5.0
0.3882101979185222,-0.38555516714154225,0.20234819819501307,-0.03134163282205088,0.11913280729177964,-0.0866413576678492,5.0
0.3956685768431776,-0.39265056702253964,0.22106080330276248,-0.057568361774222324,0.0991617372301952,-0.07869997803775385,5.0
0.3956685768431776,-0.39265056702253964,0.22106080330276248,-0.07551296376348847,0.10215739956630131,-0.019580816177682273,5.0
0.4255020925418024,-0.41393676666553186,0.23977349029980768,-0.07919391063921091,0.17005903046821455,0.016596579541289316,5.0
0.4366896609287894,-0.42812757419015557,0.19299185469649058,-0.07321237757811426,0.23696210725809239,0.013949452885818699,5.0
0.3882101979185222,-0.42457986648702795,0.1836355111979679,-0.055267772782871954,0.04623840449759797,-0.05399346303511676,5.0
0.38075181899386673,-0.3997459669035371,0.29591138751235074,-0.045605292846052845,0.06221525944313247,0.05012684826847376,5.0
0.3993977663055056,-0.42457986648702795,0.19299185469649058,-0.02351962597234598,0.08717909702011302,0.11806976048992775,5.0
0.3882101979185222,-0.4848907732381348,0.15556656259169616,0.0073082848207434254,0.03725142338854233,0.09336325086835467,5.0
0.4143145241548195,-0.5168200649399941,0.22106080330276248,0.005007693023416893,0.10415450170081059,-0.006345183909278691,5.0
0.41804371361714693,-0.495533865297002,0.043290686277314014,0.026173123528940186,0.13810532324132865,-0.03722832766257504,5.0
0.4143145241548195,-0.4742476656540098,0.13685387559465076,0.04273737605176273,0.1261226799864657,-0.035463575437872964,5.0
0.38075181899386673,-0.44586606613002017,0.23977349029980768,0.020191587661867367,0.10814871814895204,-0.05046395858571263,5.0
0.39193938738085016,-0.42103216654652925,0.2584860954075562,0.013289817881840093,0.07619500787728542,-0.04958158247336157,5.0
0.39193938738085016,-0.4032936668440357,0.20234819819501307,-0.0018940781595984512,0.09616607489408911,-0.046052083405021434,5.0
0.40685614523016106,-0.39265056702253964,0.17427916769944538,-0.021679153762099324,0.11913280729177964,-0.010757061780501878,5.0
0.3956685768431776,-0.4032936668440357,0.22106080330276248,-0.024439861989782555,0.11613714495567352,0.04483259697543155,5.0
0.38448100845619476,-0.42103216654652925,0.21170445980423924,-0.0184583273503243,0.036252870037702146,0.04395022086308052,5.0
0.3956685768431776,-0.44586606613002017,0.3520493666141904,-0.0014339598001331525,-0.020664677049749818,0.05277397660552691,5.0
0.38448100845619476,-0.460056865892015,0.29591138751235074,0.019271353748912912,0.003300606415195336,0.06159773234797329,5.0
0.3956685768431776,-0.46360457359514257,0.2678424389060796,0.017430880311051684,0.0052977146392660735,0.04395022086308052,5.0
0.39193938738085016,-0.46360457359514257,0.23977349029980768,0.03721595573817904,-0.008682033794886863,0.053656352717877935,5.0
0.3882101979185222,-0.4494137738331478,0.3052677310108733,0.05424032381449074,0.027265888357750116,0.0483620987343037,5.0
0.39193938738085016,-0.44586606613002017,0.230417146801285,0.07678610659243376,0.015283246625277547,0.053656352717877935,5.0
0.3882101979185222,-0.460056865892015,0.23977349029980768,0.07632599384492078,0.026267335768105127,0.03159696336176197,5.0
0.3956685768431776,-0.45296146601101756,0.19299185469649058,0.08276763965353041,0.09017475631143836,0.03159696336176197,5.0
0.40685614523016106,-0.45296146601101756,0.17427916769944538,0.11681637580615382,0.11414003673160279,0.05630347836439905,5.0
0.3956685768431776,-0.4352229740711529,0.1836355111979679,0.15086511195877722,0.089176202199403,0.11277551457794954,5.0
0.40685614523016106,-0.4174844666060306,0.22106080330276248,0.15270558539663837,0.05822104603977174,0.12424639327638504,5.0
0.4105853346924915,-0.41393676666553186,0.23977349029980768,0.15040499921126427,0.030261549171465865,0.14365865698597985,5.0
0.3956685768431776,-0.44231837395215035,0.2584860954075562,0.17617161611741666,0.04024708382166047,0.1745417993940102,5.0
0.36956425060688025,-0.42457986648702795,0.2678424389060796,0.14488357889768044,0.013286141445987549,0.1507176551226602,5.0
0.38448100845619476,-0.4174844666060306,0.2584860954075562,0.113135440154336,-0.022661785273820557,0.1401291525365757,5.0
0.40685614523016106,-0.37491206732004617,0.2678424389060796,0.10853425655968293,0.015283246625277547,0.14277628087362884,5.0
0.40685614523016106,-0.37491206732004617,0.2678424389060796,0.11819673649650207,0.03725142338854233,0.16130616847087265,5.0
0.3882101979185222,-0.3997459669035371,0.3146240745093967,0.1034729602175169,0.0013034981911245877,0.1507176551226602,5.0
0.38075181899386673,-0.41393676666553186,0.3052677310108733,0.10301283624609926,-0.03264732030461274,0.14365865698597985,5.0
0.38075181899386673,-0.41393676666553186,0.3052677310108733,0.10439319693644752,-0.0526183842766357,0.15601191179676643,5.0
0.3882101979185222,-0.3997459669035371,0.1836355111979679,0.10025212608930742,-0.060606811083357165,0.1674827904952019,5.0
0.3993977663055056,-0.39265056702253964,0.19299185469649058,0.08322776362494805,-0.05062128214212645,0.18865980642949884,5.0
0.40685614523016106,-0.38555516714154225,0.230417146801285,0.06390280375130983,-0.04962272803009106,0.16660041438285086,5.0
0.40685614523016106,-0.38555516714154225,0.230417146801285,0.06528315882970574,-0.06959379809167549,0.15601191179676643,5.0
0.3882101979185222,-0.38910286708204095,0.23977349029980768,0.0685039873459629,-0.08457209759308305,0.20189543735263643,5.0
0.36956425060688025,-0.3820074672010435,0.2584860954075562,0.0593016257686091,-0.11652580481996896,0.1727770471693081,5.0
0.3956685768431776,-0.3961982669630384,0.2678424389060796,0.06712363226756698,-0.048624173918055694,0.1551295356844154,5.0
0.3882101979185222,-0.42812757419015557,0.17427916769944538,0.04457784387767161,-0.06759668986760473,0.13924677642422464,5.0
0.3882101979185222,-0.42457986648702795,0.17427916769944538,0.0188112353894476,-0.09156197637733066,0.053656352717877935,5.0
0.3882101979185222,-0.42457986648702795,0.17427916769944538,0.015590409679166615,-0.024658887408329794,0.03865596687950628,5.0
0.3993977663055056,-0.4316752663680254,0.21170445980423924,0.028473712520290545,-0.09156197637733066,0.01041995070655092,5.0
0.38075181899386673,-0.42457986648702795,0.17427916769944538,0.024332652897055114,-0.04363140335787885,0.006008072919406852,5.0
0.40312695576783303,-0.4352229740711529,0.20234819819501307,0.014670172960236013,-0.027654549744435923,-0.03634595155022399,5.0
0.4143145241548195,-0.4387706662490227,0.15556656259169616,0.006388048101812823,-0.07258946042778157,-0.09105323822960439,5.0
0.38075181899386673,-0.4174844666060306,0.17427916769944538,-0.005575022229344742,-0.051619836254161805,-0.08840610989255128,5.0
0.39193938738085016,-0.4032936668440357,0.15556656259169616,-0.019378563499291006,-0.039637192999298854,-0.0795823487690409,5.0
0.40685614523016106,-0.4174844666060306,0.1087849269883796,-0.0561880066958264,-0.09256053048936601,-0.07605284970070073,5.0
0.4143145241548195,-0.42457986648702795,0.11814127048690229,-0.07229214085918365,-0.12351568360421651,-0.09546510802923158,5.0
0.3956685768431776,-0.44231837395215035,0.15556656259169616,-0.08793615385709942,-0.1424881995537656,-0.11311261951412435,5.0
0.40685614523016106,-0.4316752663680254,0.09007232188063037,-0.07689331884188438,-0.14348675366580094,-0.08928848600490231,5.0
0.39193938738085016,-0.4032936668440357,0.08071597838210787,-0.09483792363712669,-0.12551279182828726,-0.12017162841293266,5.0
0.40685614523016106,-0.41038906672503317,0.1274976139854248,-0.11922417985293093,-0.10054895120652597,-0.09193561434195541,5.0
0.4105853346924915,-0.41038906672503317,0.1274976139854248,-0.13440808010333372,-0.10753882999077358,-0.10428886915274199,5.0
0.4105853346924915,-0.41038906672503317,0.1087849269883796,-0.1431503233212222,-0.10554172176670282,-0.09017086211725338,5.0
0.40312695576783303,-0.42457986648702795,0.043290686277314014,-0.12796642307081943,-0.0556140466127418,-0.08752373378020022,5.0
0.3956685768431776,-0.42812757419015557,0.06200329138506249,-0.13210748269405487,-0.10254605943059673,-0.0654643417335523,5.0
0.40312695576783303,-0.4387706662490227,0.05264694788653999,-0.11646346969613909,-0.07758221880883548,-0.010757061780501878,5.0
0.3956685768431776,-0.460056865892015,0.06200329138506249,-0.09483792363712669,-0.08756775992918917,0.04306784475072946,5.0
0.40685614523016106,-0.45296146601101756,0.07135963488358518,-0.09069686401389125,-0.08557065170511842,0.028067461602889816,5.0
0.4143145241548195,-0.4387706662490227,0.08071597838210787,-0.09943910723177973,-0.03364586832708665,0.05277397660552691,5.0
0.40312695576783303,-0.4352229740711529,0.20234819819501307,-0.09989921997929271,-0.022661785273820557,0.08453949512590829,5.0
0.4143145241548195,-0.4352229740711529,0.08071597838210787,-0.11278252843236897,0.016281800737312915,0.01924370586044343,5.0
0.39193938738085016,-0.41038906672503317,0.08071597838210787,-0.12336523947616637,0.06820658107056395,0.04483259697543155,5.0
0.4105853346924915,-0.4032936668440357,0.09007232188063037,-0.15603362616234612,0.07819211610135617,0.03336171424119805,5.0
0.41804371361714693,-0.3997459669035371,0.09007232188063037,-0.17995975840673278,0.15208506863070087,0.021008456739879507,5.0
0.4105853346924915,-0.39265056702253964,0.09942858348985635,-0.1900823623149696,0.15807639330291307,0.021890832852230546,5.0
0.4143145241548195,-0.39265056702253964,0.11814127048690229,-0.19836448156144046,0.15208506863070087,0.04218546863837844,5.0
0.38448100845619476,-0.41038906672503317,0.1274976139854248,-0.21170791959788665,0.16107205563901916,0.016596579541289316,5.0
0.38448100845619476,-0.42812757419015557,0.11814127048690229,-0.23609416458978624,0.17804746336449748,-0.0010509312709704548,5.0
0.40685614523016106,-0.4352229740711529,0.1087849269883796,-0.2406953369605346,0.18703443819369284,0.03777359076715524,5.0
0.3993977663055056,-0.4352229740711529,0.14621021909317347,-0.2278120453433154,0.174053246916356,-0.0019333060380554961,5.0
0.3993977663055056,-0.4352229740711529,0.11814127048690229,-0.23195310496655078,0.1680619222441438,-0.009874687013416842,5.0
0.39193938738085016,-0.4352229740711529,0.20234819819501307,-0.23517393909476028,0.1371067691292933,-0.013404188772288998,5.0
0.39193938738085016,-0.4352229740711529,0.19299185469649058,-0.24437628383625715,0.13610821501725792,-0.016051314418810112,5.0
0.39193938738085016,-0.4494137738331478,0.15556656259169616,-0.2268917974004801,0.0991617372301952,-0.015168938306459075,5.0
0.4143145241548195,-0.44231837395215035,0.17427916769944538,-0.2006650789707192,0.12112991551585035,0.004243322039970776,5.0
0.40685614523016106,-0.42812757419015557,0.1274976139854248,-0.2034257891275111,0.12911834232257186,-0.04164020284326624,5.0
0.3882101979185222,-0.4174844666060306,0.17427916769944538,-0.18594130269173406,0.06421236614481285,-0.04869921174207455,5.0
0.40312695576783303,-0.41038906672503317,0.14621021909317347,-0.2034257891275111,0.08618054290807763,-0.05399346303511676,5.0
0.40312695576783303,-0.41038906672503317,0.14621021909317347,-0.20204542843716283,0.10615160992488132,-0.019580816177682273,5.0
0.40685614523016106,-0.41038906672503317,0.1836355111979679,-0.1629353959423734,0.16107205563901916,-0.020463192290033298,5.0
0.39193938738085016,-0.45296146601101756,0.1274976139854248,-0.17397822534563614,0.1560792850788423,-0.023110317936554426,5.0
0.39193938738085016,-0.45296146601101756,0.1274976139854248,-0.1716776391602619,0.10914727226098743,-0.022227944514735382,5.0
0.3882101979185222,-0.47779537335713734,0.13685387559465076,-0.13440808010333372,0.07619500787728542,-0.04869921174207455,5.0
0.4143145241548195,-0.4565091737141452,0.13685387559465076,-0.10219981177661926,0.06521092025684821,-0.06369959488991421,5.0
0.4143145241548195,-0.4565091737141452,0.13685387559465076,-0.09851887051284913,0.09716462900612446,-0.013404188772288998,5.0
0.40685614523016106,-0.42812757419015557,0.1836355111979679,-0.10127957505768864,0.013286141445987549,0.028067461602889816,5.0
0.4143145241548195,-0.44586606613002017,0.14621021909317347,-0.11324264679183428,-0.019666122937714428,0.05895060401092016,5.0
0.4143145241548195,-0.44586606613002017,0.14621021909317347,-0.21676920471614794,0.07719356198932081,0.11277551457794954,5.0
0.4143145241548195,-0.48843846541600455,-0.003490949326003101,-0.23655427733729925,0.23196934887703854,0.13571727197482053,5.0
0.4105853346924915,-0.47779537335713734,-0.022203636323049045,-0.18502106597280343,0.2739085972242781,0.1992483197777113,5.0
0.42177290307947496,-0.4316752663680254,0.1274976139854248,-0.12980689650868069,0.16207060975105456,0.24513183457145332,5.0
0.3993977663055056,-0.38910286708204095,0.17427916769944538,-0.1790395329117068,0.05822104603977174,0.25572034791966575,5.0
0.42177290307947496,-0.4032936668440357,0.1274976139854248,-0.19836448156144046,0.11014582637302277,0.22042532494988026,5.0
0.41804371361714693,-0.4352229740711529,0.14621021909317347,-0.17259787587919254,0.09516752382683448,0.19836593290323226,5.0
0.39193938738085016,-0.495533865297002,0.23977349029980768,-0.12796642307081943,0.07220079447392468,0.14718816143538402,5.0
0.38448100845619476,-0.4919861731191322,0.17427916769944538,-0.10265993013608456,0.027265888357750116,0.11277551457794954,5.0
0.37329344006920767,-0.4919861731191322,0.1836355111979679,-0.07321237757811426,-0.003689269324271499,0.1030693773420881,5.0
0.3583766822198974,-0.47779537335713734,0.11814127048690229,-0.03732316798762966,-0.031648766192577386,0.03512646512063412,5.0
0.36210587168222486,-0.4848907732381348,0.15556656259169616,-0.030421396804614313,-0.023660339385855926,-0.014286564884640036,5.0
0.42923128200413097,-0.49908157300012956,0.1274976139854248,-0.0341023408743606,0.002302052303159973,-0.03105170025718177,5.0
0.4329604714664614,-0.4848907732381348,0.24912975190903366,-0.007875612623683192,-0.09256053048936601,0.015714203765254776,5.0
0.3882101979185222,-0.46715226577301233,0.29591138751235074,0.055160560533421346,-0.21338549279178487,0.007772824135159427,5.0
0.36583506114455283,-0.47779537335713734,0.05264694788653999,0.08138729018708683,-0.21138838456771414,0.036008841232985166,5.0
0.36956425060688025,-0.48843846541600455,0.07135963488358518,0.10853425655968293,-0.12651134594032262,0.05453872613969697,5.0
0.3993977663055056,-0.5026292651779994,0.02457799928026807,0.13706157239872258,-0.10554172176670282,0.08189236678885518,5.0
0.4366896609287894,-0.506176972881127,0.09007232188063037,0.14350322943123697,-0.11552725070793357,0.046597346509601616,5.0
0.42923128200413097,-0.4742476656540098,0.07135963488358518,0.0882890599671141,-0.10454316765466747,-0.04340495506796833,5.0
0.3993977663055056,-0.46715226577301233,0.05264694788653999,0.03583560065978312,-0.09056342226529526,-0.09987698859098677,5.0
0.3882101979185222,-0.46715226577301233,0.08071597838210787,0.026633241888405483,-0.03764008477522811,-0.1254658850870389,5.0
0.3956685768431776,-0.4706999734761399,0.1087849269883796,0.04503796223713692,0.07319934858596006,-0.11311261951412435,5.0
0.3882101979185222,-0.460056865892015,0.15556656259169616,0.04319749441122803,0.051231171822695265,-0.14223100969745264,5.0
0.40312695576783303,-0.44586606613002017,0.11814127048690229,0.037676074097644355,0.027265888357750116,-0.12281875674998578,5.0
0.41804371361714693,-0.48134306553500716,0.1087849269883796,0.05101950091018591,0.06521092025684821,-0.12811300266196404,5.0
0.3956685768431776,-0.5345585724051166,0.02457799928026807,0.0680438689864976,0.11114438048505816,-0.14046626823487854,5.0
0.38448100845619476,-0.5345585724051166,0.005865394172519496,0.10715389586933467,0.1311154444570811,-0.12193638063763475,5.0
0.40685614523016106,-0.4848907732381348,0.09942858348985635,0.13061992659011298,0.06920513366020895,-0.05487583914746782,5.0
0.42177290307947496,-0.42812757419015557,0.09007232188063037,0.1320002760565566,0.025268781656069755,0.005125697479688814,5.0
0.42177290307947496,-0.4174844666060306,0.09007232188063037,0.11175507946398776,0.019277461551028656,0.036008841232985166,5.0
0.40312695576783303,-0.4174844666060306,0.07135963488358518,0.08276763965353041,-0.002690715212236142,0.04571497039725059,5.0
0.39193938738085016,-0.4316752663680254,0.05264694788653999,0.04411772551820631,-0.034644422439122004,0.03247933947411301,5.0
0.3956685768431776,-0.41393676666553186,0.06200329138506249,0.03353501447440892,-0.0006936069881653992,0.06953911197806863,5.0
0.3956685768431776,-0.41038906672503317,0.02457799928026807,0.008688637093163197,0.03824997673938251,0.09777512604904587,5.0
0.40685614523016106,-0.42457986648702795,0.02457799928026807,-0.016157737131359363,0.024270229066424752,0.15777666402146848,5.0
0.44414777874229394,-0.42457986648702795,-0.003490949326003101,-0.059868950765572714,0.05722249192773637,0.15689428790911744,5.0
0.4105853346924915,-0.44231837395215035,0.07135963488358518,-0.08655579877870348,0.053228278524375644,0.1330701436377674,5.0
0.4105853346924915,-0.4706999734761399,0.043290686277314014,-0.09207721348033485,0.008293373930591456,0.11189313846559848,5.0
0.3882101979185222,-0.46715226577301233,0.005865394172519496,-0.10312004849554988,0.05023261847185509,0.06953911197806863,5.0
0.38075181899386673,-0.44231837395215035,0.043290686277314014,-0.11784383038648734,0.053228278524375644,0.009537575182753756,5.0
0.3956685768431776,-0.42812757419015557,0.07135963488358518,-0.14591103347801407,0.018278908961383653,-0.04164020284326624,5.0
0.40685614523016106,-0.4565091737141452,0.09942858348985635,-0.14729138294445765,-0.03564297655115739,-0.03105170025718177,5.0
0.3956685768431776,-0.44586606613002017,0.07135963488358518,-0.1555735021909285,-0.06360247341946328,-0.04164020284326624,5.0
0.3956685768431776,-0.44586606613002017,0.07135963488358518,-0.18272046856352467,-0.08457209759308305,-0.03811070377492607,5.0
0.4105853346924915,-0.4494137738331478,0.06200329138506249,-0.19560378262855324,-0.05761115483681251,-0.03722832766257504,5.0
0.4143145241548195,-0.44586606613002017,0.08071597838210787,-0.19836448156144046,-0.051619836254161805,-0.06987622229530746,5.0
0.4143145241548195,-0.44586606613002017,0.08071597838210787,-0.1974442448425098,-0.019666122937714428,-0.10340649304039093,5.0
0.41804371361714693,-0.4316752663680254,0.043290686277314014,-0.1836407052824553,0.010290479109881437,-0.05928771432815901,5.0
0.41804371361714693,-0.4316752663680254,0.043290686277314014,-0.16109492250451216,-0.005686374503561486,-0.052228710810414705,5.0
0.40685614523016106,-0.4352229740711529,0.07135963488358518,-0.14637114622552705,0.024270229066424752,-0.08752373378020022,5.0
0.4143145241548195,-0.4387706662490227,0.09007232188063037,-0.15005209310124948,-0.003689269324271499,-0.06458197100226523,5.0
0.42177290307947496,-0.44231837395215035,0.09007232188063037,-0.129346772537263,-0.004687820391526134,-0.04693445951737246,5.0
0.42177290307947496,-0.46360457359514257,0.08071597838210787,-0.13072713322761126,0.02926299658182086,-0.11752450007587956,5.0
0.4105853346924915,-0.4848907732381348,0.02457799928026807,-0.11508312022969551,0.09616607489408911,-0.14487813803450575,5.0
0.3956685768431776,-0.4742476656540098,0.02457799928026807,-0.07137190414025303,0.11513859084363814,-0.10693599748979508,5.0
0.40685614523016106,-0.48134306553500716,0.09007232188063037,-0.04836600019686854,0.041245637172500654,-0.10605362137744406,5.0
0.4105853346924915,-0.495533865297002,0.07135963488358518,-0.03456245923382591,0.06820658107056395,-0.1687022823058558,5.0
0.4105853346924915,-0.5097246650589967,0.043290686277314014,-0.015697619122641077,0.11813425317974424,-0.15105477082096302,5.0
0.38075181899386673,-0.4919861731191322,0.08071597838210787,0.019731472108378216,0.12013136140381499,-0.10693599748979508,5.0
0.39193938738085016,-0.4706999734761399,0.07135963488358518,0.028013594160825238,0.10115884545426596,-0.17664366731701514,5.0
0.39193938738085016,-0.44586606613002017,0.043290686277314014,0.006388048101812823,0.0052977146392660735,-0.17223177599313194,5.0
0.40312695576783303,-0.41038906672503317,0.05264694788653999,-0.0005137230812025343,-0.045628511581949596,-0.12193638063763475,5.0
0.4255020925418024,-0.4068413667845344,-0.022203636323049045,-0.029041042427712434,-0.051619836254161805,-0.07428809747599865,5.0
0.4143145241548195,-0.4174844666060306,-0.03155989793227502,-0.018918445446729344,0.02926299658182086,-0.031934073679000814,5.0
0.3882101979185222,-0.44586606613002017,-0.003490949326003101,-0.03318210555841807,0.036252870037702146,-0.020463192290033298,5.0
0.39193938738085016,-0.4494137738331478,0.09007232188063037,-0.040543993697910646,-0.024658887408329794,-0.025757446273607536,5.0
0.3993977663055056,-0.42457986648702795,0.043290686277314014,-0.017998209341606015,-0.048624173918055694,0.03777359076715524,5.0
0.4366896609287894,-0.4316752663680254,0.02457799928026807,-0.013397028728302628,-0.04063574711133423,0.05895060401092016,5.0
0.4329604714664614,-0.4494137738331478,0.043290686277314014,0.016510643592121062,-0.046627065693984955,0.12777589772578918,5.0
0.3956685768431776,-0.46715226577301233,0.01522165578174547,0.05700103397128257,-0.002690715212236142,0.11454026680265157,5.0
0.36583506114455283,-0.4565091737141452,-0.012847292824526447,0.052399850376629496,-0.022661785273820557,0.12424639327638504,5.0
0.38448100845619476,-0.4352229740711529,-0.012847292824526447,0.035375482300317826,-0.11353014248386285,0.10836363401619432,5.0
0.42177290307947496,-0.41038906672503317,0.01522165578174547,0.026633241888405483,-0.14448530777783633,0.14277628087362884,5.0
0.46652291551626085,-0.4032936668440357,0.06200329138506249,0.016510643592121062,-0.1634578115482624,0.12512876938873607,5.0
0.4516061576669494,-0.4387706662490227,0.02457799928026807,-0.0023541951160756785,-0.1634578115482624,0.12424639327638504,5.0
0.3882101979185222,-0.44231837395215035,0.02457799928026807,0.052399850376629496,-0.17344335266861602,0.1780713038434144,5.0
0.36210587168222486,-0.42457986648702795,-0.03155989793227502,0.09427059302821077,-0.15347228260703163,0.15777666402146848,5.0
0.36210587168222486,-0.42457986648702795,-0.03155989793227502,0.09565095371855901,-0.10753882999077358,0.16218854458322368,5.0
0.42177290307947496,-0.44231837395215035,-0.06898519003706953,0.04733855403446346,-0.0895648681532599,0.11983451271462985,5.0
0.4329604714664614,-0.41393676666553186,-0.003490949326003101,0.043657607158741,0.025268781656069755,0.10042225438609897,5.0
0.4329604714664614,-0.41393676666553186,-0.003490949326003101,0.06252244867291391,-0.02665599563240053,0.14101152864892674,5.0
0.42923128200413097,-0.42103216654652925,-0.022203636323049045,0.0597617441280744,-0.05062128214212645,0.12777589772578918,5.0
0.3993977663055056,-0.4494137738331478,-0.012847292824526447,0.038136192457109655,0.03924853047082029,0.11189313846559848,5.0
0.36210587168222486,-0.41038906672503317,-0.05027258492932021,0.013749936241305393,-0.04462995746991421,0.0898337464189505,5.0
0.40685614523016106,-0.3997459669035371,-0.003490949326003101,0.013289817881840093,0.03725142338854233,0.03424408900828309,5.0
0.4516061576669494,-0.44586606613002017,-0.022203636323049045,0.015590409679166615,0.0013034981911245877,-0.018698442755863232,5.0
0.42177290307947496,-0.4848907732381348,-0.03155989793227502,0.024332652897055114,-0.023660339385855926,0.016596579541289316,5.0
0.3882101979185222,-0.45296146601101756,-0.012847292824526447,0.04825879075339408,-0.07858077292087087,0.08630424735061037,5.0
0.38448100845619476,-0.44231837395215035,0.03393434277879076,0.03583560065978312,-0.06959379809167549,0.060715356235622235,5.0
0.3956685768431776,-0.42103216654652925,0.05264694788653999,0.004547574663951591,-0.03764008477522811,0.023655583731666624,5.0
0.4255020925418024,-0.46715226577301233,-0.06898519003706953,0.015590409679166615,0.053228278524375644,-0.008109934788714766,5.0
0.42177290307947496,-0.4848907732381348,-0.1344794716927831,0.03675583737871374,0.06720802695852858,0.02453795849875166,5.0
0.40685614523016106,-0.44231837395215035,-0.08769787703411473,-0.005575022229344742,0.05822104603977174,0.006008072919406852,5.0
0.3770226295315387,-0.36781666743904873,0.06200329138506249,-0.07505284540402317,0.04623840449759797,0.06953911197806863,5.0
0.3882101979185222,-0.38555516714154225,0.06200329138506249,-0.04422493776765694,0.03725142338854233,0.05189160049317586,5.0
0.42177290307947496,-0.44231837395215035,0.08071597838210787,-0.009716084658556336,0.0003049471238699921,-0.016051314418810112,5.0
0.3956685768431776,-0.4352229740711529,-0.03155989793227502,-0.006495257545287273,-0.007683479682851506,0.027185085490538777,5.0
0.38075181899386673,-0.42812757419015557,-0.05962892842784347,-0.03962375838196812,0.03924853047082029,0.05012684826847376,5.0
0.3993977663055056,-0.4565091737141452,-0.1064104821418633,-0.06262966092236454,0.11114438048505816,0.0827747429012062,5.0
0.42177290307947496,-0.47779537335713734,-0.022203636323049045,0.005467811382882205,0.13910387735336405,0.012184701754145247,5.0
0.40685614523016106,-0.5274631725241192,0.043290686277314014,0.0616022119539833,0.1131414826195674,0.00071381960846562,5.0
0.3956685768431776,-0.46715226577301233,-0.05962892842784347,0.08644858652925287,0.11414003673160279,0.04483259697543155,5.0
0.40685614523016106,-0.4352229740711529,0.01522165578174547,0.07356528368812894,0.09616607489408911,0.03865596687950628,5.0
0.4255020925418024,-0.4316752663680254,-0.06898519003706953,0.05838138904967848,0.13211399856911646,0.028949836369974856,5.0
0.42177290307947496,-0.4174844666060306,-0.16254846124370337,0.014210054600770695,0.20301129180713579,0.03865596687950628,5.0
0.40685614523016106,-0.42812757419015557,-0.1064104821418633,-0.016157737131359363,0.23696210725809239,0.009537575182753756,5.0
0.3770226295315387,-0.42457986648702795,0.02457799928026807,-0.045145174486587544,0.14010243146539939,0.02012608130016147,5.0
0.38075181899386673,-0.4352229740711529,0.13685387559465076,0.008228518733697879,0.089176202199403,0.06689198364101552,5.0
0.3956685768431776,-0.4494137738331478,0.05264694788653999,0.11359555290184899,0.08118777539268154,0.08189236678885518,5.0
0.4255020925418024,-0.44231837395215035,-0.022203636323049045,0.09749142715642024,0.10914727226098743,0.06336248457267535,5.0
0.4329604714664614,-0.4565091737141452,-0.012847292824526447,0.005467811382882205,0.16606481402007306,-0.0036980582627575754,5.0
0.40685614523016106,-0.44586606613002017,0.05264694788653999,-0.02397974398106427,0.14908940629459475,0.01306707727794241,5.0
0.3956685768431776,-0.42457986648702795,0.07135963488358518,0.023872534537589817,0.060218152741452105,0.07218623493405774,5.0
0.36956425060688025,-0.4848907732381348,0.05264694788653999,0.0882890599671141,-0.034644422439122004,0.021890832852230546,5.0
0.36956425060688025,-0.4919861731191322,-0.06898519003706953,0.10393307296502988,-0.01267625024302835,0.06248010846032432,5.0
0.3770226295315387,-0.49908157300012956,-0.003490949326003101,0.09657119043748963,0.07120224036188931,0.05277397660552691,5.0
0.4255020925418024,-0.48843846541600455,0.05264694788653999,0.08598847378173989,0.0941689697147991,0.0801276145641531,5.0
0.46652291551626085,-0.5026292651779994,0.03393434277879076,0.15040499921126427,0.09616607489408911,0.04395022086308052,5.0
0.44041885039111683,-0.460056865892015,0.03393434277879076,0.20423880798503885,0.06720802695852858,0.036008841232985166,5.0
0.40685614523016106,-0.44586606613002017,0.005865394172519496,0.2093001155511095,-0.06959379809167549,0.0254203346111027,5.0
0.3583766822198974,-0.4742476656540098,0.09007232188063037,0.19549657599105497,-0.09056342226529526,0.10042225438609897,5.0
0.3993977663055056,-0.4848907732381348,-0.03155989793227502,0.18997515567747117,-0.07258946042778157,0.12865827383814024,5.0
0.40685614523016106,-0.4848907732381348,-0.04091624143079762,0.24012802879942804,-0.053616938388671063,0.12512876938873607,5.0
0.4143145241548195,-0.4032936668440357,-0.08769787703411473,0.24518931391768936,0.03425576333602178,0.11189313846559848,5.0
0.40685614523016106,-0.4032936668440357,-0.08769787703411473,0.171110308551346,0.042244190713639634,0.0827747429012062,5.0
0.44414777874229394,-0.3961982669630384,-0.06898519003706953,0.06758375062703229,0.10914727226098743,0.08365711901355724,5.0
0.4329604714664614,-0.41393676666553186,-0.22804274289941762,0.02157194274026328,0.17605035514042675,0.0254203346111027,5.0
0.3993977663055056,-0.4174844666060306,-0.1719047637975778,-0.007415494264217886,0.10415450170081059,0.0368912173453362,5.0
0.3583766822198974,-0.3961982669630384,0.02457799928026807,-0.038243403303572183,0.008293373930591456,0.05277397660552691,5.0
0.37329344006920767,-0.38555516714154225,0.1274976139854248,-0.04376481940819163,-0.06160536519539254,0.11718738437757674,5.0
0.42177290307947496,-0.4352229740711529,0.09942858348985635,-0.0773534372013497,-0.011677696130992957,0.1030693773420881,5.0
0.44041885039111683,-0.42812757419015557,-0.11576682564038655,-0.07873379227974563,0.08318488057197153,0.06159773234797329,5.0
0.42177290307947496,-0.44231837395215035,-0.05962892842784347,-0.08931650893549534,0.09516752382683448,0.0801276145641531,5.0
0.38448100845619476,-0.44586606613002017,-0.022203636323049045,-0.07275225921864896,0.04523985105160838,0.1374820241995226,5.0
0.38448100845619476,-0.44586606613002017,-0.022203636323049045,-0.08563556205977288,0.1271212340985011,0.14101152864892674,5.0
0.42177290307947496,-0.5026292651779994,-0.03155989793227502,-0.0686111939834612,0.2209852536446495,0.10748125790384327,5.0
0.40685614523016106,-0.5381062801082441,-0.012847292824526447,0.036295719019248426,0.17804746336449748,0.08365711901355724,5.0
0.3956685768431776,-0.5274631725241192,0.02457799928026807,0.057921270690213175,0.1371067691292933,0.0730686110464088,5.0
0.4143145241548195,-0.4352229740711529,0.07135963488358518,0.052399850376629496,0.10515305581284592,0.06953911197806863,5.0
0.4143145241548195,-0.4352229740711529,0.07135963488358518,0.03031418595815176,0.10914727226098743,0.08100999067650412,5.0
0.44041885039111683,-0.45296146601101756,0.05264694788653999,0.052399850376629496,0.07220079447392468,0.053656352717877935,5.0
0.4329604714664614,-0.5203677726431217,0.005865394172519496,0.03859631081657496,0.14209953359990868,0.01836133042072539,5.0
0.40685614523016106,-0.5381062801082441,-0.04091624143079762,0.04135702097336681,0.20301129180713579,0.013949452885818699,5.0
0.36956425060688025,-0.460056865892015,0.02457799928026807,0.07218492860973301,0.19202720875386972,0.0827747429012062,5.0
0.3993977663055056,-0.42457986648702795,0.1274976139854248,0.036295719019248426,0.174053246916356,0.10659888179149225,5.0
0.4143145241548195,-0.42812757419015557,0.09942858348985635,-0.003734550194471595,0.16606481402007306,0.09777512604904587,5.0
0.40312695576783303,-0.46715226577301233,0.043290686277314014,-0.03962375838196812,0.15508073096680697,0.026302710723453738,5.0
0.38075181899386673,-0.4919861731191322,0.043290686277314014,-0.009716084658556336,0.16906047635617918,0.012184701754145247,5.0
0.3770226295315387,-0.506176972881127,0.1274976139854248,0.04411772551820631,0.1940243169779404,0.05189160049317586,5.0
0.42177290307947496,-0.46715226577301233,0.09007232188063037,0.06390280375130983,0.1680619222441438,0.05277397660552691,5.0
0.42923128200413097,-0.4706999734761399,0.1087849269883796,0.017890998670516984,0.08018922128064615,-0.023110317936554426,5.0
0.4143145241548195,-0.4919861731191322,0.08071597838210787,0.015130291319701313,0.05622393933809137,-0.06987622229530746,5.0
0.3882101979185222,-0.5097246650589967,0.09007232188063037,0.019271353748912912,0.11613714495567352,-0.057522962103456934,5.0
0.38075181899386673,-0.4848907732381348,0.05264694788653999,0.041817139332832105,0.15208506863070087,-0.023110317936554426,5.0
0.39193938738085016,-0.47779537335713734,0.07135963488358518,0.04457784387767161,0.10215739956630131,-0.04340495506796833,5.0
0.40312695576783303,-0.4352229740711529,0.043290686277314014,0.02755347580135993,0.1940243169779404,-0.008109934788714766,5.0
0.36956425060688025,-0.4352229740711529,0.17427916769944538,0.0597617441280744,-0.10454316765466747,-0.07252335063236061,5.0
0.42177290307947496,-0.4742476656540098,0.043290686277314014,0.0680438689864976,0.12911834232257186,-0.09458273191688057,5.0
0.39193938738085016,-0.4706999734761399,0.02457799928026807,0.03721595573817904,0.15907494741494846,-0.058405338215807956,5.0
0.38075181899386673,-0.44586606613002017,0.02457799928026807,-0.003734550194471595,0.18903154641776357,-0.07869997803775385,5.0
0.39193938738085016,-0.44231837395215035,0.09942858348985635,-0.011096438333964174,0.14309808771194402,-0.10164174081568887,5.0
0.4143145241548195,-0.45296146601101756,0.15556656259169616,-0.004654785510414124,0.15208506863070087,-0.11046549117707125,5.0
0.41804371361714693,-0.4565091737141452,0.20234819819501307,0.005467811382882205,0.07819211610135617,-0.07428809747599865,5.0
0.4105853346924915,-0.46715226577301233,0.15556656259169616,0.015130291319701313,0.06920513366020895,-0.034581199325521936,5.0
0.4143145241548195,-0.4848907732381348,0.1649229060902194,0.013289817881840093,0.09017475631143836,-0.014286564884640036,5.0
0.4105853346924915,-0.4848907732381348,0.1274976139854248,0.028933830879755852,0.13211399856911646,0.006008072919406852,5.0
0.3882101979185222,-0.4706999734761399,0.08071597838210787,0.07540575712599017,0.10415450170081059,0.04306784475072946,5.0
0.3882101979185222,-0.47779537335713734,0.15556656259169616,0.14028239530302744,-0.014673358467099063,0.06424485530396241,5.0
0.36956425060688025,-0.5097246650589967,0.20234819819501307,0.17433114267955555,-0.09855184298245526,-0.0010509312709704548,5.0
0.40685614523016106,-0.5274631725241192,0.1087849269883796,0.17663172886492964,-0.1145286965958982,0.02983221248232589,5.0
0.4329604714664614,-0.4919861731191322,0.043290686277314014,0.19549657599105497,-0.06460102753149861,0.04218546863837844,5.0
0.40685614523016106,-0.46715226577301233,0.09007232188063037,0.2157417613597191,-0.053616938388671063,0.06336248457267535,5.0
0.36210587168222486,-0.48843846541600455,0.1836355111979679,0.23644708192370553,-0.13449976665748262,0.028949836369974856,5.0
0.3956685768431776,-0.5168200649399941,0.2678424389060796,0.2562321545448568,-0.06959379809167549,0.046597346509601616,5.0
0.44041885039111683,-0.5026292651779994,0.22106080330276248,0.2502506214837602,-0.07558511058476476,-0.026639822385958592,5.0
0.4329604714664614,-0.45296146601101756,0.19299185469649058,0.18767456949209707,-0.025657441520365185,-0.007227560021629728,5.0
0.36210587168222486,-0.37845976726054487,0.17427916769944538,0.13154016330904358,-0.09455762653431378,0.05012684826847376,5.0
0.3546474927575694,-0.38555516714154225,0.17427916769944538,0.11819673649650207,-0.021663231161785177,0.13836440031187364,5.0
0.41804371361714693,-0.3713643673795475,0.11814127048690229,0.13246038880406957,0.014284695558022918,0.1877774303171478,5.0
0.4590645365916054,-0.37491206732004617,0.01522165578174547,0.08046705346815619,-0.008682033794886863,0.20101307200241336,5.0
0.44414777874229394,-0.39265056702253964,-0.003490949326003101,-0.014777383105204503,-0.02665599563240053,0.21248395070084888,5.0
0.40685614523016106,-0.4174844666060306,0.03393434277879076,-0.12750631032330645,0.04923406474041731,0.09689274993669482,5.0
0.36956425060688025,-0.3961982669630384,0.02457799928026807,-0.08287485751493337,0.1940243169779404,0.0730686110464088,5.0
0.3956685768431776,-0.3961982669630384,0.06200329138506249,-0.04422493776765694,0.19602142520201116,0.03247933947411301,5.0
0.4255020925418024,-0.41393676666553186,0.09942858348985635,-0.10772123209020296,0.16606481402007306,0.03777359076715524,5.0
0.44041885039111683,-0.4352229740711529,0.043290686277314014,-0.20756684875074646,0.16706336813210845,-0.0036980582627575754,5.0
0.3956685768431776,-0.44586606613002017,0.02457799928026807,-0.259100071339147,0.2060069541432419,-0.028404571920128657,5.0
0.36210587168222486,-0.44586606613002017,0.043290686277314014,-0.2144686185307737,0.10914727226098743,-0.04869921174207455,5.0
0.36956425060688025,-0.4742476656540098,0.1087849269883796,-0.17765917222135855,0.07519645376525004,-0.07781760192540281,5.0
0.4143145241548195,-0.49908157300012956,0.06200329138506249,-0.22459121121510586,0.14309808771194402,-0.06458197100226523,5.0
0.3956685768431776,-0.5274631725241192,0.005865394172519496,-0.18548117872031641,0.1440966418239794,-0.10693599748979508,5.0
0.3882101979185222,-0.5168200649399941,0.21170445980423924,-0.12888665978975006,0.1600735015269838,-0.16781990619350476,5.0
0.36956425060688025,-0.5239154803462494,0.23977349029980768,-0.1173837064150697,0.14908940629459475,-0.1616432734070475,5.0
0.4255020925418024,-0.5452016799892415,0.22106080330276248,-0.09483792363712669,-0.027654549744435923,-0.07869997803775385,5.0
0.40685614523016106,-0.5345585724051166,0.2771987824046021,-0.05434753606394135,0.018278908961383653,-0.057522962103456934,5.0
0.36956425060688025,-0.5274631725241192,0.24912975190903366,0.019271353748912912,0.051231171822695265,-0.05134633469806365,5.0
0.36956425060688025,-0.5274631725241192,0.24912975190903366,0.06252244867291391,0.0042991605272307215,-0.04252257895561727,5.0
0.4143145241548195,-0.45296146601101756,0.1087849269883796,0.056080797252351954,0.11214293459709353,-0.07693522581305179,5.0
0.4516061576669494,-0.38555516714154225,0.17427916769944538,0.009148755452628493,0.1650662599080377,-0.12017162841293266,5.0
0.4516061576669494,-0.38555516714154225,0.17427916769944538,-0.04422493776765694,0.14209953359990868,-0.10340649304039093,5.0
0.40685614523016106,-0.38555516714154225,0.043290686277314014,-0.04146423041684126,0.14509519593601475,-0.13781913989782543,5.0
0.36956425060688025,-0.44586606613002017,0.13685387559465076,-0.013397028728302628,0.16107205563901916,-0.196055920264482,5.0
0.36956425060688025,-0.44586606613002017,0.13685387559465076,0.0017868673131359216,0.20201273769510045,-0.19340880268955687,5.0
0.36583506114455283,-0.47779537335713734,0.22106080330276248,0.04273737605176273,0.1600735015269838,-0.09634748414158263,5.0
0.36210587168222486,-0.4352229740711529,0.3520493666141904,0.08276763965353041,0.05622393933809137,-0.025757446273607536,5.0
0.3583766822198974,-0.4316752663680254,0.3988310022175075,0.07080457353133711,0.011289033221916801,-0.012521812659937959,5.0
0.39193938738085016,-0.460056865892015,0.24912975190903366,0.07908670400171262,0.07419789965321467,-0.020463192290033298,5.0
0.4255020925418024,-0.4742476656540098,0.23977349029980768,0.06666351390810167,0.15208506863070087,-0.04252257895561727,5.0
0.44414777874229394,-0.48134306553500716,0.15556656259169616,0.09150988287141891,0.24395198604233997,-0.04252257895561727,5.0
0.41804371361714693,-0.45296146601101756,0.1274976139854248,0.14534370286909812,0.2798999218964903,-0.01163943654758692,5.0
0.3546474927575694,-0.41038906672503317,0.22106080330276248,0.14534370286909812,0.28189700576231513,0.039538342991857316,5.0
0.36210587168222486,-0.37845976726054487,0.17427916769944538,0.1177366125250844,0.30785941267523476,0.040420719104208365,5.0
0.4105853346924915,-0.3713643673795475,0.1274976139854248,0.07402540204759427,0.31984203766141317,0.04218546863837844,5.0
0.42177290307947496,-0.3465304639147421,0.19299185469649058,0.025252886810009572,0.18603588408165747,0.06512723141631344,5.0
0.3956685768431776,-0.3571735637362382,0.3614056282234164,-0.007875612623683192,0.11114438048505816,0.03159696336176197,5.0
0.3770226295315387,-0.4068413667845344,0.3146240745093967,-0.005575022229344742,0.182041667633516,-0.03369882590370289,5.0
0.3956685768431776,-0.4352229740711529,0.22106080330276248,0.009608873812093794,0.20400984591917115,-0.0751704735883497,5.0
0.4143145241548195,-0.4174844666060306,0.09007232188063037,0.017890998670516984,0.19801853342608192,-0.12811300266196404,5.0
0.4143145241548195,-0.3961982669630384,0.22106080330276248,0.004547574663951591,0.174053246916356,-0.07693522581305179,5.0
0.38075181899386673,-0.4032936668440357,0.389474658718985,-0.0018940781595984512,0.1680619222441438,0.002478571160534696,5.0
0.36210587168222486,-0.3997459669035371,0.3988310022175075,0.024332652897055114,0.14908940629459475,-0.008992310901065805,5.0
0.37329344006920767,-0.38555516714154225,0.2771987824046021,0.016510643592121062,0.04723695803873695,-0.031934073679000814,5.0
0.40312695576783303,-0.33233966415274735,0.2678424389060796,-0.07597308212295377,0.07120224036188931,-0.022227944514735382,5.0
0.40312695576783303,-0.3571735637362382,0.21170445980423924,-0.08517544370030757,0.002302052303159973,0.0033609466002527343,5.0
0.4143145241548195,-0.38910286708204095,0.15556656259169616,-0.05710824341475702,0.008293373930591456,0.04483259697543155,5.0
0.3956685768431776,-0.42457986648702795,0.1836355111979679,-0.04238446573278379,0.053228278524375644,0.05630347836439905,5.0
0.3882101979185222,-0.41038906672503317,0.22106080330276248,-0.004194667150948819,0.07220079447392468,0.10218700122973706,5.0
0.3956685768431776,-0.44231837395215035,0.24912975190903366,0.04733855403446346,0.05222972517353545,0.10218700122973706,5.0
0.40685614523016106,-0.44231837395215035,0.230417146801285,-0.0014339598001331525,0.06920513366020895,0.046597346509601616,5.0
0.3993977663055056,-0.460056865892015,0.22106080330276248,-0.02121903575338104,0.03425576333602178,0.02012608130016147,5.0
0.3993977663055056,-0.46715226577301233,0.1836355111979679,0.0017868673131359216,0.05422683187521583,0.03247933947411301,5.0
0.3770226295315387,-0.41038906672503317,0.230417146801285,-0.003734550194471595,0.024270229066424752,0.004243322039970776,5.0
0.3770226295315387,-0.3997459669035371,0.2678424389060796,-0.029041042427712434,0.0052977146392660735,-0.008109934788714766,5.0
0.3956685768431776,-0.38555516714154225,0.22106080330276248,-0.0695314307023918,0.008293373930591456,-0.046052083405021434,5.0
0.4329604714664614,-0.38555516714154225,0.17427916769944538,-0.09161709512086955,0.09516752382683448,-0.08311185321844503,5.0
0.4105853346924915,-0.38555516714154225,0.22106080330276248,-0.07689331884188438,0.1261226799864657,-0.07781760192540281,5.0
0.36210587168222486,-0.4174844666060306,0.2678424389060796,-0.04422493776765694,0.1311154444570811,-0.046052083405021434,5.0
0.3546474927575694,-0.3961982669630384,0.3426930231156679,-0.02720057039283929,0.02926299658182086,-0.010757061780501878,5.0
0.37329344006920767,-0.3820074672010435,0.3333366796171452,-0.02628033437540271,-0.07258946042778157,-0.00016855515861941882,5.0
0.38075181899386673,-0.39265056702253964,0.3333366796171452,0.006848166461278124,-0.1175243589320043,-0.0028156821504065344,5.0
0.39193938738085016,-0.41038906672503317,0.24912975190903366,0.035375482300317826,-0.05761115483681251,0.03159696336176197,5.0
0.3956685768431776,-0.41393676666553186,0.21170445980423924,0.012829699522374775,0.030261549171465865,0.053656352717877935,5.0
0.3882101979185222,-0.4174844666060306,0.2678424389060796,0.013749936241305393,-0.020664677049749818,0.05630347836439905,5.0
0.3993977663055056,-0.4174844666060306,0.2678424389060796,0.06942421845294118,-0.03764008477522811,0.09689274993669482,5.0
0.42923128200413097,-0.4174844666060306,0.1274976139854248,0.08460811309139164,0.024270229066424752,0.15336478345971333,5.0
0.4143145241548195,-0.38555516714154225,0.09007232188063037,0.11405567687326662,0.06421236614481285,0.20542494180204057,5.0
0.38075181899386673,-0.3607212675580514,0.1649229060902194,0.06758375062703229,-0.018667568825679073,0.15777666402146848,5.0
0.36583506114455283,-0.3287919642122486,0.13685387559465076,-0.035022577593291214,-0.10154750531856137,0.10659888179149225,5.0
