acc_x,acc_y,acc_z,gyro_x,gyro_y,gyro_z,activity
-0.736535300339097,0.10909431640832146,2.5768956402615775,0.1526469001620754,0.00506108696558948,0.016112398713853938,0.0
-0.7332772357792207,0.10562459792294468,2.560417468732867,0.15571001268924378,-0.0017063779477325101,0.028202876078930825,0.0
-0.736535300339097,0.12297319794182826,2.5768956402615775,0.14958378763490704,0.028183256746563815,0.03626319391695811,0.0
-0.7463094940187261,0.10215487943756793,2.5727760973794,0.14958378763490704,0.05299728673724135,0.00872377506905711,0.0
-0.7463094940187261,0.10215487943756793,2.5727760973794,0.14827103046041237,0.09980558199523483,-0.02351749602703689,0.0
-0.736535300339097,0.09174572398143761,2.6016128975546433,0.14214480807465008,0.07893922812000849,-0.0006799294273288641,0.0
-0.736535300339097,0.09174572398143761,2.6016128975546433,0.11370163900239356,0.05920079939373414,0.020814250962046928,0.0
-0.736535300339097,0.09868516095219114,2.6016128975546433,0.10713783044703731,-0.03949138400356799,0.00872377506905711,0.0
-0.7495675585786026,0.10909431640832146,2.5768956402615775,0.12420373108981889,-0.06261355184998356,0.025516103466255064,0.0
-0.7495675585786026,0.10909431640832146,2.5768956402615775,0.12901719096393757,-0.0033982450358669004,0.049025363427144315,0.0
-0.7332772357792207,0.09868516095219114,2.5892542689081104,0.14914620546817475,0.003933175573499876,0.040293353572015286,0.0
-0.7495675585786026,0.11603376097107469,2.5768956402615775,0.14214480807465008,-0.0462588478421351,0.03559150081179201,0.0
-0.736535300339097,0.14379150885408887,2.6098519833189986,0.10144919689944346,-0.07784034532554632,0.019470864751714726,0.0
-0.736535300339097,0.14379150885408887,2.6098519833189986,0.08482088242625585,-0.028776233302000943,0.026859489676587266,0.0
-0.7397933648989733,0.1299126349125818,2.5727760973794,0.06512945809447433,-0.02934018813824184,0.01879917215857891,0.0
-0.7560835736364396,0.1125640348936982,2.6222106119655315,0.07606913902006808,-0.04907862460275129,0.038949966337622516,0.0
-0.7495675585786026,0.09521544246681436,2.6222106119655315,0.10801300545479971,-0.05528213296022457,0.03559150081179201,0.0
-0.7495675585786026,0.09521544246681436,2.6180910690833543,0.1001364353885153,-0.050206535135036985,0.042308432375483304,0.0
-0.7495675585786026,0.09868516095219114,2.6139715262011762,0.06294152324364281,-0.04118325001694751,0.0369348875341545,0.0
-0.7495675585786026,0.09174572398143761,2.6263301548477096,0.05812806336952412,-0.0028342893398221078,0.04768197824087268,0.0
-0.7560835736364396,0.09868516095219114,2.6139715262011762,0.08175777256766194,0.016904149704099043,0.03088964881961416,0.0
-0.7560835736364396,0.10215487943756793,2.6263301548477096,0.10976335413603726,-0.002270333643777296,0.03491980770662591,0.0
-0.7528256231384789,0.09868516095219114,2.6016128975546433,0.1513341376504318,-0.02144481355243806,0.026187796571421167,0.0
-0.7560835736364396,0.10562459792294468,2.581015183143755,0.15571001268924378,-0.033851830697286575,0.06313092119578387,0.0
-0.7658577673160689,0.11603376097107469,2.5686565544972217,0.11763992386874987,-0.033851830697286575,0.05238382946500511,0.0
-0.7560835736364396,0.11603376097107469,2.560417468732867,0.09313503999642146,-0.01862503679182186,0.030217955586440488,0.0
-0.7560835736364396,0.1264429088352053,2.5686565544972217,0.1001364353885153,0.0073169063105530605,0.030217955586440488,0.0
-0.7430514294588496,0.11950347186445173,2.5892542689081104,0.10407471992129978,-0.016369215727250468,0.03223303502994636,0.0
-0.7495675585786026,0.10562459792294468,2.5851347260259327,0.12070303372734378,-0.04005533926971084,0.059100761540726694,0.0
-0.7560835736364396,0.10562459792294468,2.6222106119655315,0.11545198768363112,-0.04061929475080466,0.06245922757858747,0.0
-0.7528256231384789,0.1125640348936982,2.646927869258598,0.103199545580681,-0.04005533926971084,0.06648938723364464,0.0
-0.7495675585786026,0.08827600549606084,2.6139715262011762,0.07563155151618689,-0.0462588478421351,0.0940288050574851,0.0
-0.7528256231384789,0.08827600549606084,2.6016128975546433,0.07256844032330574,-0.019752948183911465,0.05574229550286589,0.0
-0.7495675585786026,0.08480628701068404,2.5974933546724657,0.08088259755989954,-0.016933171423295278,0.04768197824087268,0.0
-0.7593416381963162,0.09868516095219114,2.5768956402615775,0.09444780150734963,0.02141578839402623,0.021485944579243316,0.0
-0.7625997027561926,0.09174572398143761,2.5892542689081104,0.11807751137263106,0.028183256746563815,0.012082240082857331,0.0
-0.7723738964358218,0.09521544246681436,2.6180910690833543,0.1285796034600564,0.031566984044401405,0.006708694217467943,0.0
-0.7625997027561926,0.08827600549606084,2.6098519833189986,0.13689376069665019,0.05017751513544856,-0.010083635971836003,0.0
-0.7788900255555747,0.10215487943756793,2.593373811790288,0.14214480807465008,0.002805264181410272,0.010738853872525128,0.0
-0.7756319609956983,0.09521544246681436,2.6016128975546433,0.1443327429254816,-0.03159600963271519,0.006708694217467943,0.0
-0.7723738964358218,0.08827600549606084,2.5892542689081104,0.1320803008225315,-0.038363473363806806,0.03424811460145981,0.0
-0.7593416381963162,0.09868516095219114,2.5645370116150445,0.127704428452294,-0.03159600963271519,0.03626319391695811,0.0
-0.7658577673160689,0.1125640348936982,2.581015183143755,0.12332855875063096,-0.007345931468964896,0.0496970570443407,0.0
-0.7658577673160689,0.10562459792294468,2.6139715262011762,0.1408320455630065,0.019159969049062645,0.05372721669939789,0.0
-0.7658577673160689,0.1125640348936982,2.6139715262011762,0.12201579623898737,-0.012421529294152493,0.06716108085084105,0.0
-0.7756319609956983,0.10215487943756793,2.6098519833189986,0.11063852780951242,-0.02088085785639326,0.04365181858581551,0.0
-0.7723738964358218,0.09868516095219114,2.5851347260259327,0.08482088242625585,0.002805264181410272,0.040293353572015286,0.0
-0.7691158318759452,0.09174572398143761,2.581015183143755,0.06644222060611793,0.015212282615964648,0.03424811460145981,0.0
-0.7658577673160689,0.08827600549606084,2.560417468732867,0.050689081140692725,0.02141578839402623,0.030217955586440488,0.0
-0.7658577673160689,0.08480628701068404,2.5974933546724657,0.053752190999286624,-0.007909887165009689,0.023501023894741617,0.0
-0.7625997027561926,0.08827600549606084,2.6180910690833543,0.09926126088111062,0.01013668479077706,0.015440706120718118,0.0
-0.7658577673160689,0.07439713155455374,2.6057324404368214,0.12464131859370008,0.08683460786463566,0.009395466638132354,0.0
-0.7658577673160689,0.08480628701068404,2.6016128975546433,0.13470582584581867,0.0016773527893206742,0.020814250962046928,0.0
-0.7625997027561926,0.12297319794182826,2.6057324404368214,0.11807751137263106,-0.0451309373098494,0.022829330789575518,0.0
-0.7658577673160689,0.12297319794182826,2.6263301548477096,0.12420373108981889,-0.027648321909911344,0.00872377506905711,0.0
-0.7528256231384789,0.12297319794182826,2.6139715262011762,0.08525846993013705,0.025363478266339824,-0.001351623044525266,0.0
-0.7463094940187261,0.09174572398143761,2.5727760973794,0.046313206101880756,0.10149744220493803,-0.0006799294273288641,0.0
-0.7528256231384789,0.09174572398143761,2.581015183143755,0.031435241644217925,0.1392824532046459,0.007380387834664337,0.0
-0.7691158318759452,0.10562459792294468,2.6263301548477096,0.059440825881167704,0.14210222480643872,0.020814250962046928,0.0
-0.7756319609956983,0.09521544246681436,2.6263301548477096,0.07081809297635543,0.1657883502834578,0.027531182909760938,0.0
-0.7788900255555747,0.10562459792294468,2.6716448381086666,0.08088259755989954,0.13307894742658433,0.01879917215857891,0.0
-0.7658577673160689,0.1125640348936982,2.655166955022953,0.10101160972913407,0.0738636337340365,0.0006634557589427556,0.0
-0.7886642192352039,0.1125640348936982,2.6592864979051307,0.11195129032115601,0.009572729094732262,0.011410547489721515,0.0
-0.8016964774747094,0.09868516095219114,2.646927869258598,0.09882367371080122,-0.08799154097592149,0.015440706120718118,0.0
-0.8016964774747094,0.09868516095219114,2.646927869258598,0.09838608645709888,-0.15904991052854772,0.03088964881961416,0.0
-0.8114705570924229,0.1264429088352053,2.6757643809908447,0.13908169821605618,-0.13367192484182538,0.00872377506905711,0.0
-0.7951803483549565,0.13338234580595884,2.6180910690833543,0.16752486461973823,-0.1624336447048165,-0.011427019109986501,0.0
-0.782148090115451,0.1299126349125818,2.6180910690833543,0.1727759146663126,-0.1703290244494437,0.01879917215857891,0.0
-0.7788900255555747,0.13338234580595884,2.6180910690833543,0.1281420159561752,-0.14833475918212774,0.020814250962046928,0.0
-0.7788900255555747,0.1299126349125818,2.64280832637642,0.0874464061152558,-0.1669452902731749,0.021485944579243316,0.0
-0.7984384129148331,0.12297319794182826,2.6881230096373776,0.10232437124006223,-0.21826522422109557,0.012753932675993146,0.0
-0.7691158318759452,0.1299126349125818,2.7828724959274638,0.1526469001620754,-0.31470157258201287,0.005365309031196316,0.0
-0.7658577673160689,0.1125640348936982,2.704601181166088,0.151771725154313,-0.4737369825686093,0.019470864751714726,0.0
-0.7397933648989733,0.10562459792294468,2.6139715262011762,0.21872257055094463,-0.420161212079647,0.038949966337622516,0.0
-0.6387935916666362,0.16460981976634947,2.646927869258598,0.2651068139394579,-0.4889637657265253,0.05171213789592987,0.0
-0.4139875932828263,0.19236756764936364,2.770513867280931,0.22528637777201366,-0.5521267486560931,0.14776425756701547,0.0
-0.4139875932828263,0.19236756764936364,2.770513867280931,-0.035078010911383566,-0.7968833969277742,0.3324798876012378,0.0
-0.22827825555561795,0.1368520718833353,2.931175751242863,-0.3059444996879295,-1.1527391453595004,0.5010748626302624,0.0
-0.16311719248192114,-0.019285275379868724,3.050642206383018,-0.5168615377927941,-1.377193361059844,0.6434738439360199,0.0
-0.16311719248192114,-0.019285275379868724,3.050642206383018,-0.6910212469202338,-1.567246396234785,0.7972915430017546,0.0
-0.23153632011549452,-0.06786133773389336,2.9641318058572876,-0.7242778331694175,-1.7133108183339198,0.864460871951455,0.0
-0.4824068349783152,-0.06439161924851658,2.5398197543219783,-0.5925641279299007,-2.042660779741733,0.9309584827065053,0.0
-0.6550838004041023,-0.03663386946750251,2.3297236442169114,-0.3251983285101065,-1.9033636333990633,0.7274354723532069,0.0
-0.6550838004041023,-0.03663386946750251,2.3297236442169114,-0.006634839170552583,-1.863886830973963,0.462116649217841,0.0
-0.8179866862121759,0.005002756153018581,2.1319860185368786,0.223973620597519,-1.6727059531912447,0.2283674342831899,0.0
-0.9515671050432775,0.03969994290478621,1.9713241345749466,0.46333383044321447,-1.4843449020377684,0.04163673978234749,0.0
-1.0655990794841623,0.03969994290478621,1.8724553938456792,0.652371504028317,-1.3044432207171202,-0.029562734485562094,0.0
-1.1470505223881993,0.06745769458380022,1.7900646804236242,0.8545368134041533,-0.8555347342889834,-0.06650585885390962,0.0
-1.0949216034920923,0.10562459792294468,1.827140422141725,0.9017961997775353,-0.5916036611360915,-0.06986432693989156,0.0
-1.0036960239393844,0.10909431640832146,1.748869395823346,0.768332123173898,-0.28763172668558734,-0.018815644802904454,0.0
-0.8701156051082828,0.08827600549606084,1.7777060517770913,0.6383687039041187,0.014648326919919843,0.022829330789575518,0.0
-0.7202449775397148,0.07439713155455374,1.893052964035069,0.5626661137670121,-0.22052104700527475,0.13768886150155424,0.0
-0.547567898052012,0.04663937987553974,2.008400020514545,0.44145446592345267,-0.13310796914578057,0.2283674342831899,0.0
-0.3944392059235679,0.06398797609842345,2.2061376461945783,0.2878613534669823,0.4753998279375475,0.23978621758304386,0.0
-0.26085890115438215,0.06398797609842345,2.333843187099089,0.1469582679487688,0.8425347178038946,0.18269230108377388,0.0
-0.16311719248192114,0.04663937987553974,2.3585604443921544,0.103199545580681,1.083343641811106,0.10813436692236693,0.0
-0.13053654688315694,0.018881631992525582,2.346201815745622,0.09444780150734963,1.0032619742433317,-0.019487338420100853,0.0
-0.12727848232328062,-0.008876119211988444,2.403875271874611,0.07606913902006808,0.7844473567740236,-0.11956961365000135,0.0
-0.14031074056278614,-0.026224713062372236,2.4986246139431985,0.046750793605761946,0.6389468559787775,-0.18069369185244968,0.0
-0.182665465779264,-0.008876119211988444,2.506863699707554,0.02749695944643609,0.4765277255727747,-0.2700288855921771,0.0
-0.24782664291487635,-0.012345837934615207,2.4903855281788436,0.06469187059059314,0.1917302985446563,-0.3687677899726539,0.0
-0.25434277203462924,-0.001936681766734923,2.416233900521144,0.10626265610641854,-0.03892742873742514,-0.4151146085967818,0.0
-0.2934394326912306,-0.019285275379868724,2.346201815745622,0.06687980810999912,-0.2363117927376668,-0.3909336711476501,0.0
-0.33253609334783185,-0.02275499410249549,2.284408816734455,0.019620389713723475,-0.2955270926733521,-0.3573490066727999,0.0
-0.37814899718610157,-0.008876119211988444,2.3420822728634443,0.04937631862904912,-0.3383876980590321,-0.32980957656023274,0.0
-0.38140694768406236,-0.005406400252111692,2.2761697309701,0.03668629169079229,-0.3812483034447119,-0.3613791519910092,0.0
-0.374890932626225,-0.03316415098212574,2.160822674490624,-0.04645528601229466,-0.3750448114235128,-0.37279793529086314,0.0
-0.35534254526696657,-0.06439161924851658,2.016639106278901,-0.09371469373427249,-0.2261605902088604,-0.3734696534855133,0.0
-0.26085890115438215,-0.13725571123742863,1.9836827632214795,-0.06308358981118443,-0.027084367073670446,-0.47019346882191637,0.0
-0.21524611137802796,-0.1511345851789357,2.1319860185368786,0.059003238377286514,0.08457878508045646,-0.4648199198843454,0.0
-0.2738910453319721,-0.10602824486903768,2.3420822728634443,0.162711407414194,-0.04682280353817989,-0.41712969764085556,0.0
-0.30972975549061266,-0.06439161924851658,2.440951013592711,0.3828177724262658,-0.0851717659349131,-0.3607074665662973,0.0
-0.29018136813135426,-0.053982463792386276,2.3008868440416674,0.4554572446990552,-0.029904143834286637,-0.31570401879159316,0.0
-0.30972975549061266,-0.07827049319002366,2.0619539337613566,0.45370689468353037,0.05468915382537576,-0.2680137965481033,0.0
-0.30647169093073606,-0.14766487428555863,1.897172506917247,0.4366409980436104,0.30170158361064875,-0.19144078972759182,0.0
-0.30647169093073606,-0.14766487428555863,1.897172506917247,0.3714405079996525,0.6462782731489286,-0.12292808992846779,0.0
-0.3162458846103653,-0.1615437482270657,1.963085048810591,0.29223721783149637,0.8752441344176304,-0.23442914845822224,0.0
-0.30647169093073606,-0.13031627426667505,2.152583732947767,0.40425955477929554,1.0258202571125734,-0.3647376118845066,0.0
-0.30647169093073606,-0.13031627426667505,2.152583732947767,0.6571849719081593,1.2316638591806952,-0.225025454202442,0.0
-0.22502019099574164,-0.18930149611007985,2.0660734766435342,0.6116758715045146,0.6620690601519078,0.3949473530380789,0.0
-0.32601996422807894,-0.11296768183979121,2.1278664756547006,0.2944251500137534,-0.06317750754602836,0.8248310058842601,0.0
-0.4856648995381918,0.1403217827767124,2.3132454726882004,0.17496384684856964,0.31523652031572386,0.722061923415636,0.0
-0.6159871397475012,0.17848869370785655,2.292647902498811,-0.24205675614416838,0.7742961680020796,0.9961127226121319,0.0
-0.6159871397475012,0.17848869370785655,2.292647902498811,-0.7579720656311207,-0.4895277420578638,3.0205958593497257,0.0
-0.7039546547403328,0.3068682700747975,2.548058840086334,-0.956636717673099,-1.0478435097069294,3.452494732319735,0.0
-0.7039546547403328,0.3068682700747975,2.548058840086334,-0.6993354148311255,-0.5008068284650348,3.4397325454005183,0.0
-0.3195039491702419,-0.04010358795287928,2.160822674490624,-0.7575345048129842,-0.20924193308437877,3.047463800657211,0.0
-0.3195039491702419,-0.04010358795287928,2.160822674490624,-0.791666298092824,-0.30285850984350343,2.6202667584301236,0.0
-0.28040717445172475,-0.20318037005158698,2.4780268995323103,-0.5129232342464165,-0.8623021751277964,2.5336183227742133,0.0
-0.5019551082756584,-0.17889233306194985,3.025924949089952,-0.19217181272460557,-0.8329765064471916,2.739156618791216,0.0
-0.5019551082756584,-0.17889233306194985,3.025924949089952,0.3946326190196113,-0.04174720528309036,2.9997735784137216,0.0
-0.6322774625468831,-0.0921493709275306,3.0094467775612426,0.8978578962311579,0.5368709369005498,3.4437627234886654,0.0
-0.782148090115451,-0.03316415098212574,2.6263301548477096,0.9197373034481112,-0.17371274486885008,3.7016928103325735,0.0
-0.736535300339097,-0.02969443154774901,2.494505071061021,0.8939196780791632,-1.1786811761618732,3.7715488809811193,0.0
-0.5345357538744223,-0.05745218227776307,2.2679306452057446,0.6729381006992866,-0.8436916715504741,3.3242012104728014,0.0
-0.4205037224025792,-0.18583177003270338,2.333843187099089,0.9013586389593988,-0.413957720058448,3.103885769572263,0.0
-0.5345357538744223,-0.2621655918949917,2.4203534434033216,1.1735378635618436,-0.5228010799754884,3.2469564363027326,0.0
-0.7886642192352039,-0.19624093308083337,2.424472986285499,1.345509683204218,-0.6581503919987903,3.9663399480432244,0.0
-1.1959214337553874,0.02235135047790235,2.2596915594413893,1.1971675994457263,-0.9812967238167808,5.274797967393946,0.0
-1.1959214337553874,0.17848869370785655,2.2308547592661454,1.3428841475066329,-0.5577663468871283,5.321145146487396,0.0
-0.7560835736364396,-0.04010358795287928,2.5109832425897314,1.8793659896187676,1.2113614816368072,4.789164260446992,0.0
-0.5019551082756584,-0.4113634791741931,2.7993506674561743,1.4689092632300347,3.7581837266379043,4.203447491791621,0.0
-0.24131051379512372,-0.8346691495741585,2.8982194081854415,0.8724778316803463,6.883624006777058,2.004995831087432,0.0
-0.0784076279870501,-1.1157164152176742,2.8034702103383524,0.3377462968865451,7.482544529513898,1.649670210712472,0.0
-0.1337946114430335,-1.1712319109837024,2.543939297204156,-0.5759357921081172,6.2429706662348625,4.349876683955465,0.0
-0.7658577673160689,-0.9248818453779537,2.321484558452556,-1.6313962323602875,2.194335743960551,13.767686394025738,0.0
-0.9287606531241425,-0.6056677143552922,2.346201815745622,0.9228003999638328,0.16748022425002346,19.244000285053232,0.0
-0.8277608798918051,-0.29686276156475994,2.3503213586277996,2.940077458568917,-0.1223928177993606,20.880917949667722,0.0
-0.8179866862121759,-0.050512745307009506,2.2761697309701,1.2593049929739626,5.222775836976073,17.930170093102344,0.0
-0.8440512026911872,-0.19277120700345693,2.2267352163839678,-3.616729387170597,8.85915963381025,11.393251120310879,0.0
-1.4826304876839755,-0.9005938235723161,2.7663943243987537,-4.9596844919066285,7.791591893268025,7.849398315887621,0.0
-2.088629212624437,-0.9908065193761116,2.8776216937745533,-3.4688249496246244,0.9626572191555558,6.385106918568201,0.0
-2.5284669871969476,-0.7409867884289841,2.9352952941250408,0.145207917933244,-3.012099830223155,6.055305540951921,0.0
-2.4665638746212117,-0.5987283229365369,3.1041959754083304,1.789660727449037,-1.858811209074267,4.686395112438493,0.0
-2.5349831163167003,-0.7444565145063609,2.9847295202681763,1.5227324888473794,-2.3455047890432845,3.5740712032999205,0.0
-2.3590480007846,-0.994276245453488,2.6634060407873084,-0.5256132665218223,-3.6234275020847426,2.733782873234015,0.0
-2.1114356075126137,-1.1469438284420672,2.309125929806023,-4.416201164338012,-5.2092699563823475,2.0103694455648795,0.0
-1.945274674966838,-1.0948980587534152,2.2679306452057446,-6.615952270770194,-6.728565514734907,1.3823363313029708,0.0
-1.945274674966838,-1.0948980587534152,2.2679306452057446,-5.942067621536128,-8.278878945899333,0.2438163792862222,0.0
-1.7139525866720589,-1.4245213072722087,2.8281871791884217,-2.8566404746781924,-7.657964171652039,-1.3749641567491064,0.0
-1.7921459650162193,-1.5355522988042651,2.9970881489147074,-2.4934429638740747,-5.54031157164693,-1.9720994137748882,0.0
-1.8670812894938078,-1.7819023644100138,3.1247936898192195,-3.384808148879435,-3.121507166471533,-2.152113204873705,0.0
-1.7367589815602358,-1.8547664905629246,2.721079352694799,-4.026310906528673,-2.14530062012385,-1.9680692356867413,0.0
-1.410953238459568,-1.629234781421435,1.9836827632214795,-5.384581664632079,-3.852957339684782,-3.3060819380437954,0.0
-1.5054368825721527,-1.6743410989553338,1.8477381365526133,-6.194555584589834,-4.67238429883005,-4.183313261398295,0.0
-1.518469112296179,-1.9935551692419977,2.148464190065589,-5.706645555122342,-2.8649075655162415,-4.601778294794312,0.0
-1.4598240927957984,-2.21214754770073,1.9919218489858346,-4.480963922775067,0.6818074613644574,-3.7131280898301444,0.0
-1.0362766125071907,-2.4099214482232076,1.4852190840284705,-4.220161962599237,0.678423713431326,-3.0656158688620256,0.0
-1.0753732731637917,-2.4064517221458313,1.0403094623037716,-4.5247227372089736,-0.19796283292034522,-2.0379253063352882,0.0
-0.9971798948196313,-2.305829908845904,0.9579187488817169,-4.8796060801021985,-0.839744002313454,-1.5831890633852022,0.0
-1.0199862897078085,-2.4168609003779604,0.6777904818903785,-5.611689392346207,-1.0360003919409702,-1.2009956327825109,0.0
-1.0069540884992607,-2.3752241874494433,0.4512160560351022,-7.553701464329512,-2.1018760384068322,-0.6938672713061371,0.0
-0.8179866862121759,-2.4480884350743493,-0.16259451738819694,-8.858149167604338,-3.405740672195763,-1.635581116371613,0.0
-0.5899227373304055,-2.60422562266831,-0.23674612701820924,-6.7152843833052245,-2.7402734736236716,-3.891126791884888,0.0
-0.4465681248196747,-2.7187263402777435,-0.34385402562258105,-3.5524041895516776,-2.8970530608260887,-5.339969129506492,0.0
-0.5834066082106526,-2.8262876057324218,-0.7063730420913488,-0.9828919038601835,-2.595336894132315,-4.1376382592786305,0.0
-0.6778902523232373,-2.6770898702932144,-1.0318162086758924,0.742076894289622,-2.75662807187564,-1.2728667924751322,0.0
-0.7788900255555747,-2.7360749706646246,-1.1389241072802638,1.7940365064191686,-2.0167186388844613,2.1971001564506905,0.0
-0.8082126065944623,-2.4723765176159844,-1.1142069220979471,2.078905848691401,-1.5926242856234705,2.9702190264871433,0.0
-0.8082126065944623,-2.4723765176159844,-1.1142069220979471,1.9371276041768728,-2.2445567125728356,2.8432690721092637,0.0
-1.0134701605880556,-1.9657974820949813,-1.0647724796225642,0.9228003999638328,-2.2518881297429862,2.0970178812207907,0.0
-0.9189864594445132,-2.0594798432401555,-0.8876324962426706,-0.5256132665218223,-1.2418441040639914,0.3338232584506615,0.0
-0.9189864594445132,-2.0594798432401555,-0.8876324962426706,-1.2760753286489261,-0.1624336447048165,-1.142558312663879,0.0
-0.6127290751876246,-2.3266482653101628,-0.6528190567337882,-2.3976113378841344,1.240687150317412,-0.7388707518507796,0.0
-0.6257613334271305,-2.298890456691151,-0.805241854931365,-2.53676404670108,-3.008152160986133,-0.47825375945833465,0.0
-0.40095533504332076,-2.0837679257817907,-0.8793934825890645,-2.5883994682277414,-4.259004890562543,-0.5548267826638155,0.0
-0.554084027171765,-1.9866158385592403,-0.8217199543493265,-2.1998218928728135,-2.6483487983448386,0.5521235447672495,0.0
-0.700696704242372,-1.9519185777854753,-0.7970027691670097,-0.2936920709278517,-2.5248425490600455,1.2668051274550072,0.0
-0.700696704242372,-1.9519185777854753,-0.7970027691670097,1.1254032701578056,-1.2627105129666674,0.04365181858581551,0.0
-0.5508259626118887,-1.4592185680459733,-1.4025742748536407,0.18109007190290638,-1.1098785950012702,-1.4642993341038646,0.0
-0.5247615601947931,-1.4314607594269617,-1.5179211871116185,-1.0695341549085755,-2.312231231015862,-2.4543749885277273,0.0
-0.5247615601947931,-1.4314607594269617,-1.5179211871116185,-1.6257076001469801,-1.255943017100405,-2.0795702614465577,0.0
-0.4335358665801692,-1.9206911645610822,-1.1389241072802638,-0.1155940582540345,0.7517379401602875,-1.1922636239514424,0.0
-0.736535300339097,-1.8374178601760423,-0.9329473958358759,1.876740453921183,-0.3378237492414185,-1.8834358890749037,0.0
-1.1796311109560054,-1.514734063812002,-0.5415916513026137,4.083930435839217,0.1917302985446563,-2.0197896360183782,0.0
-0.9874057011400021,-1.2753234503610063,-0.4221251601070836,5.510902341320437,2.0149977638339927,-3.9932240250791105,0.0
-0.9874057011400021,-1.2753234503610063,-0.4221251601070836,3.829692229512964,2.523121674009577,-6.721642007098641,0.0
-0.13705267600290982,-1.6465834118083171,-0.9453060244824091,-0.14622517285142028,-0.5290045995104122,-4.230331830987011,0.0
-0.5182454310750402,-2.0525403910854023,-0.7681660411025154,-0.6350100464234406,-0.15341035356809973,-1.0229969307277675,0.0
-0.6648579940837315,-1.584128463887536,-0.8134809406957204,0.7040067974634047,0.7855752544092507,-1.5576646895467705,0.0
-0.6485676712843497,-1.5598403813459008,-0.9494255673645866,1.1801017028058063,0.23910254949869444,-2.6175965456989347,0.0
-0.3390522224675842,-2.1080560083234263,-0.6734167711446768,1.0256334260158715,-0.0874275852798767,-3.0011332816111724,0.0
-0.3390522224675842,-2.1080560083234263,-0.6734167711446768,0.180214896895144,0.20752105803391063,-1.334662506947385,0.0
-0.19569772401876953,-2.271132648072139,-0.7764051268668707,0.37056532231759226,0.8464824420683642,-0.7751421580244772,0.0
-0.4335358665801692,-2.0456010604026447,-0.7640464982203379,0.5066549559674105,-0.01354943896663428,-1.2594329529011428,0.0
-0.4335358665801692,-2.0456010604026447,-0.7640464982203379,0.186778704116213,0.1545092501194242,-2.373771951083791,0.0
-0.4563423184993039,-1.8131298991064022,-0.7928832262848322,-0.08014949712540223,0.0022413084853654857,-4.349221429188596,0.0
-0.04256903189032539,-1.9276306167158352,-1.0235771229115367,0.10626265610641854,0.3671203893243958,-4.5540878103913185,0.0
0.12359191847762455,-1.8061904469516492,-1.0194576521401084,-0.08452536148991625,0.9135930942349519,-3.477363851391298,0.0
0.12359191847762455,-1.8061904469516492,-1.0194576521401084,-0.3903988185540644,0.9372792197119711,-3.552593405437538,0.0
-0.009988386291561183,-1.5459614770363945,-0.7434488559201986,-0.6175065889653842,0.828999836126269,-3.7185015732278375,0.0
-0.009988386291561183,-1.5459614770363945,-0.7434488559201986,-0.655139124973465,0.6299235648420608,-3.490797690965285,0.0
0.11381772479799535,-1.4071727983573217,-0.7722855839846929,-0.4770411122996477,0.2842189776685537,-2.7915650696655296,0.0
0.20178523979082713,-1.3828847158156863,-0.8093613978135429,-0.34926562521212534,0.05356124243328616,-2.4463146323514335,0.0
0.13662417671713034,-1.296141806825265,-0.7640464982203379,-0.5203622378238436,0.06202057099552693,-2.6270002071847753,0.0
0.20178523979082713,-1.2718537242836294,-0.6898948705626381,0.18765387378682646,-0.2537944124366243,-2.548412127705159,0.0
0.2995269484632884,-1.167762184906326,-0.9205888393000923,-0.018012114271463698,0.6598132098540037,-2.861421140314077,0.0
0.10404353111836613,-1.0844888805212858,-0.9123497535357369,0.18940422380235125,1.196134725992616,-3.588193093416586,0.0
0.07797924276318616,-1.060200919451646,-0.8299590401136818,0.09225986532223088,1.4798042003580578,-4.1806266507792,0.0
0.04539859716442222,-1.0324431715686315,-0.7352097701558432,0.19334251667443095,1.6811363219401698,-4.734101732569887,0.0
-0.023020644531066708,-0.9457002018422128,-0.8340785829958597,0.11763992386874987,1.5587580253180544,-3.668796393020029,0.0
0.6188165909596812,-0.786093105962883,-0.7434488559201986,0.23972676006294422,0.8318196077280618,-1.7752932576687084,0.0
0.7328486224315264,-0.8311994842327796,-0.7352097701558432,0.20034390606223224,0.5470221256724935,-1.6973768308438657,0.0
0.39401082069970395,-0.7236381580421017,-0.7352097701558432,0.1237661435859377,0.6124409588999654,-2.2548820907227007,0.0
0.4819783356925365,-0.71322904054597,-0.5869065508958187,0.0078055324460801065,0.3073411268142343,-1.6671506262625129,0.0
0.543881334206357,-0.6403649143930593,-0.533352601593633,0.022683496903742925,-0.0868636295838319,-1.126437731391042,0.0
0.17246288687577085,-0.5987283229365369,-0.4550814310537556,0.0016793073917433536,-0.14382312049220056,-1.5146762980462016,0.0
0.15943062863626506,-0.706289588391217,-0.6363409573158268,0.09794849924509302,0.5255918504933786,-1.317198489285248,0.0
0.3516559814213105,-0.45993955315346735,-0.5869065508958187,0.32418107892907905,0.6536096903190798,0.3338232584506615,0.0
0.7165585277559748,-0.4634092792308438,-0.805241854931365,0.1417072205707689,0.9688606836630302,0.8523704032268892,0.0
0.7491389452309075,-0.6924106840817112,-0.5415916513026137,0.21959774555870704,0.398137931971566,0.3929322639940051,0.0
0.6709456239177038,-0.6195466186647981,-0.5086353803559416,0.3215555645800897,0.5120569137883034,0.2814312054642506,0.0
0.5113006886075934,-0.6542438187025653,-0.5663088725403049,0.2742961461838141,0.5566093931405488,0.11283621405025707,0.0
0.4852364002524128,-0.8520177799610408,-0.7558074124559825,0.07781948770130565,1.2564779373203911,-0.47489529956483745,0.0
0.3451398523015579,-0.5779099664722779,-0.273821940847059,0.3044896679401698,0.3011376347930352,-0.34122835986008676,0.0
0.33210759406205237,-0.47728815317235096,-0.273821940847059,0.263356463923933,0.09867767060314524,-0.1659164486590983,0.0
0.2995269484632884,-0.49116702711385785,-0.34385402562258105,0.22616155277977604,0.013520415527830258,0.1208965374566137,0.0
-0.25434277203462924,-0.3107416355062671,-0.1584749925337066,0.4506437981678087,-0.28142820715066347,1.428011464502387,0.0
0.3972688852595805,-0.7201684319647254,-0.5786674651314635,0.2742961461838141,0.26504449775989286,0.11820976298782815,0.0
0.8208163655481885,-0.8693663496119254,-0.6404605001980045,0.13908169821605618,0.7032377915710222,-1.3145117475864008,0.0
0.6220746555195601,-0.7756839277307535,-0.5539502799491467,0.04018698638469292,0.6299235648420608,-1.3104815694982532,0.0
0.2767207246679845,-0.5397431010931322,-0.30677821179373116,-0.06964740770655133,0.45566137169754833,-1.3420512104689062,0.0
0.4005269498194566,-0.5570916707440169,-0.2861805514659049,0.10188678406975285,0.3073411268142343,-0.8523868666546697,0.0
0.3549140459811868,-0.6160768925874217,-0.31089775467590874,0.07125568048023662,0.3129806975315447,-1.7551424983077242,0.0
0.5145587531674691,-0.42871207919307663,-0.3685712108048979,0.16008588239090682,0.3033934575772144,-1.098898268508537,0.0
0.5862361734847485,-0.38013603558180137,-0.3520930753315617,0.06950533046471184,0.17255581863599553,-0.6414752183197264,0.0
0.4689460774530297,-0.4113634791741931,-0.3232563472670673,-0.10421679382742118,0.10657305034777242,-0.5037781005268283,0.0
0.2864949183476137,-0.3489085616214107,-0.3232563472670673,-0.06395876481894686,0.30790510314557273,0.22097881268651418,0.0
0.2930110474673666,-0.4113634791741931,-0.3603321610959169,-0.08452536148991625,0.4646846628342651,0.3385251219635207,0.0
-0.055601290129830915,-0.47728815317235096,-0.34385402562258105,-0.15191380506472701,0.35076570853125255,1.3104651716103495,0.0
-0.023020644531066708,-0.4981064489006122,-0.24498519475487726,-0.23724330961292206,0.008444817702642665,2.130602480155764,0.0
-0.20221385313852244,-0.42871207919307663,-0.018410825236123713,0.1530844876659566,-0.39760301175157975,2.230684886465417,0.0
1.3942343593434479,-0.3627874355629178,-0.35621261821373934,0.2747337283505464,-0.3175213441838057,0.6656396923410778,0.0
1.329073296269751,-0.44953040528933663,-0.37269075368707544,0.17540143435245084,-0.018061081095777066,0.2532200899269717,0.0
0.9185580742206506,-0.6577135447799417,-0.6157432429049385,-0.04820562535352162,0.9333315504749511,0.03156134192478026,0.0
0.7361066869914022,-0.6785318405082029,-0.4056470246337474,-0.04689286817902694,0.8870872521835896,-0.04904184119177272,0.0
0.5047847876116723,-0.6646529361986971,-0.2573438053737229,0.0003665502172486968,0.7850112780779123,-0.13770533312181918,0.0
0.39401082069970395,-0.6091374404326686,-0.10080150936318671,0.05112666864457391,0.6846272329662503,-0.13501855865303364,0.0
0.4070428508153784,-0.5570916707440169,-0.10492104323152075,0.27079544615276446,0.04341004678291097,-0.07187940779148072,0.0
0.4265912381746365,-0.5709705750535229,-0.18319219574371068,0.13295547583029388,-0.2284164129930396,-0.14173549482499753,0.0
0.5764619798051202,-0.5813796925496546,-0.29441961920257265,0.1618362324064316,-0.23292805856139792,-0.1491241164216732,0.0
0.501526723051796,-0.5744403011308993,-0.21202892380820515,0.1285796034600564,0.0338228068285806,0.021485944579243316,0.0
0.472204142012906,-0.5640311228987698,-0.1955507883348691,0.254604724520607,-0.0840438545428235,0.03088964881961416,0.0
0.45265575465364916,-0.5570916707440169,-0.20790939895371482,0.27210821400155705,-0.0846078102388683,0.016784092331050323,0.0
0.4005269498194566,-0.5362733750157557,-0.22026799154487317,0.1789021343835004,-0.11054975506085103,-0.05374368831966287,0.0
0.4168170444950076,-0.5397431010931322,-0.21614846669038282,0.022683496903742925,-0.03892742873742514,-0.12091300088439409,0.0
0.4168170444950076,-0.5397431010931322,-0.21614846669038282,-0.00094620695724596,0.037770496700894204,-0.11621115375650395,0.0
0.5178168177273454,-0.49116702711385785,-0.21614846669038282,0.1373313482005314,0.0778113236063501,-0.06516247161951684,0.0
0.5275910114069738,-0.5223945010742486,-0.22026799154487317,0.25416713167957683,0.3496377833823007,0.016112398713853938,0.0
0.5275910114069738,-0.5223945010742486,-0.22026799154487317,0.3079903679712194,0.36994018843991333,0.0033502281796071597,0.0
0.5373652050866043,-0.5501522185892638,-0.07196477228484863,0.2764840783660711,-0.06317750754602836,-0.10344898322225718,0.0
0.2767207246679845,-0.6056677143552922,-0.018410825236123713,-0.09721539376532203,-1.5559671997727145,0.3116573772756653,0.0
0.2767207246679845,-0.6056677143552922,-0.018410825236123713,0.2502288494817951,-2.3218185535113665,0.33046479855716404,0.0
0.43962349641414233,-0.5466824925118874,-0.31089775467590874,0.3990085047327211,-2.24681239778839,0.27941611642017705,0.0
0.6383649783189407,-0.6299557968969277,-0.5415916513026137,0.11413922650627477,-0.4714811597844302,0.12828515905328938,0.0
0.5178168177273454,-0.5744403011308993,-0.4138861103981027,0.01130623247712968,0.9812677227328782,0.09671557952627062,0.0
0.9250742033404027,-0.6542438187025653,-1.7609737844956053,-0.2901913708968021,7.719405564174291,-0.13031671152514354,0.0
0.2930110474673666,-0.5501522185892638,0.879647650452589,0.22047292056646942,1.0478145086230268,0.03223303502994636,0.0
-0.06537536974754458,-0.5640311228987698,0.5624434975216516,0.20734530612433139,-1.7657585811327556,-0.16322967419031276,0.0
0.5406232696464802,-0.5987283229365369,-0.40976656751592505,0.11282646399463117,0.7015459176044565,-0.037623053795676424,0.0
0.5047847876116723,-0.5258641967836262,-0.05136709843625676,0.1281420159561752,-0.03892742873742514,0.027531182909760938,0.0
0.49175252937216496,-0.5570916707440169,-0.18731172059820106,0.1526469001620754,0.10826491055747561,0.08261002175763109,0.0
0.3777204979003218,-0.49116702711385785,-0.05960616617292478,0.06119117322811803,-0.5177255131032413,0.14507749129071446,0.0
0.5471393987662329,-0.5432128271705086,-0.26146334825590056,0.17408867184080723,0.43479501782232205,0.09335711553653099,0.0
0.44288156097401865,-0.5397431010931322,-0.09668197549485273,0.20909565613985617,-0.11054975506085103,0.06111584239231585,0.0
0.4559138192135255,-0.5813796925496546,-0.05136709843625676,0.1635865824219564,-0.05697399832875117,-0.06516247161951684,0.0
0.4559138192135255,-0.5813796925496546,-0.05136709843625676,0.14652068044488759,0.3795274283942437,0.050368750661537086,0.0
0.4168170444950076,-0.5085156271327415,0.006306379663976047,-0.00138379979827607,-0.1703290244494437,0.09537219229187785,0.0
0.4689460774530297,-0.5744403011308993,-0.12551871257319083,-0.05520702541562077,0.003933175573499876,-0.14173549482499753,0.0
0.4754622065727818,-0.5744403011308993,-0.07196477228484863,0.0830705337450183,0.09585789900135244,0.044323512203011894,0.0
0.4852364002524128,-0.5328036489383793,-0.15435544965152892,0.06600463310223673,0.10882885937508921,0.07723647691630228,0.0
0.46568801289315387,-0.5744403011308993,-0.12139917870485681,0.07344361533106813,0.011828548439695868,-0.0026950102789180426,0.0
0.4461396255338944,-0.5362733750157557,-0.10080150936318671,0.2108459954810831,0.20470125891839297,0.00469361541399994,0.0
0.44939769009377023,-0.5744403011308993,-0.07196477228484863,0.13951928571993738,-0.126340500793243,-0.014785487195968432,0.0
0.4591718837734018,-0.5709705750535229,-0.11727964483652277,0.1399568705552441,-0.18781163039153884,-0.003366703896114422,0.0
0.43962349641414233,-0.5328036489383793,-0.03900849683125471,0.12289097124674976,-0.2724049435276715,-0.010083635971836003,0.0
0.46568801289315387,-0.5293339228610027,-0.08020384002151669,0.11282646399463117,-0.10942184366876145,0.019470864751714726,0.0
0.4819783356925365,-0.5432128271705086,-0.10904057709985478,0.13864411071217497,-0.05697399832875117,0.008052081451860723,0.0
0.4689460774530297,-0.5883191447044074,-0.01429129136778971,0.22266085274872646,-0.08066012380577031,0.007380387834664337,0.0
0.47872027113265814,-0.5709705750535229,-0.13375778030985885,0.2585430067183889,0.3603529484855829,-0.008068555120246844,0.0
0.47872027113265814,-0.5397431010931322,-0.04312803069958871,0.45326931251679803,0.031566984044401405,-0.040309824168219696,0.0
0.4331073672943902,-0.5293339228610027,-0.01429129136778971,0.26904509613723965,-0.0451309373098494,0.0013351493761391382,0.0
0.46242994833327755,-0.5154550489194958,-0.04724756456792272,0.23053742781858802,0.08119505090418767,0.027531182909760938,0.0
0.4591718837734018,-0.5154550489194958,-0.06372570454818062,0.1530844876659566,0.11277655612583401,0.008052081451860723,0.0
0.5047847876116723,-0.5258641967836262,-0.11727964483652277,0.10144919689944346,0.4663765368008307,0.004021921796803538,0.0
0.4689460774530297,-0.5293339228610027,-0.04724756456792272,0.10538748176579976,0.3524575549840933,0.0295462624172706,0.0
0.4559138192135255,-0.5466824925118874,-0.35621261821373934,0.020933152225367083,0.1499976045510659,0.032904728391127604,0.0
0.2930110474673666,-0.4876973010364814,-0.006052223631121682,-0.025451096500295107,-0.1573580503188445,0.19411108438362787,0.0
0.47872027113265814,-0.5223945010742486,0.04338218729580831,0.10276195874394344,-0.6085222907468482,0.03760658012729031,0.0
0.49175252937216496,-0.5744403011308993,-0.04724756456792272,-0.04339216814797735,-0.17202088465914692,-0.040309824168219696,0.0
0.43962349641414233,-0.5640311228987698,-0.0019326886360572098,0.050689081140692725,-0.09927064801838627,-0.08195480385694195,0.0
0.560171657005737,-0.5397431010931322,-0.20790939895371482,0.1320803008225315,0.513748787754869,0.010067160255328741,0.0
0.5308490759668502,-0.5154550489194958,0.006306379663976047,0.16577451460421344,0.3022655324282624,0.07387801292656263,0.0
0.4005269498194566,-0.5223945010742486,0.10105566821286724,0.19509285601565787,-0.20303842730631722,-0.005381782699582443,0.0
0.4265912381746365,-0.5397431010931322,-0.04312803069958871,0.1281420159561752,-0.05302631189565318,0.05372721669939789,0.0
0.49175252937216496,-0.5744403011308993,-0.02253035910445775,-0.025451096500295107,0.08909043064881486,0.0940288050574851,0.0
0.45265575465364916,-0.5293339228610027,-0.03076942909458667,0.0029920752405358767,0.018032057656973046,0.05238382946500511,0.0
0.42333317361476047,-0.5397431010931322,-0.05548663230459077,0.02005797721760468,-0.1573580503188445,0.024844410105073822,0.0
0.4689460774530297,-0.5744403011308993,-0.018410825236123713,-0.13222237272722198,-0.3056782814452961,-0.010755329589032383,0.0
0.4689460774530297,-0.5328036489383793,-0.01429129136778971,-0.057394957597877855,-0.524492953942054,0.09470049867468147,0.0
0.501526723051796,-0.5154550489194958,-0.05136709843625676,0.13645617319276898,-0.6361560854608873,0.0026785366105319115,0.0
0.4852364002524128,-0.5466824925118874,-0.07196477228484863,0.11370163900239356,-0.5842722439659401,0.040293353572015286,0.0
0.46568801289315387,-0.5328036489383793,-0.10080150936318671,0.04237492390409891,-0.4539985538423349,0.10880605234707874,0.0
0.47872027113265814,-0.4981064489006122,-0.10080150936318671,0.031872829148099135,-0.29947478942409694,0.16522828342163695,0.0
0.4689460774530297,-0.5501522185892638,-0.08020384002151669,0.022245909399861732,-0.27635261276469136,0.12291161011571826,0.0
0.4689460774530297,-0.5813796925496546,-0.12139917870485681,0.05681530085788053,-0.25041067826035546,0.0496970570443407,0.0
0.4689460774530297,-0.5813796925496546,-0.12139917870485681,0.12464131859370008,-0.27860843554887055,-0.019487338420100853,0.0
0.47872027113265814,-0.5744403011308993,-0.15023592479703857,0.09663573760907543,-0.19909074431243481,-0.018143951185708083,0.0
0.4689460774530297,-0.5744403011308993,-0.12139917870485681,0.1447703304293628,-0.0005784665556429061,-0.019487338420100853,0.0
0.4689460774530297,-0.5744403011308993,-0.12139917870485681,0.09619815035537309,0.1099567707671788,0.024844410105073822,0.0
0.5113006886075934,-0.5640311228987698,-0.11316011096818879,0.05287701599152423,0.4026495775399245,0.028202876078930825,0.0
0.5243329468470981,-0.5640311228987698,-0.10492104323152075,0.060753585724236836,0.5943943766265319,0.009395466638132354,0.0
0.5243329468470981,-0.5640311228987698,-0.10492104323152075,0.20734530612433139,0.5566093931405488,0.007380387834664337,0.0
0.49175252937216496,-0.5883191447044074,-0.04312803069958871,0.31674209670024767,0.21034082963570347,-0.03627966656128366,0.0
0.4070428508153784,-0.5466824925118874,0.03514311955914028,0.3294321289756534,0.04284609108686616,-0.06986432693989156,0.0
0.4070428508153784,-0.5466824925118874,0.03514311955914028,0.23797641004741943,-0.1567940877443685,-0.09068681268801043,0.0
0.3809785624601981,-0.505045901055365,-0.02253035910445775,0.23009983497755787,0.018596013353017832,0.0026785366105319115,0.0
0.45265575465364916,-0.505045901055365,-0.03076942909458667,0.25547989952836936,-0.2560502214639412,0.0013351493761391382,0.0
0.4689460774530297,-0.5501522185892638,-0.05136709843625676,0.16533693243748118,0.06766012795597491,0.022829330789575518,0.0
0.501526723051796,-0.5675008489761462,-0.08844290775818468,0.21697222053541984,-0.017497127119340067,0.006708694217467943,0.0
0.46568801289315387,-0.5744403011308993,-0.07608430615318267,0.23097500998532028,0.012956459831785446,-0.02553257687862604,0.0
0.47872027113265814,-0.5605613968213934,-0.08020384002151669,0.2034070132522517,0.012956459831785446,-0.008740248737443222,0.0
0.472204142012906,-0.5570916707440169,-0.06372570454818062,0.19640562386445037,-0.010165706509973288,0.026187796571421167,0.0
0.4689460774530297,-0.5466824925118874,-0.06372570454818062,0.22091050273320167,0.014648326919919843,0.011410547489721515,0.0
0.47872027113265814,-0.5570916707440169,-0.05960616617292478,0.2292246599697955,-0.0017063779477325101,0.03491980770662591,0.0
0.47872027113265814,-0.5466824925118874,-0.06372570454818062,0.21697222053541984,-0.008473841141446689,0.020142558368911115,0.0
0.4689460774530297,-0.5501522185892638,-0.05960616617292478,0.2322877778341128,0.01013668479077706,0.03559150081179201,0.0
0.46242994833327755,-0.5570916707440169,-0.06784523841651463,0.24716574229177557,0.007880862006597872,0.013425626293189531,0.0
0.4689460774530297,-0.5744403011308993,-0.08020384002151669,0.24366504226072608,-0.010165706509973288,-0.0006799294273288641,0.0
0.4689460774530297,-0.5605613968213934,-0.04312803069958871,0.2703578639860322,-0.008473841141446689,-0.0020233166617216448,0.0
0.46242994833327755,-0.5466824925118874,-0.010171757499455696,0.26073093890064597,-0.008473841141446689,-0.020159032037297235,0.0
0.46242994833327755,-0.5397431010931322,-0.010171757499455696,0.2502288494817951,0.011264596182866658,-0.005381782699582443,0.0
0.46568801289315387,-0.5536219446666403,-0.03900849683125471,0.2795471855560906,0.049049603743358976,0.0033502281796071597,0.0
0.46568801289315387,-0.5883191447044074,-0.07196477228484863,0.3027393179246451,0.04115422399873178,-0.008740248737443222,0.0
0.4689460774530297,-0.5883191447044074,-0.05136709843625676,0.3303073146577137,0.05074146395306217,-0.01277040634437928,0.0
0.4689460774530297,-0.5779099664722779,-0.018410825236123713,0.3661894579530781,0.016340194008054258,-0.02351749602703689,0.0
0.46568801289315387,-0.5640311228987698,-0.05136709843625676,0.38719363679077984,0.015212282615964648,-0.01747225756851168,0.0
0.4689460774530297,-0.5675008489761462,-0.01429129136778971,0.4090730013105418,0.011828548439695868,-0.00672516788585407,0.0
0.4689460774530297,-0.5640311228987698,-0.02253035910445775,0.43007720149683926,0.02705534535447422,-0.00403839546518967,0.0
0.4265912381746365,-0.5675008489761462,0.006306379663976047,0.43882893022586744,0.051305419649106954,-0.01277040634437928,0.0
0.4591718837734018,-0.5570916707440169,-0.010171757499455696,0.4655217626254715,0.04341004678291097,-0.03426458980593678,0.0
0.49175252937216496,-0.5501522185892638,-0.02664989522625266,0.48171249493192686,0.06314848238761654,-0.04837014757457635,0.0
0.47872027113265814,-0.5466824925118874,-0.0019326886360572098,0.49527769154079715,0.045101913871045375,-0.03493628342313319,0.0
0.47872027113265814,-0.5466824925118874,0.010425913813992677,0.5005287202387758,0.1167242391197164,-0.026875964113018815,0.0
0.4689460774530297,-0.5570916707440169,0.02278451626404256,0.5333477883670146,0.1358987190283771,-0.028219351347411596,0.0
0.46242994833327755,-0.5675008489761462,0.02278451626404256,0.5714178424960404,0.12631147907404677,-0.011427019109986501,0.0
0.4559138192135255,-0.5744403011308993,0.04338218729580831,0.6248035072952485,0.24305021873571447,-8.237858253642391e-06,0.0
0.46242994833327755,-0.5813796925496546,0.04750172116414232,0.6615608362726733,0.19003842457809064,-0.0275476577302152,0.0
0.472204142012906,-0.6056677143552922,0.006306379663976047,0.7066322904637982,0.15225342733524516,-0.05105691385087731,0.0
0.501526723051796,-0.5779099664722779,0.07221892662760732,0.7709576161742916,0.13477080763628754,-0.03627966656128366,0.0
0.4591718837734018,-0.5501522185892638,0.08457752823260938,0.7775214554182542,0.07217176664590211,-0.01747225756851168,0.0
0.42333317361476047,-0.5466824925118874,0.09281660047619922,0.7670193553251057,0.04341004678291097,-0.021502419271690013,0.0
0.47872027113265814,-0.5258641967836262,0.07221892662760732,0.7910866520271245,0.05807288800164454,-0.05575876917125202,0.0
0.4819783356925365,-0.5119853228421191,0.08869706210094339,0.8287191026408224,0.04059026830268698,-0.014785487195968432,0.0
0.4591718837734018,-0.49116702711385785,0.1175338036862033,0.7967752842404311,0.06596826086784051,0.006037000600271561,0.0
0.4559138192135255,-0.47034870101759785,0.13401193915953938,0.7713952196896195,0.03043907265231182,-0.028891044964607974,0.0
0.472204142012906,-0.47728815317235096,0.12989240529120535,0.7552044873831643,0.04679378095917977,-0.011427019109986501,0.0
0.4852364002524128,-0.4981064489006122,0.1092947359495353,0.724573394134374,0.08232296229627728,-0.02351749602703689,0.0
0.4689460774530297,-0.5258641967836262,0.13401193915953938,0.721947858436789,0.08739855668224929,-0.0006799294273288641,0.0
0.46242994833327755,-0.5432128271705086,0.16284867623787747,0.7328875620452657,0.05920079939373414,-0.018815644802904454,0.0
0.46568801289315387,-0.5709705750535229,0.15049007463287542,0.7363882620763155,0.07668341221426048,-0.006053474268657691,0.0
0.46568801289315387,-0.5779099664722779,0.13401193915953938,0.8037766843025302,0.06991595074015411,-0.01277040634437928,0.0
0.47872027113265814,-0.5952585968591605,0.15872914236954347,0.8672268456795591,0.06314848238761654,-0.006053474268657691,0.0
0.4852364002524128,-0.5640311228987698,0.17108775298838916,0.9429293931194743,0.032694895436491005,0.011410547489721515,0.0
0.472204142012906,-0.5466824925118874,0.1752072778428795,0.9928143151904414,0.008444817702642665,0.0805949450022842,0.0
0.472204142012906,-0.5466824925118874,0.1752072778428795,1.026070986834008,0.0338228068285806,0.11350790766745344,0.0
0.4754622065727818,-0.4981064489006122,0.17108775298838916,1.0461999799896495,0.10600908777329644,0.14776425756701547,0.0
0.44939769009377023,-0.4981064489006122,0.21640261652621962,1.0772686767537676,0.024799522570295024,0.12895685267048576,0.0
0.4754622065727818,-0.4946367531912345,0.19580495619839325,1.1061493986384372,0.04622982526313498,0.0685044680852338,5.0
0.4689460774530297,-0.44606067921196024,0.2452393626184014,1.1114004700336073,0.05468915382537576,0.06581769361644826,5.0
0.4559138192135255,-0.4078937834648154,0.2575979552095598,1.045762419171513,0.006752950614508274,0.0940288050574851,5.0
0.4461396255338944,-0.3523782876987871,0.2575979552095598,0.9809994899456915,-0.03667160740416503,0.06917615760618792,5.0
0.46242994833327755,-0.34196910946665776,0.30703237965725527,0.9311145678747245,0.008444817702642665,0.10947774596427513,5.0
0.472204142012906,-0.3107416355062671,0.31527144739392343,0.8772913422573798,-0.016369215727250468,0.1208965374566137,5.0
0.48849446481228864,-0.3003324876421366,0.28643470130174153,0.814716387911007,-0.059229819393322565,0.15380950012178293,5.0
0.5047847876116723,-0.30727193979688944,0.26171749809173744,0.6965677938859774,-0.031032054366572335,0.12895685267048576,5.0
0.47872027113265814,-0.2899233397780059,0.2905542441839192,0.6029241427754864,-0.02200876924848286,0.13768886150155424,5.0
0.46242994833327755,-0.3003324876421366,0.3523472431950859,0.48127489141659885,0.02197974409007103,0.0994023498988139,5.0
0.44288156097401865,-0.3107416355062671,0.2946737690384096,0.36662704011981045,0.005625042661634273,0.10276081798479583,5.0
0.44288156097401865,-0.3107416355062671,0.2946737690384096,0.32461868244440706,0.015776238312009448,0.09201372830213822,5.0
0.44288156097401865,-0.3107416355062671,0.2946737690384096,0.2677323389627451,0.04679378095917977,0.07992325138508782,5.0
0.46242994833327755,-0.3870754573685554,0.33586910772174977,0.25504230668733924,0.009008773398687456,0.08999864745054906,5.0
0.4754622065727818,-0.40095433131006264,0.2946737690384096,0.24672814945074545,-0.022572724944527656,0.06380261276485912,5.0
0.4852364002524128,-0.4183029313289462,0.26171749809173744,0.2629188817572008,-0.028212277605956144,0.04499520582020828,5.0
0.4852364002524128,-0.4183029313289462,0.26171749809173744,0.24410262442745834,0.014648326919919843,-0.003366703896114422,5.0
0.4852364002524128,-0.4183029313289462,0.26171749809173744,0.16708727711585702,0.02197974409007103,-0.01209871272718288,5.0
0.4591718837734018,-0.39054518344593186,0.3193909722484136,0.11457681267586872,-0.0028342893398221078,-0.04971353480896909,5.0
0.45265575465364916,-0.37666630950442476,0.28643470130174153,0.087883993619137,0.02705534535447422,-0.033592896188740395,5.0
0.46242994833327755,-0.37666630950442476,0.28643470130174153,0.05987841071647444,-0.023700634617009456,-0.008740248737443222,5.0
0.4852364002524128,-0.3697268573496718,0.3029128367750776,0.00124172522501109,-0.04231116054923321,-0.020159032037297235,5.0
0.4950105939320407,-0.37666630950442476,0.27407609068289585,-0.04776804318678934,-0.030468098670527535,-0.00739686150305045,5.0
0.4689460774530297,-0.404424057387439,0.2946737690384096,-0.10684230817641052,-0.04851466890670649,0.006037000600271561,5.0
0.4559138192135255,-0.4217726574063226,0.3111519045117455,-0.14578756933609224,-0.059229819393322565,-0.028219351347411596,5.0
0.472204142012906,-0.4668790053082202,0.2946737690384096,-0.13134720839375746,-0.04907862460275129,-0.08665665917731666,5.0
0.48849446481228864,-0.47728815317235096,0.31527144739392343,-0.11821959395161942,-0.0834798988467787,-0.12427147716286059,5.0
0.4754622065727818,-0.45300010099871424,0.3193909722484136,-0.1567272515959733,-0.07840430102159111,-0.11218099205332564,5.0
0.44939769009377023,-0.4183029313289462,0.3029128367750776,-0.22367809165545605,-0.02200876924848286,-0.07926802938815643,5.0
0.4461396255338944,-0.42871207919307663,0.31527144739392343,-0.2687495671951768,0.011828548439695868,-0.09740374885997427,5.0
0.43962349641414233,-0.4564698270760909,0.3029128367750776,-0.2648113063459906,0.11559632772762679,-0.10076220875347164,5.0
0.4461396255338944,-0.4738184270949743,0.31527144739392343,-0.258685070617356,0.05863684369768934,-0.10479237045664995,5.0
0.472204142012906,-0.4738184270949743,0.3193909722484136,-0.28143959947058256,0.04566586956709017,-0.10949421758454009,5.0
0.49175252937216496,-0.4738184270949743,0.34410819348610494,-0.31250829623470056,0.05074146395306217,-0.10479237045664995,5.0
0.4754622065727818,-0.47728815317235096,0.3193909722484136,-0.3111955283859082,0.018032057656973046,-0.09740374885997427,5.0
0.4689460774530297,-0.4946367531912345,0.3111519045117455,-0.28581550653228804,0.029311168138653414,-0.11486776652211118,5.0
0.46242994833327755,-0.5223945010742486,0.28643470130174153,-0.24730780619074272,0.02085183269798143,-0.12359977535317965,5.0
0.45265575465364916,-0.5258641967836262,0.2658370229462278,-0.21055047721331804,0.0011134005324914904,-0.14173549482499753,5.0
0.4461396255338944,-0.5085156271327415,0.2658370229462278,-0.1536641550802517,-0.012985483270589472,-0.13367517141864088,5.0
0.45265575465364916,-0.4807578792497274,0.2781956335650735,-0.119094758285084,-0.0011424222516877177,-0.09404528077399234,5.0
0.44288156097401865,-0.4738184270949743,0.28643470130174153,-0.11121819388952028,-0.015805260031205675,-0.059117237257233966,5.0
0.4363654318542665,-0.484227574959105,0.28643470130174153,-0.09327711156754023,-0.009037796837491497,-0.022174112888886394,5.0
0.47872027113265814,-0.5085156271327415,0.2287612271450653,-0.08933882936975832,-0.11111371075689584,0.020814250962046928,5.0
0.501526723051796,-0.5154550489194958,0.2452393626184014,-0.07796156494314514,-0.09588691384211748,0.05775737635445506,5.0
0.4950105939320407,-0.4876973010364814,0.2370002948817334,-0.09108917938528314,-0.10096251510652066,0.1108211331986679,5.0
0.4689460774530297,-0.4807578792497274,0.2287612271450653,-0.08758847935423349,-0.11900908362309182,0.13768886150155424,5.0
0.46568801289315387,-0.4981064489006122,0.2699565658284055,-0.052581500392333544,-0.11167766645294064,0.12828515905328938,5.0
0.4852364002524128,-0.5015761749779886,0.31527144739392343,-0.01144830705039468,-0.08009616810972552,0.10611928607077777,5.0
0.4754622065727818,-0.49116702711385785,0.2946737690384096,0.0064927752715854496,-0.07276474750035873,0.07857986415069504,5.0
0.46242994833327755,-0.4738184270949743,0.2987933119205872,0.020495564721485875,-0.05979377508936736,0.1114928268158643,5.0
0.4689460774530297,-0.4183029313289462,0.30703237965725527,0.03799904886528693,-0.06712519397912635,0.139032248735947,5.0
0.4689460774530297,-0.39054518344593186,0.2946737690384096,0.04193733640021771,-0.050206535135036985,0.17597538129677912,5.0
0.4559138192135255,-0.39401490952330825,0.2905542441839192,0.05112666864457391,-0.015805260031205675,0.18739416459663313,5.0
0.4689460774530297,-0.432181805270453,0.3235105151305912,0.07869466137478079,0.011828548439695868,0.15649627459056847,5.0
0.4819783356925365,-0.45300010099871424,0.2370002948817334,0.10057402255882468,0.004497131269544668,0.11888145660502454,5.0
0.48849446481228864,-0.4564698270760909,0.2534784303550694,0.13076754097946236,0.10318931617150363,0.07857986415069504,5.0
0.4689460774530297,-0.4634092792308438,0.27407609068289585,0.13032995347558118,0.0738636337340365,0.027531182909760938,5.0
0.48849446481228864,-0.49116702711385785,0.26171749809173744,0.1710255646507878,0.10544513895568282,-0.022174112888886394,5.0
0.4819783356925365,-0.4981064489006122,0.30703237965725527,0.1684000396275006,0.1139044675179236,-0.020830725654493613,5.0
0.45265575465364916,-0.5015761749779886,0.2781956335650735,0.14214480807465008,-0.009037796837491497,-0.01545718081316481,5.0
0.47872027113265814,-0.484227574959105,0.2452393626184014,0.15746036270476857,0.048485648047314166,0.0033502281796071597,5.0
0.49175252937216496,-0.49116702711385785,0.21640261652621962,0.1447703304293628,0.05017751513544856,0.00469361541399994,5.0
0.4689460774530297,-0.5015761749779886,0.19580495619839325,0.16664968961197582,0.05468915382537576,0.008052081451860723,5.0
0.4559138192135255,-0.4981064489006122,0.2205221594083973,0.151771725154313,-0.004526152988740902,0.038278273744486696,5.0
0.47872027113265814,-0.4946367531912345,0.2575979552095598,0.17627660936021322,0.018596013353017832,0.049025363427144315,5.0
0.44939769009377023,-0.5085156271327415,0.2946737690384096,0.19465527384892561,-0.05246235619960838,0.059772455157923066,5.0
0.44939769009377023,-0.49116702711385785,0.2946737690384096,0.19990632389549998,-0.10603810949249265,0.044323512203011894,5.0
0.4559138192135255,-0.484227574959105,0.2658370229462278,0.17627660936021322,-0.13423588053787017,0.0805949450022842,5.0
0.4950105939320407,-0.505045901055365,0.2452393626184014,0.206470131116569,-0.08178803175864431,0.08664018346080941,5.0
0.4982686584919176,-0.5154550489194958,0.2122830916717293,0.2532919566718146,-0.010165706509973288,0.09805896266442113,5.0
0.46242994833327755,-0.5154550489194958,0.2328807519995557,0.2804223712381509,-0.07784034532554632,0.08664018346080941,5.0
0.4363654318542665,-0.484227574959105,0.2781956335650735,0.30186413224258485,-0.13705565213966298,0.07320631930936625,5.0
0.43962349641414233,-0.4425909531345838,0.27407609068289585,0.28611100345145746,-0.16468946748899568,0.09873065628161751,5.0
0.42333317361476047,-0.4252423531157002,0.2946737690384096,0.2742961461838141,-0.129160279273467,0.07253462569216985,5.0
0.4168170444950076,-0.4113634791741931,0.3111519045117455,0.21872257055094463,-0.11280557784503023,0.01745578492418614,5.0
0.42333317361476047,-0.40095433131006264,0.2575979552095598,0.16621210210809464,-0.14777080348608293,0.03626319391695811,5.0
0.46242994833327755,-0.3523782876987871,0.2575979552095598,0.08044501139030559,-0.08968340806405589,0.014769012503521734,5.0
0.5080428521715481,-0.34543883554403426,0.2287612271450653,-0.0652715326677394,-0.11393348923711984,0.05574229550286589,5.0
0.5569135924458612,-0.3523782876987871,0.21640261652621962,-0.11340612607177737,0.0061889983576790646,0.059772455157923066,5.0
0.5210748822872212,-0.4183029313289462,0.24111981973622373,-0.12697132268064767,0.0033692198774550835,0.049025363427144315,5.0
0.46242994833327755,-0.5085156271327415,0.28231517644725124,-0.10509195816088569,-0.006781975772920104,0.011410547489721515,5.0
0.4265912381746365,-0.5570916707440169,0.30703237965725527,-0.03595318591914596,-0.047386758374420794,-0.0759095613021745,5.0
0.4168170444950076,-0.5362733750157557,0.33998865060392736,0.016994864690436304,-0.0862996738877871,-0.13501855865303364,5.0
0.4559138192135255,-0.4946367531912345,0.34410819348610494,0.055064953510930215,-0.09475900588924348,-0.15181089089045874,5.0
0.5634297215656128,-0.404424057387439,0.30703237965725527,0.005617600263823057,-0.09927064801838627,-0.13434687322832184,5.0
0.560171657005737,-0.37666630950442476,0.26171749809173744,-0.02326315364374017,-0.018061081095777066,0.023501023894741617,5.0
0.46568801289315387,-0.4425909531345838,0.28643470130174153,-0.0053220819960579265,0.03889840809298379,0.1108211331986679,5.0
0.3809785624601981,-0.5466824925118874,0.3276300580127691,0.06906774296083064,-0.043439071081518905,0.09738727314346701,5.0
0.3972688852595805,-0.5987283229365369,0.2946737690384096,0.13514341334969987,-0.08968340806405589,0.03424811460145981,5.0
0.4559138192135255,-0.5744403011308993,0.28231517644725124,0.21215876332987565,-0.043439071081518905,-0.022174112888886394,5.0
0.4591718837734018,-0.5154550489194958,0.28231517644725124,0.21828497770991445,-0.03667160740416503,-0.04232490501980885,5.0
0.47872027113265814,-0.484227574959105,0.28643470130174153,0.19246734166666857,-0.027084367073670446,-0.0450116794885944,5.0
0.47872027113265814,-0.44953040528933663,0.2575979552095598,0.1522093126581942,0.009572729094732262,-0.061804011726019494,5.0
0.4982686584919176,-0.4252423531157002,0.2575979552095598,0.1705879771469066,0.02761930105051903,-0.06314739896041227,5.0
0.4982686584919176,-0.4252423531157002,0.2575979552095598,0.180214896895144,0.04115422399873178,-0.07926802938815643,5.0
0.47872027113265814,-0.39054518344593186,0.3317495648395722,0.16752486461973823,0.019159969049062645,-0.08262649747413833,5.0
0.4689460774530297,-0.38360573129117903,0.3317495648395722,0.13295547583029388,-0.0033982450358669004,-0.07792464215376363,5.0
0.4559138192135255,-0.3870754573685554,0.33586910772174977,0.10407471992129978,-0.032159964898858036,-0.06919263332269517,5.0
0.4461396255338944,-0.39054518344593186,0.3276300580127691,0.10144919689944346,-0.038363473363806806,-0.0725511014086771,5.0
0.4852364002524128,-0.4113634791741931,0.2575979552095598,0.08263294624113711,-0.005654064380830506,-0.05038522842616549,5.0
0.4982686584919176,-0.42871207919307663,0.2575979552095598,0.07125568048023662,-0.005090108684785695,-0.07322279502587349,5.0
0.4852364002524128,-0.4634092792308438,0.2575979552095598,0.03318559165974271,-0.002270333643777296,-0.04635506672298716,5.0
0.4331073672943902,-0.5362733750157557,0.2287612271450653,0.05769047586564292,-0.04851466890670649,-0.06314739896041227,5.0
0.43962349641414233,-0.5362733750157557,0.2658370229462278,0.0795698363825432,-0.10491019810040306,-0.061804011726019494,5.0
0.501526723051796,-0.4668790053082202,0.2287612271450653,0.0795698363825432,-0.04174720528309036,-0.13098839694985534,5.0
0.4819783356925365,-0.4738184270949743,0.27407609068289585,0.053752190999286624,0.02649138965842942,-0.17196168302138118,5.0
0.4559138192135255,-0.4738184270949743,0.28643470130174153,0.07781948770130565,-1.4510859598113611e-05,-0.24719131899246902,5.0
0.47872027113265814,-0.41483320525156947,0.2987933119205872,0.07038050547247422,0.10600908777329644,-0.2351008502679032,5.0
0.49175252937216496,-0.40095433131006264,0.27407609068289585,0.127704428452294,0.1657883502834578,-0.20554634749623144,5.0
0.4559138192135255,-0.37666630950442476,0.2534784303550694,0.06556704559835554,0.12969521325031552,-0.14442226929378305,5.0
0.44288156097401865,-0.32115081373839666,0.3111519045117455,0.05287701599152423,-0.10096251510652066,-0.1491241164216732,5.0
0.4689460774530297,-0.30727193979688944,0.3276300580127691,0.03756146136140575,-0.1641255049145197,-0.07187940779148072,5.0
0.4461396255338944,-0.32809023552515065,0.3523472431950859,-0.027639028682552157,-0.21544543886244033,0.09201372830213822,5.0
0.4363654318542665,-0.35931770948554137,0.31527144739392343,-0.07096016488104599,-0.20980589565885482,0.19478278619330883,5.0
0.472204142012906,-0.3662571616402942,0.34410819348610494,-0.010135539201602156,-0.059229819393322565,0.19814124608680617,5.0
0.543881334206357,-0.3662571616402942,0.2658370229462278,-0.010135539201602156,-0.017497127119340067,0.18940923725573774,5.0
0.5666877861254918,-0.35931770948554137,0.28643470130174153,0.0029920752405358767,0.07104386213224372,0.2135901910898385,5.0
0.5178168177273454,-0.3523782876987871,0.31527144739392343,-0.035515603752413694,0.07724736791030529,0.3002386103607805,5.0
0.4168170444950076,-0.38013603558180137,0.3235105151305912,-0.1151564760873022,-0.04287511581537606,0.4292037029376409,5.0
0.3809785624601981,-0.44606067921196024,0.28643470130174153,-0.16154071947581536,-0.19119536456780764,0.5823497165786639,5.0
0.3777204979003218,-0.5952585968591605,0.2452393626184014,-0.1768562661002105,-0.27522471512946434,0.5823497165786639,5.0
0.3581721105410631,-0.7444565145063609,0.1875658884617252,-0.1361606549250039,-0.34741098919574886,0.6286965679727301,5.0
0.3581721105410631,-0.7444565145063609,0.1875658884617252,0.051564256148455105,-0.3789924806605327,0.537346301573898,5.0
0.5764619798051202,-0.9110030018044457,0.08457752823260938,0.29792585004480293,-0.2458990326919972,0.3606910031385169,5.0
0.5764619798051202,-0.9110030018044457,0.08457752823260938,0.579732010406932,-0.03892742873742514,0.1208965374566137,5.0
0.6611714302380759,-0.6958804101590877,0.1669682101062115,0.7394513585920369,0.12461961886434357,-0.13972042216589292,5.0
0.4982686584919176,-0.39054518344593186,0.34410819348610494,0.6322424681754841,-0.028212277605956144,-0.29488154123595883,5.0
0.34839791686143395,-0.13378599275205183,0.5130090911016434,0.4025092047637707,-0.14946267057421733,-0.24517624633336443,5.0
0.338623723181805,-0.13378599275205183,0.4223793279706078,0.13032995347558118,-0.1675092390907885,-0.13703364769710738,5.0
0.4168170444950076,-0.04010358795287928,0.37294492155059966,-0.10771749385847079,-0.07953221241368072,-0.006053474268657691,5.0
0.48849446481228864,-0.18236205913932632,0.3523472431950859,-0.18692078402662698,-0.05302631189565318,0.08999864745054906,5.0
0.5047847876116723,-0.3315599616025271,0.2987933119205872,-0.1943597662554584,-0.06712519397912635,0.07253462569216985,5.0
0.5243329468470981,-0.4634092792308438,0.2575979552095598,-0.15979036946029068,-0.008473841141446689,0.02417271699990772,5.0
0.501526723051796,-0.5570916707440169,0.27407609068289585,-0.04601769317126453,-0.03328787543114373,0.006037000600271561,5.0
0.4950105939320407,-0.6056677143552922,0.28643470130174153,0.0524394311562175,-0.007345931468964896,-0.011427019109986501,5.0
0.46242994833327755,-0.6126071665100453,0.28643470130174153,0.1710255646507878,-0.0017063779477325101,0.016112398713853938,5.0
0.43962349641414233,-0.5883191447044074,0.2905542441839192,0.2528543745050823,0.011828548439695868,0.010738853872525128,5.0
0.4363654318542665,-0.5570916707440169,0.2781956335650735,0.348685979146426,-0.07953221241368072,-0.014113793578772032,5.0
0.49175252937216496,-0.4876973010364814,0.2287612271450653,0.3906943368218296,-0.11788117223100221,-0.01747225756851168,5.0
0.5178168177273454,-0.44953040528933663,0.18344634557954753,0.36443910793755335,-0.09137527515219028,0.0020068429933355362,5.0
0.5699458506853681,-0.32462050944777426,0.2122830916717293,0.30974071798674424,-0.23574783016319076,0.10141743075040306,5.0
0.5308490759668502,-0.3523782876987871,0.2575979552095598,0.26729474612171494,-0.18217207343109085,0.1497793384186046,5.0
0.4852364002524128,-0.39054518344593186,0.30703237965725527,0.2642316389316955,-0.11844512792704702,0.12358330373291468,5.0
0.338623723181805,-0.4668790053082202,0.34410819348610494,0.2944251500137534,-0.05528213296022457,0.04499520582020828,5.0
0.338623723181805,-0.4425909531345838,0.30703237965725527,0.31674209670024767,-0.11957303931913661,-0.033592896188740395,5.0
0.4331073672943902,-0.40095433131006264,0.20816354878955162,0.31236623233573346,-0.1308521463616014,-0.11889792822528951,5.0
0.49175252937216496,-0.38360573129117903,0.19168541331621558,0.3040520857734375,-0.0451309373098494,-0.1827087808965234,5.0
0.543881334206357,-0.33502968767990376,0.1875658884617252,0.19509285601565787,0.05525310952142056,-0.20621803292094323,5.0
0.5047847876116723,-0.3003324876421366,0.18344634557954753,0.10407471992129978,0.049613559439403765,-0.17733523195895226,5.0
0.4852364002524128,-0.2933930658553823,0.1875658884617252,0.04981390613293033,0.018596013353017832,-0.10613575769104273,5.0
0.46242994833327755,-0.32809023552515065,0.1875658884617252,0.00605518243055532,-0.005654064380830506,-0.06449077800232048,5.0
0.4461396255338944,-0.39401490952330825,0.2658370229462278,-0.015386589248176517,0.02254369978611583,-0.07120771417428433,5.0
0.46242994833327755,-0.41483320525156947,0.28643470130174153,-0.07927432211763982,0.033258851132535815,-0.15046750365606598,5.0
0.46242994833327755,-0.41483320525156947,0.28643470130174153,-0.11734440826955916,-0.011857573598107681,-0.06919263332269517,5.0
0.4950105939320407,-0.38360573129117903,0.2534784303550694,-0.12740890484737993,-0.0451309373098494,-0.00403839546518967,5.0
0.48849446481228864,-0.3870754573685554,0.2575979552095598,-0.16679176952238983,-0.05697399832875117,0.0013351493761391382,5.0
0.4689460774530297,-0.4078937834648154,0.28643470130174153,-0.20836254503106094,-0.11167766645294064,0.012082240082857331,5.0
0.4689460774530297,-0.4807578792497274,0.2575979552095598,-0.16022795162702283,-0.2588700068225962,0.04835367185806907,5.0
0.49175252937216496,-0.5223945010742486,0.26171749809173744,-0.15585208726250876,-0.2583060442481202,0.09067034106774542,5.0
0.5536555278859855,-0.5328036489383793,0.2575979552095598,-0.14491240500262786,-0.1567940877443685,0.19276769714923508,5.0
0.534107140526726,-0.5328036489383793,0.2205221594083973,-0.10421679382742118,-0.06768914967517115,0.24314469386151033,5.0
0.4363654318542665,-0.5605613968213934,0.1875658884617252,-0.08365019715645174,-0.10885788797271664,0.2532200899269717,5.0
0.3972688852595805,-0.5640311228987698,0.17108775298838916,-0.024575921492532713,-0.1308521463616014,0.24515976652061494,5.0
0.46568801289315387,-0.5675008489761462,0.12577287142287136,0.005180007422792927,-0.058665865416885565,0.19881294789648712,5.0
0.501526723051796,-0.5640311228987698,0.1381314730278734,0.050689081140692725,0.012392504135740653,0.17060183235920803,5.0
0.4591718837734018,-0.5466824925118874,0.19580495619839325,0.12332855875063096,0.06089265960343733,0.15649627459056847,5.0
0.3972688852595805,-0.5223945010742486,0.17932682072505718,0.15789794487150083,0.06766012795597491,0.07119123845777708,5.0
0.39401082069970395,-0.4738184270949743,0.2328807519995557,0.18634111661233183,0.14774178176688668,-0.00403839546518967,5.0
0.3614301751009403,-0.4252423531157002,0.3235105151305912,0.15833553237538203,0.0670961722599301,-0.09538866800838511,5.0
0.4005269498194566,-0.35931770948554137,0.3193909722484136,0.07694431269354325,-0.1235207291914502,-0.17666354653424052,5.0
0.615558754523636,-0.33502968767990376,0.2534784303550694,0.01480692717103031,-0.11957303931913661,-0.16994661036227657,5.0
0.6057845608440076,-0.3315599616025271,0.2287612271450653,-0.08977641153649057,-0.05415422156813498,0.03424811460145981,5.0
0.4950105939320407,-0.34543883554403426,0.2122830916717293,-0.14885068720040964,-0.0846078102388683,0.1444057976735181,5.0
0.46242994833327755,-0.4981064489006122,0.1875658884617252,-0.16460383734013276,-0.04118325001694751,0.14306241043912532,5.0
0.4559138192135255,-0.5397431010931322,0.19168541331621558,-0.13265995489395424,-0.06486937291455495,0.1437341040563217,5.0
0.4559138192135255,-0.5570916707440169,0.19168541331621558,-0.05827013260564027,-0.13028819066555658,0.150451032035801,5.0
0.4852364002524128,-0.5883191447044074,0.2452393626184014,0.04500044892738608,-0.09475900588924348,0.1114928268158643,5.0
0.4689460774530297,-0.5883191447044074,0.21640261652621962,0.13908169821605618,-0.1325440134497358,0.07320631930936625,5.0
0.4689460774530297,-0.6091374404326686,0.19580495619839325,0.25723024954389423,-0.05697399832875117,0.0879835665989599,5.0
0.4265912381746365,-0.5501522185892638,0.2287612271450653,0.348685979146426,-0.019188992487866666,0.07119123845777708,5.0
0.4168170444950076,-0.5258641967836262,0.20816354878955162,0.3863184724573153,0.05694497660955494,0.026187796571421167,5.0
0.46242994833327755,-0.4564698270760909,0.27407609068289585,0.3692525758173955,0.09078229085851805,-0.051728607468073715,5.0
0.46242994833327755,-0.4564698270760909,0.27407609068289585,0.2939875678470211,0.14661387037479715,-0.07926802938815643,5.0
0.4852364002524128,-0.38360573129117903,0.21640261652621962,0.23578846719086446,0.1392824532046459,-0.06314739896041227,5.0
0.5797200443649965,-0.35931770948554137,0.2699565658284055,0.1710255646507878,0.4274636006521707,0.014097319910385918,5.0
0.5699458506853681,-0.37666630950442476,0.2781956335650735,0.153959662673719,0.38685884556439504,-0.030906121719954844,5.0
0.4363654318542665,-0.4078937834648154,0.2452393626184014,0.25547989952836936,0.22613156161123296,-0.13367517141864088,5.0
0.4168170444950076,-0.4634092792308438,0.28231517644725124,0.3101783001534765,0.1849628301921186,-0.18472385355562798,5.0
0.4168170444950076,-0.47728815317235096,0.2987933119205872,0.346060443448841,0.2379746243497426,-0.23107068856472504,5.0
0.4037847862555018,-0.4183029313289462,0.3111519045117455,0.27210821400155705,0.02197974409007103,-0.225025454202442,5.0
0.4168170444950076,-0.39054518344593186,0.26171749809173744,0.19903114888773757,-0.05528213296022457,-0.16793152131820288,5.0
0.5080428521715481,-0.32809023552515065,0.17108775298838916,0.09225986532223088,0.032130939740446215,-0.11083760481893287,5.0
0.5927523026045033,-0.3176810876610202,0.20816354878955162,-0.013198657065919467,0.0061889983576790646,0.03223303502994636,5.0
0.5634297215656128,-0.39054518344593186,0.24935888747289173,-0.035078010911383566,-0.02482854600909905,0.17530367948709813,5.0
0.4559138192135255,-0.5085156271327415,0.2905542441839192,0.06294152324364281,-0.10434624240435825,0.16455658980444052,5.0
0.42333317361476047,-0.5987283229365369,0.30703237965725527,0.19903114888773757,-0.12859632357742218,0.0926854219193346,5.0
0.43962349641414233,-0.5779099664722779,0.34410819348610494,0.30974071798674424,-0.17935230182929807,0.07051954484058069,5.0
0.46568801289315387,-0.4981064489006122,0.3235105151305912,0.29748826787807064,-0.21262566726064758,0.07925155776789145,5.0
0.49175252937216496,-0.4217726574063226,0.2905542441839192,0.2515416066562898,-0.2475908929017004,0.08932695383335267,5.0
0.48849446481228864,-0.37666630950442476,0.27407609068289585,0.17408867184080723,-0.267329335384837,0.16522828342163695,5.0
0.4689460774530297,-0.3662571616402942,0.30703237965725527,0.12682925611310605,-0.33331210367306,0.19411108438362787,5.0
0.47872027113265814,-0.3627874355629178,0.24935888747289173,0.05594012585011813,-0.17935230182929807,0.16321320257004776,5.0
0.49175252937216496,-0.3662571616402942,0.27407609068289585,0.013931752163267917,-0.007909887165009689,0.14507749129071446,5.0
0.46568801289315387,-0.40095433131006264,0.2781956335650735,-0.027639028682552157,-0.01354943896663428,0.1323153207564677,5.0
0.4559138192135255,-0.44953040528933663,0.2658370229462278,-0.04426734315573976,-0.06092168648145696,0.09470049867468147,5.0
0.472204142012906,-0.49116702711385785,0.2452393626184014,-0.02151281430251329,-0.03892742873742514,0.07387801292656263,5.0
0.4559138192135255,-0.47034870101759785,0.2534784303550694,0.00124172522501109,-0.030468098670527535,0.030217955586440488,5.0
0.46242994833327755,-0.45993955315346735,0.2205221594083973,0.015244514674911516,-0.03610765208428444,0.014769012503521734,5.0
0.47872027113265814,-0.4391212270572074,0.1999244810528836,0.0078055324460801065,-0.04005533926971084,-0.01545718081316481,5.0
0.4852364002524128,-0.43565153134782975,0.20816354878955162,-0.01144830705039468,-0.05246235619960838,0.007380387834664337,5.0
0.47872027113265814,-0.432181805270453,0.21640261652621962,-0.01626176425593891,-0.037799518043926214,0.04365181858581551,5.0
0.46242994833327755,-0.44606067921196024,0.20816354878955162,-0.02370074648477032,-0.059229819393322565,0.07051954484058069,5.0
0.46242994833327755,-0.4564698270760909,0.21640261652621962,-0.022825571477007926,-0.09927064801838627,0.050368750661537086,5.0
0.46242994833327755,-0.4564698270760909,0.21640261652621962,-0.02326315364374017,-0.18781163039153884,0.060444148775119465,5.0
0.47872027113265814,-0.49116702711385785,0.2205221594083973,-0.006634839170552583,-0.1996546931300484,0.0805949450022842,5.0
0.501526723051796,-0.4668790053082202,0.2287612271450653,0.02968489162869314,-0.17596856765302926,0.027531182909760938,5.0
0.501526723051796,-0.4668790053082202,0.2287612271450653,0.03318559165974271,-0.10772997658062705,-0.0026950102789180426,5.0
0.4852364002524128,-0.4564698270760909,0.2246416842628877,0.04368768641574249,-0.13874751922779735,0.0335764214962937,5.0
0.46242994833327755,-0.432181805270453,0.28231517644725124,0.0069303574383177136,-0.05415422156813498,0.014097319910385918,5.0
0.47872027113265814,-0.40095433131006264,0.2781956335650735,0.022683496903742925,0.0073169063105530605,0.013425626293189531,5.0
0.4559138192135255,-0.38360573129117903,0.3029128367750776,-0.03595318591914596,-0.007345931468964896,0.014097319910385918,5.0
0.44939769009377023,-0.41483320525156947,0.2370002948817334,-0.017574521430433566,-0.09250318310506428,0.018127478541382525,5.0
0.4689460774530297,-0.4738184270949743,0.20816354878955162,-0.007510014178314976,-0.04851466890670649,0.006037000600271561,5.0
0.5113006886075934,-0.49116702711385785,0.2246416842628877,0.030122479132574338,-0.05302631189565318,0.026859489676587266,5.0
0.49175252937216496,-0.4564698270760909,0.2246416842628877,-0.014073832073681859,-0.05246235619960838,0.05507060188566952,5.0
0.44939769009377023,-0.4668790053082202,0.21640261652621962,-0.019762464286988482,-0.07276474750035873,0.07387801292656263,5.0
0.4559138192135255,-0.4668790053082202,0.1875658884617252,-0.01582417141490878,-0.07389265889244832,0.08395340899202385,5.0
0.49175252937216496,-0.49116702711385785,0.1669682101062115,0.028372134454198474,-0.030468098670527535,0.0496970570443407,5.0
0.49175252937216496,-0.4738184270949743,0.2205221594083973,0.03799904886528693,-0.050206535135036985,0.09201372830213822,5.0
0.4689460774530297,-0.4668790053082202,0.2370002948817334,0.050251493636811514,-0.023136679780768554,0.0879835665989599,5.0
0.44939769009377023,-0.4738184270949743,0.2452393626184014,0.04806355611740553,-0.010165706509973288,0.07454970654375902,5.0
0.46568801289315387,-0.47728815317235096,0.21640261652621962,0.026621784438673697,0.006752950614508274,0.04298012599267969,5.0
0.47872027113265814,-0.484227574959105,0.1875658884617252,0.005617600263823057,-0.015805260031205675,0.07320631930936625,5.0
0.48849446481228864,-0.4668790053082202,0.17932682072505718,0.02005797721760468,-0.03497974144452325,0.08261002175763109,5.0
0.47872027113265814,-0.4981064489006122,0.18344634557954753,0.05856565087340532,-0.01354943896663428,0.0752213960647131,5.0
0.46242994833327755,-0.5223945010742486,0.1752072778428795,0.10538748176579976,-0.06768914967517115,0.04768197824087268,5.0
0.4689460774530297,-0.5189247749968722,0.20816354878955162,0.1443327429254816,-0.0862996738877871,0.05171213789592987,5.0
0.4689460774530297,-0.5085156271327415,0.2575979552095598,0.1399568705552441,-0.12126490640727101,0.09335711553653099,5.0
0.49175252937216496,-0.47034870101759785,0.15872914236954347,0.1360185856888878,-0.12013699501518141,0.10007404351601029,5.0
0.501526723051796,-0.44953040528933663,0.17932682072505718,0.11939027254998742,-0.1269044564892878,0.11014943958147151,5.0
0.4852364002524128,-0.4634092792308438,0.19580495619839325,0.10232437124006223,-0.129160279273467,0.12358330373291468,5.0
0.45265575465364916,-0.4946367531912345,0.19580495619839325,0.1316427133186503,-0.126340500793243,0.1323153207564677,5.0
0.4363654318542665,-0.505045901055365,0.17932682072505718,0.16446175742971877,-0.09645086953816227,0.11820976298782815,5.0
0.4363654318542665,-0.5223945010742486,0.1752072778428795,0.20078149890326236,-0.07671243393345673,0.07454970654375902,5.0
0.4591718837734018,-0.505045901055365,0.15872914236954347,0.1972807988722128,0.006752950614508274,0.04499520582020828,5.0
0.4461396255338944,-0.4634092792308438,0.1875658884617252,0.16577451460421344,0.016904149704099043,0.03424811460145981,5.0
0.4461396255338944,-0.43565153134782975,0.20816354878955162,0.15571001268924378,0.04059026830268698,0.0033502281796071597,5.0
0.4461396255338944,-0.4668790053082202,0.1999244810528836,0.11851509887651226,0.014648326919919843,-0.013442099961575651,5.0
0.4591718837734018,-0.4668790053082202,0.20816354878955162,0.11763992386874987,-0.05753795402479596,-0.019487338420100853,5.0
0.5243329468470981,-0.4668790053082202,0.19168541331621558,0.12901719096393757,0.04341004678291097,0.025516103466255064,5.0
0.5113006886075934,-0.4738184270949743,0.1752072778428795,0.13689376069665019,0.025363478266339824,0.0470102846236763,5.0
0.4559138192135255,-0.5154550489194958,0.17932682072505718,0.14739585545264997,-0.019188992487866666,0.042308432375483304,5.0
0.4591718837734018,-0.5154550489194958,0.19168541331621558,0.18240282907740105,-0.010165706509973288,0.03491980770662591,5.0
0.46568801289315387,-0.5085156271327415,0.20404402393506127,0.19946873105446986,-0.02934018813824184,0.0335764214962937,5.0
0.43962349641414233,-0.5085156271327415,0.2205221594083973,0.213033938337638,-0.0355436967106661,0.030217955586440488,5.0
0.47872027113265814,-0.49116702711385785,0.1999244810528836,0.2222232705819942,-0.032723920165000885,0.023501023894741617,5.0
0.4689460774530297,-0.4668790053082202,0.1752072778428795,0.22616155277977604,-0.05584608865626938,0.040293353572015286,5.0
0.4559138192135255,-0.4668790053082202,0.20816354878955162,0.2034070132522517,-0.06712519397912635,0.020814250962046928,5.0
0.4591718837734018,-0.4807578792497274,0.2452393626184014,0.23578846719086446,-0.06543332861059975,-0.03426458980593678,5.0
0.4852364002524128,-0.4668790053082202,0.24111981973622373,0.2904868678159715,-0.04964257943899219,-0.09740374885997427,5.0
0.5471393987662329,-0.38360573129117903,0.2452393626184014,0.2576678317106265,-0.012421529294152493,-0.08329819109133473,5.0
0.5178168177273454,-0.34196910946665776,0.2246416842628877,0.1618362324064316,-0.004526152988740902,0.019470864751714726,5.0
0.4461396255338944,-0.3662571616402942,0.24935888747289173,0.09401021433704024,-0.026520411377625647,0.07857986415069504,5.0
0.4298493027345131,-0.4391212270572074,0.2452393626184014,0.07431879033883053,-0.07558452598058273,0.08596848984361302,5.0
0.4461396255338944,-0.49116702711385785,0.20816354878955162,0.08613364493789945,-0.10039855941047585,0.08865526021615627,5.0
0.5080428521715481,-0.5015761749779886,0.18344634557954753,0.1285796034600564,-0.07050892815539514,0.06917615760618792,5.0
0.5080428521715481,-0.5015761749779886,0.18344634557954753,0.12726684361698726,-0.060357730785412164,0.08395340899202385,5.0
0.4689460774530297,-0.49116702711385785,0.1752072778428795,0.1377689357044126,-0.11224162214898545,0.09537219229187785,5.0
0.4461396255338944,-0.5119853228421191,0.18344634557954753,0.1373313482005314,-0.11506139375077822,0.0685044680852338,5.0
0.472204142012906,-0.484227574959105,0.1999244810528836,0.14652068044488759,-0.11167766645294064,0.08664018346080941,5.0
0.47872027113265814,-0.47034870101759785,0.1999244810528836,0.13032995347558118,-0.06092168648145696,0.09537219229187785,5.0
0.4852364002524128,-0.4564698270760909,0.1875658884617252,0.10144919689944346,-0.05302631189565318,0.09335711553653099,5.0
0.4852364002524128,-0.4425909531345838,0.18344634557954753,0.08175777256766194,-0.04061929475080466,0.11820976298782815,5.0
0.4852364002524128,-0.4425909531345838,0.18344634557954753,0.04368768641574249,-0.05697399832875117,0.11753806937063177,5.0
0.4689460774530297,-0.4876973010364814,0.20816354878955162,0.04587561859799955,-0.058665865416885565,0.09335711553653099,5.0
0.4591718837734018,-0.5085156271327415,0.20816354878955162,0.06250393573976162,-0.05246235619960838,0.06917615760618792,5.0
0.4591718837734018,-0.5085156271327415,0.20816354878955162,0.09882367371080122,-0.07276474750035873,0.03491980770662591,5.0
0.47872027113265814,-0.484227574959105,0.1875658884617252,0.06863015545694945,-0.0456948921460903,0.06783277446803743,5.0
0.4461396255338944,-0.4634092792308438,0.1999244810528836,0.031872829148099135,-0.08799154097592149,0.07387801292656263,5.0
0.4461396255338944,-0.4634092792308438,0.1999244810528836,0.002554482399505747,-0.08235198745468911,0.06783277446803743,5.0
0.45265575465364916,-0.4564698270760909,0.1999244810528836,0.00124172522501109,-0.08009616810972552,0.04768197824087268,5.0
0.47872027113265814,-0.4981064489006122,0.2287612271450653,-7.103194948356669e-05,-0.0840438545428235,0.04163673978234749,5.0
0.4689460774530297,-0.4981064489006122,0.1752072778428795,-0.00094620695724596,-0.051898400503563584,0.03559150081179201,5.0
0.4852364002524128,-0.4876973010364814,0.1752072778428795,0.0069303574383177136,-0.018061081095777066,0.044323512203011894,5.0
0.4852364002524128,-0.484227574959105,0.19580495619839325,-0.009697957034869894,-1.4510859598113611e-05,0.03088964881961416,5.0
0.46568801289315387,-0.5015761749779886,0.2122830916717293,0.0078055324460801065,-0.02144481355243806,0.058429067923530295,5.0
0.4559138192135255,-0.5223945010742486,0.21640261652621962,0.039311811376930524,-0.04061929475080466,0.04566689841334409,5.0
0.4689460774530297,-0.5466824925118874,0.19580495619839325,0.07869466137478079,-0.023136679780768554,0.03088964881961416,5.0
0.4950105939320407,-0.5293339228610027,0.18344634557954753,0.11020094163991846,-0.01072966220601808,0.050368750661537086,5.0
0.4852364002524128,-0.5015761749779886,0.1752072778428795,0.0835081212488995,0.005625042661634273,0.07857986415069504,5.0
0.4461396255338944,-0.4668790053082202,0.20816354878955162,0.05769047586564292,-0.02200876924848286,0.05171213789592987,5.0
0.46242994833327755,-0.4738184270949743,0.1999244810528836,0.06031599822035564,-0.032159964898858036,0.0409650461651511,5.0
0.4754622065727818,-0.4981064489006122,0.1875658884617252,0.08175777256766194,-0.019188992487866666,0.013425626293189531,5.0
0.4819783356925365,-0.4981064489006122,0.20816354878955162,0.07431879033883053,0.003933175573499876,0.03424811460145981,5.0
0.4754622065727818,-0.49116702711385785,0.20816354878955162,0.05812806336952412,-0.014113394662679076,0.049025363427144315,5.0
0.472204142012906,-0.4981064489006122,0.17932682072505718,0.06600463310223673,-0.0005784665556429061,0.059100761540726694,5.0
0.4689460774530297,-0.5154550489194958,0.1669682101062115,0.08482088242625585,-0.026520411377625647,0.03491980770662591,5.0
0.46242994833327755,-0.5640311228987698,0.1381314730278734,0.10801300545479971,-0.05246235619960838,0.0470102846236763,5.0
0.4591718837734018,-0.5466824925118874,0.1463705407645414,0.13908169821605618,-0.06261355184998356,0.03559150081179201,5.0
0.4689460774530297,-0.5328036489383793,0.15872914236954347,0.15527242518536258,-0.0829159431507339,0.04298012599267969,5.0
0.4754622065727818,-0.5223945010742486,0.1463705407645414,0.15877311987926324,-0.07614847823741192,0.050368750661537086,5.0
0.46568801289315387,-0.5085156271327415,0.1875658884617252,0.1530844876659566,-0.06148564217750177,0.04835367185806907,5.0
0.4754622065727818,-0.49116702711385785,0.21640261652621962,0.151771725154313,-0.033851830697286575,0.05238382946500511,5.0
0.4689460774530297,-0.5085156271327415,0.20816354878955162,0.15002137513878822,-0.026520411377625647,0.04768197824087268,5.0
0.4689460774530297,-0.5085156271327415,0.19580495619839325,0.1447703304293628,-0.04118325001694751,0.03760658012729031,5.0
0.47872027113265814,-0.4981064489006122,0.17108775298838916,0.15571001268924378,-0.019752948183911465,0.03559150081179201,5.0
0.46568801289315387,-0.4981064489006122,0.17932682072505718,0.1929049238334008,-0.016933171423295278,0.012082240082857331,5.0
0.46568801289315387,-0.505045901055365,0.19168541331621558,0.20253183824448928,-0.03949138400356799,0.009395466638132354,5.0
0.48849446481228864,-0.49116702711385785,0.1875658884617252,0.18371559158904463,-0.06543332861059975,0.019470864751714726,5.0
0.472204142012906,-0.49116702711385785,0.17932682072505718,0.1797773093912628,-0.07163683610826914,0.0470102846236763,5.0
0.46568801289315387,-0.484227574959105,0.1999244810528836,0.1543972501776002,-0.06430541893811795,0.06984785122338431,5.0
0.4559138192135255,-0.4981064489006122,0.1752072778428795,0.1320803008225315,-0.023700634617009456,0.04298012599267969,5.0
0.46242994833327755,-0.5015761749779886,0.1875658884617252,0.12157820873510618,-0.0440030267775637,0.06245922757858747,5.0
0.47872027113265814,-0.505045901055365,0.15460960850120944,0.12945477846781878,-0.023136679780768554,0.0369348875341545,5.0
0.48849446481228864,-0.505045901055365,0.16284867623787747,0.12901719096393757,-0.023700634617009456,0.03088964881961416,5.0
0.46568801289315387,-0.5085156271327415,0.1875658884617252,0.1403944580591253,-0.05697399832875117,0.03088964881961416,5.0
0.47872027113265814,-0.5154550489194958,0.20404402393506127,0.151771725154313,-0.02595645654138475,0.021485944579243316,5.0
0.4754622065727818,-0.5085156271327415,0.19580495619839325,0.16621210210809464,-0.028776233302000943,0.014769012503521734,5.0
0.4559138192135255,-0.4981064489006122,0.19580495619839325,0.15571001268924378,-0.007345931468964896,0.022157637684409415,5.0
0.4559138192135255,-0.484227574959105,0.19580495619839325,0.14870861796429358,0.0016773527893206742,-0.009411942354639624,5.0
0.46568801289315387,-0.4738184270949743,0.19580495619839325,0.1338306508380563,-0.003962197292696109,-0.022845806506082773,5.0
0.4754622065727818,-0.4668790053082202,0.1999244810528836,0.13295547583029388,0.003933175573499876,-0.02418918964423326,5.0
0.4754622065727818,-0.4668790053082202,0.1999244810528836,0.0918222784854933,-0.003962197292696109,0.0020068429933355362,5.0
0.46568801289315387,-0.45993955315346735,0.1875658884617252,0.07650672518966205,-0.018061081095777066,-0.005381782699582443,5.0
0.472204142012906,-0.47034870101759785,0.19580495619839325,0.07738190019742444,-0.014113394662679076,0.005365309031196316,5.0
0.4754622065727818,-0.4738184270949743,0.1999244810528836,0.0830705337450183,-0.024264590313054252,-0.008068555120246844,5.0
0.46242994833327755,-0.47728815317235096,0.1752072778428795,0.08219536007154314,-0.04174720528309036,-0.01209871272718288,5.0
0.46568801289315387,-0.4738184270949743,0.17932682072505718,0.08132018506378075,-0.014677350358723884,-0.02553257687862604,5.0
0.4689460774530297,-0.47034870101759785,0.19580495619839325,0.06031599822035564,-0.009037796837491497,-0.008068555120246844,5.0
0.4689460774530297,-0.4738184270949743,0.18344634557954753,0.03843663636916814,-0.027648321909911344,-0.020159032037297235,5.0
0.46242994833327755,-0.47034870101759785,0.1875658884617252,0.04237492390409891,-0.0445669816138046,-0.004710089082386045,5.0
0.4689460774530297,-0.4668790053082202,0.1875658884617252,0.06031599822035564,-0.047386758374420794,-0.026875964113018815,5.0
0.4819783356925365,-0.49116702711385785,0.18344634557954753,0.06600463310223673,-0.03667160740416503,-0.0450116794885944,5.0
0.46568801289315387,-0.484227574959105,0.1999244810528836,0.04937631862904912,-0.03610765208428444,-0.02351749602703689,5.0
0.4591718837734018,-0.4738184270949743,0.19580495619839325,0.046750793605761946,-0.004526152988740902,-0.021502419271690013,5.0
0.472204142012906,-0.4876973010364814,0.17108775298838916,0.05681530085788053,-0.007909887165009689,-0.014113793578772032,5.0
0.4950105939320407,-0.5015761749779886,0.17932682072505718,0.0835081212488995,0.0033692198774550835,-0.008740248737443222,5.0
0.4982686584919176,-0.4738184270949743,0.17932682072505718,0.08832158045587457,0.02141578839402623,-0.00739686150305045,5.0
0.4591718837734018,-0.4807578792497274,0.24111981973622373,0.07563155151618689,0.009572729094732262,0.022829330789575518,5.0
0.4461396255338944,-0.484227574959105,0.2205221594083973,0.06031599822035564,-0.03610765208428444,0.021485944579243316,5.0
0.46242994833327755,-0.4634092792308438,0.1875658884617252,0.07081809297635543,-0.04287511581537606,0.007380387834664337,5.0
0.48849446481228864,-0.47728815317235096,0.2205221594083973,0.10144919689944346,-0.02539250084533995,-0.005381782699582443,5.0
0.4950105939320407,-0.484227574959105,0.20816354878955162,0.10144919689944346,-0.003962197292696109,0.020814250962046928,5.0
0.46568801289315387,-0.45300010099871424,0.2122830916717293,0.08963434230037455,-0.027084367073670446,0.04499520582020828,5.0
0.46242994833327755,-0.4668790053082202,0.20816354878955162,0.05987841071647444,-0.051898400503563584,0.04499520582020828,5.0
0.46242994833327755,-0.484227574959105,0.20816354878955162,0.06031599822035564,-0.05133444566732268,0.016112398713853938,5.0
0.47872027113265814,-0.49116702711385785,0.18344634557954753,0.07300602782718695,-0.022572724944527656,0.004021921796803538,5.0
0.4852364002524128,-0.47728815317235096,0.19168541331621558,0.0874464061152558,-0.02088085785639326,0.013425626293189531,5.0
0.46568801289315387,-0.4738184270949743,0.19580495619839325,0.09225986532223088,-0.014677350358723884,0.02417271699990772,5.0
0.47872027113265814,-0.4564698270760909,0.1669682101062115,0.11457681267586872,-0.006781975772920104,0.012753932675993146,5.0
0.4819783356925365,-0.4634092792308438,0.1669682101062115,0.10845059229153729,0.012392504135740653,0.024844410105073822,5.0
0.49175252937216496,-0.44953040528933663,0.19580495619839325,0.11676474886098748,-0.0033982450358669004,-0.008068555120246844,5.0
0.4982686584919176,-0.4738184270949743,0.2122830916717293,0.1513341376504318,-0.012421529294152493,-0.06449077800232048,5.0
0.46568801289315387,-0.4876973010364814,0.24935888747289173,0.19859355604670745,-0.11449744493316463,-0.07389448864306991,5.0
0.46568801289315387,-0.4876973010364814,0.24935888747289173,0.21784739554318225,-0.10265438219465506,-0.07658125491937086,5.0
0.4754622065727818,-0.4183029313289462,0.2287612271450653,0.2055949561088066,-0.09927064801838627,0.016112398713853938,5.0
0.4754622065727818,-0.4183029313289462,0.2287612271450653,0.15002137513878822,-0.05753795402479596,0.08395340899202385,5.0
0.4819783356925365,-0.41483320525156947,0.17108775298838916,0.051564256148455105,0.015212282615964648,0.1262700782017002,5.0
0.4852364002524128,-0.42871207919307663,0.1875658884617252,-0.05827013260564027,0.015776238312009448,0.127613465436093,5.0
0.45265575465364916,-0.4668790053082202,0.2122830916717293,-0.12434580833165831,-0.01072966220601808,0.11820976298782815,5.0
0.4331073672943902,-0.5085156271327415,0.1875658884617252,-0.08846364368769806,-0.008473841141446689,0.08328171537482748,5.0
0.4461396255338944,-0.5570916707440169,0.19580495619839325,0.016994864690436304,-0.016933171423295278,0.051040444278733485,5.0
0.4559138192135255,-0.5813796925496546,0.21640261652621962,0.11545198768363112,-0.0456948921460903,0.023501023894741617,5.0
0.4852364002524128,-0.5570916707440169,0.20816354878955162,0.16577451460421344,-0.07332870319640353,0.051040444278733485,5.0
0.4982686584919176,-0.5189247749968722,0.17108775298838916,0.19071699165114378,0.005625042661634273,0.058429067923530295,5.0
0.4852364002524128,-0.4981064489006122,0.20404402393506127,0.22528637777201366,0.012392504135740653,0.024844410105073822,5.0
0.46568801289315387,-0.4876973010364814,0.20404402393506127,0.22791190279530082,0.020287880441152227,-0.00403839546518967,5.0
0.44939769009377023,-0.47034870101759785,0.1875658884617252,0.22616155277977604,0.014648326919919843,-0.018143951185708083,5.0
0.4689460774530297,-0.4252423531157002,0.1999244810528836,0.16796245212361943,-0.007909887165009689,0.010738853872525128,5.0
0.47872027113265814,-0.39054518344593186,0.21640261652621962,0.09794849924509302,0.0033692198774550835,0.0470102846236763,5.0
0.47872027113265814,-0.35931770948554137,0.20404402393506127,0.04149974889633651,0.018596013353017832,0.05238382946500511,5.0
0.472204142012906,-0.38360573129117903,0.1999244810528836,0.01130623247712968,0.016340194008054258,0.0409650461651511,5.0
0.4754622065727818,-0.4217726574063226,0.2122830916717293,0.04018698638469292,0.033258851132535815,0.0396216599548189,5.0
0.4819783356925365,-0.44953040528933663,0.20816354878955162,0.06469187059059314,-0.0005784665556429061,0.018127478541382525,5.0
0.5080428521715481,-0.5154550489194958,0.2246416842628877,0.13689376069665019,0.08852646807433885,0.05775737635445506,5.0
0.47872027113265814,-0.5432128271705086,0.2287612271450653,0.22353602775648887,-0.011293617902062889,0.042308432375483304,5.0
0.46242994833327755,-0.5640311228987698,0.17932682072505718,0.32899454680892115,-0.020316903879956265,0.032904728391127604,5.0
0.4689460774530297,-0.5466824925118874,0.17108775298838916,0.4086354191438095,-0.08178803175864431,0.06984785122338431,5.0
0.4559138192135255,-0.5119853228421191,0.1999244810528836,0.4357658337101459,-0.0908113194561455,0.0496970570443407,5.0
0.4461396255338944,-0.4738184270949743,0.2246416842628877,0.3819426080928013,-0.1252125894011534,0.038949966337622516,5.0
0.44288156097401865,-0.432181805270453,0.2575979552095598,0.3228683324288823,-0.14833475918212774,0.07253462569216985,5.0
0.4461396255338944,-0.4183029313289462,0.2287612271450653,0.29748826787807064,-0.14607893639794856,0.07253462569216985,5.0
0.43962349641414233,-0.432181805270453,0.20816354878955162,0.2865485856181897,-0.10491019810040306,0.02417271699990772,5.0
0.47872027113265814,-0.4425909531345838,0.20816354878955162,0.2681699211294773,-0.08009616810972552,0.006708694217467943,5.0
0.48849446481228864,-0.4425909531345838,0.2122830916717293,0.2594181817261513,-0.03159600963271519,-0.0026950102789180426,5.0
0.48849446481228864,-0.4252423531157002,0.2287612271450653,0.19903114888773757,-0.0440030267775637,-0.01277040634437928,5.0
0.4852364002524128,-0.432181805270453,0.2452393626184014,0.16533693243748118,-0.0451309373098494,0.012082240082857331,5.0
0.4852364002524128,-0.44606067921196024,0.2287612271450653,0.16708727711585702,-0.04118325001694751,-0.01545718081316481,5.0
0.4819783356925365,-0.4668790053082202,0.2205221594083973,0.16577451460421344,-0.020316903879956265,0.004021921796803538,5.0
0.472204142012906,-0.4807578792497274,0.2534784303550694,0.17540143435245084,-0.024264590313054252,0.016784092331050323,5.0
0.4689460774530297,-0.4946367531912345,0.2370002948817334,0.20034390606223224,-0.020316903879956265,-0.01747225756851168,5.0
0.5178168177273454,-0.5258641967836262,0.2287612271450653,0.21522187051989505,0.10375326498911722,-0.04904184119177272,5.0
0.46242994833327755,-0.5328036489383793,0.27407609068289585,0.2331629528418752,0.02141578839402623,0.015440706120718118,5.0
0.4363654318542665,-0.5085156271327415,0.2534784303550694,0.20778288829106364,-0.012421529294152493,0.014097319910385918,5.0
0.46242994833327755,-0.4738184270949743,0.2370002948817334,0.1775893718718568,0.03043907265231182,0.04633859100647991,5.0
0.4689460774530297,-0.45300010099871424,0.17932682072505718,0.14783344295653117,0.06202057099552693,0.09671557952627062,5.0
0.44939769009377023,-0.44953040528933663,0.20816354878955162,0.09007192913711214,0.02085183269798143,0.10074573713320664,5.0
0.43962349641414233,-0.4668790053082202,0.2575979552095598,0.07519396401230569,-0.004526152988740902,0.1114928268158643,5.0
0.4331073672943902,-0.4807578792497274,0.2246416842628877,0.09357262716673086,-0.0028342893398221078,0.0752213960647131,5.0
0.4754622065727818,-0.4668790053082202,0.2370002948817334,0.09838608645709888,-0.012985483270589472,0.0369348875341545,5.0
0.49175252937216496,-0.432181805270453,0.2122830916717293,0.08832158045587457,-0.026520411377625647,0.02417271699990772,5.0
0.4950105939320407,-0.41483320525156947,0.24111981973622373,0.05594012585011813,-0.002270333643777296,0.009395466638132354,5.0
0.4689460774530297,-0.41483320525156947,0.2452393626184014,0.05331460349540543,-0.016933171423295278,-0.00672516788585407,5.0
0.46568801289315387,-0.4113634791741931,0.2699565658284055,0.048938731125167924,-0.006781975772920104,-0.019487338420100853,5.0
0.4689460774530297,-0.4217726574063226,0.2452393626184014,0.05769047586564292,-0.014677350358723884,-0.04165321140261247,5.0
0.472204142012906,-0.4078937834648154,0.2575979552095598,0.0432500989118613,-0.0355436967106661,0.0013351493761391382,5.0
0.4852364002524128,-0.41483320525156947,0.24935888747289173,0.024433846919267713,-0.04118325001694751,0.014097319910385918,5.0
0.47872027113265814,-0.43565153134782975,0.28231517644725124,0.01480692717103031,-0.05077049083108179,0.015440706120718118,5.0
0.4689460774530297,-0.484227574959105,0.27407609068289585,0.020933152225367083,-0.0456948921460903,0.00872377506905711,5.0
0.4591718837734018,-0.45993955315346735,0.2575979552095598,0.06906774296083064,-0.05077049083108179,-0.01545718081316481,5.0
0.472204142012906,-0.484227574959105,0.2370002948817334,0.08832158045587457,-0.05979377508936736,-0.019487338420100853,5.0
0.472204142012906,-0.484227574959105,0.2370002948817334,0.08219536007154314,-0.05415422156813498,-0.02418918964423326,5.0
0.4819783356925365,-0.44953040528933663,0.2287612271450653,0.07606913902006808,-0.0445669816138046,0.023501023894741617,5.0
0.4819783356925365,-0.44953040528933663,0.2287612271450653,0.07300602782718695,-0.047386758374420794,0.038949966337622516,5.0
0.46242994833327755,-0.45993955315346735,0.24935888747289173,0.07694431269354325,-0.05584608865626938,0.022157637684409415,5.0
0.47872027113265814,-0.4738184270949743,0.2328807519995557,0.10276195874394344,-0.051898400503563584,0.0006634557589427556,5.0
0.4754622065727818,-0.49116702711385785,0.2287612271450653,0.10845059229153729,-0.047386758374420794,-0.0020233166617216448,5.0
0.4754622065727818,-0.49116702711385785,0.2287612271450653,0.11545198768363112,-0.06374146324207315,0.006708694217467943,5.0
0.47872027113265814,-0.4564698270760909,0.2575979552095598,0.12507890609758127,-0.028212277605956144,-0.00403839546518967,5.0
0.47872027113265814,-0.4564698270760909,0.2575979552095598,0.103199545580681,-0.043439071081518905,0.014769012503521734,5.0
0.4754622065727818,-0.44606067921196024,0.21640261652621962,0.07563155151618689,-0.03949138400356799,0.011410547489721515,5.0
0.47872027113265814,-0.4391212270572074,0.2246416842628877,0.06687980810999912,-0.0445669816138046,0.038278273744486696,5.0
0.4689460774530297,-0.432181805270453,0.2575979552095598,0.05769047586564292,-0.06261355184998356,0.042308432375483304,5.0
0.46242994833327755,-0.4564698270760909,0.2575979552095598,0.07563155151618689,-0.058665865416885565,0.04163673978234749,5.0
0.47872027113265814,-0.4807578792497274,0.24111981973622373,0.09401021433704024,-0.03892742873742514,0.03559150081179201,5.0
0.47872027113265814,-0.484227574959105,0.2370002948817334,0.10144919689944346,-0.0462588478421351,0.06313092119578387,5.0
0.4689460774530297,-0.49116702711385785,0.20816354878955162,0.10713783044703731,-0.05415422156813498,0.03491980770662591,5.0
0.46242994833327755,-0.4807578792497274,0.26171749809173744,0.11151370281727481,-0.03667160740416503,0.03760658012729031,5.0
0.46568801289315387,-0.47034870101759785,0.21640261652621962,0.12245338374286857,-0.04795071407046559,0.044323512203011894,5.0
0.4819783356925365,-0.45993955315346735,0.20816354878955162,0.12070303372734378,-0.026520411377625647,0.0335764214962937,5.0
0.46242994833327755,-0.4634092792308438,0.2287612271450653,0.1285796034600564,-0.04851466890670649,0.038278273744486696,5.0
0.46242994833327755,-0.4564698270760909,0.2370002948817334,0.12157820873510618,-0.032723920165000885,0.026859489676587266,5.0
0.46242994833327755,-0.44953040528933663,0.2452393626184014,0.11020094163991846,-0.027648321909911344,0.024844410105073822,5.0
0.4689460774530297,-0.44953040528933663,0.2205221594083973,0.12332855875063096,-0.01072966220601808,0.010067160255328741,5.0
0.47872027113265814,-0.4564698270760909,0.2122830916717293,0.10451230742518099,-0.016369215727250468,0.006037000600271561,5.0
0.4819783356925365,-0.4564698270760909,0.20404402393506127,0.11676474886098748,-0.038363473363806806,0.018127478541382525,5.0
0.472204142012906,-0.44953040528933663,0.2328807519995557,0.10188678406975285,-0.019188992487866666,0.03088964881961416,5.0
0.4559138192135255,-0.45300010099871424,0.24111981973622373,0.08263294624113711,-0.04795071407046559,0.038949966337622516,5.0
0.46242994833327755,-0.4425909531345838,0.2575979552095598,0.09357262716673086,-0.038363473363806806,0.038278273744486696,5.0
0.472204142012906,-0.45300010099871424,0.2370002948817334,0.09094710414487452,-0.014677350358723884,0.026859489676587266,5.0
0.4689460774530297,-0.47034870101759785,0.2452393626184014,0.0913846909816121,-0.028776233302000943,0.026187796571421167,5.0
0.46568801289315387,-0.4668790053082202,0.2122830916717293,0.09882367371080122,-0.033851830697286575,0.013425626293189531,5.0
0.47872027113265814,-0.4564698270760909,0.21640261652621962,0.0913846909816121,-0.027084367073670446,0.01879917215857891,5.0
0.472204142012906,-0.4564698270760909,0.27407609068289585,0.09532297601475431,-0.008473841141446689,0.026859489676587266,5.0
0.4559138192135255,-0.44953040528933663,0.27407609068289585,0.0874464061152558,-0.03949138400356799,0.016784092331050323,5.0
0.46242994833327755,-0.4668790053082202,0.2658370229462278,0.09094710414487452,-0.037799518043926214,0.009395466638132354,5.0
0.472204142012906,-0.4668790053082202,0.2575979552095598,0.11632716269139351,-0.01862503679182186,0.014769012503521734,5.0
0.4689460774530297,-0.45300010099871424,0.2575979552095598,0.10451230742518099,-0.015805260031205675,0.015440706120718118,5.0
0.472204142012906,-0.43565153134782975,0.2287612271450653,0.0830705337450183,-0.02934018813824184,0.03559150081179201,5.0
0.4754622065727818,-0.432181805270453,0.2287612271450653,0.06556704559835554,-0.03610765208428444,0.02417271699990772,5.0
0.4754622065727818,-0.4425909531345838,0.2534784303550694,0.06775498044918705,-0.032723920165000885,0.026187796571421167,5.0
0.46568801289315387,-0.45300010099871424,0.24935888747289173,0.06600463310223673,-0.031032054366572335,0.019470864751714726,5.0
0.47872027113265814,-0.45993955315346735,0.2246416842628877,0.07431879033883053,-0.02934018813824184,0.022157637684409415,5.0
0.46242994833327755,-0.4668790053082202,0.2370002948817334,0.08175777256766194,-0.03610765208428444,0.018127478541382525,5.0
0.46568801289315387,-0.44953040528933663,0.24111981973622373,0.07913224887866199,-0.04118325001694751,0.032904728391127604,5.0
0.472204142012906,-0.45300010099871424,0.19168541331621558,0.06687980810999912,-0.034415786178380404,0.027531182909760938,5.0
0.47872027113265814,-0.44953040528933663,0.20816354878955162,0.07913224887866199,-0.012985483270589472,0.020142558368911115,5.0
0.4689460774530297,-0.44606067921196024,0.21640261652621962,0.06819256795306824,-0.019188992487866666,0.026859489676587266,5.0
0.4591718837734018,-0.4564698270760909,0.2122830916717293,0.08219536007154314,-0.02595645654138475,0.013425626293189531,5.0
0.46568801289315387,-0.4668790053082202,0.2246416842628877,0.09707332482108129,-0.032723920165000885,0.015440706120718118,5.0
0.46242994833327755,-0.432181805270453,0.2287612271450653,0.09401021433704024,-0.04287511581537606,0.03223303502994636,5.0
0.4591718837734018,-0.4252423531157002,0.20404402393506127,0.0835081212488995,-0.02539250084533995,0.018127478541382525,5.0
0.46242994833327755,-0.4391212270572074,0.2122830916717293,0.06819256795306824,-0.02934018813824184,0.021485944579243316,5.0
0.472204142012906,-0.4391212270572074,0.19580495619839325,0.08132018506378075,-0.0445669816138046,0.015440706120718118,5.0
0.47872027113265814,-0.44953040528933663,0.21640261652621962,0.07125568048023662,-0.027084367073670446,0.019470864751714726,5.0
0.47872027113265814,-0.45993955315346735,0.2370002948817334,0.0795698363825432,-0.015805260031205675,0.012753932675993146,5.0
0.4689460774530297,-0.45993955315346735,0.2575979552095598,0.06512945809447433,-0.031032054366572335,0.022829330789575518,5.0
0.4689460774530297,-0.44953040528933663,0.20404402393506127,0.06512945809447433,-0.03667160740416503,0.026187796571421167,5.0
0.47872027113265814,-0.45300010099871424,0.2205221594083973,0.05769047586564292,-0.03497974144452325,0.006708694217467943,5.0
0.47872027113265814,-0.45300010099871424,0.2205221594083973,0.07081809297635543,-0.029904143834286637,0.03223303502994636,5.0
0.4819783356925365,-0.44953040528933663,0.20816354878955162,0.07038050547247422,-0.037799518043926214,0.030217955586440488,5.0
0.4754622065727818,-0.44953040528933663,0.2205221594083973,0.08044501139030559,-0.015805260031205675,0.0295462624172706,5.0
0.46242994833327755,-0.43565153134782975,0.20816354878955162,0.07300602782718695,-0.05641004435231417,0.0409650461651511,5.0
0.4852364002524128,-0.4425909531345838,0.2287612271450653,0.06206634823588043,-0.0451309373098494,0.058429067923530295,5.0
0.4819783356925365,-0.44953040528933663,0.21640261652621962,0.08394570875278069,-0.05415422156813498,0.054398910316594266,5.0
0.4559138192135255,-0.4564698270760909,0.21640261652621962,0.07738190019742444,-0.029904143834286637,0.059100761540726694,5.0
0.4689460774530297,-0.45300010099871424,0.24111981973622373,0.07825707520518685,-0.04682280353817989,0.06313092119578387,5.0
0.4689460774530297,-0.45300010099871424,0.24111981973622373,0.08832158045587457,-0.058665865416885565,0.030217955586440488,5.0
0.4754622065727818,-0.45300010099871424,0.2370002948817334,0.0918222784854933,-0.04174720528309036,0.04768197824087268,5.0
0.472204142012906,-0.4564698270760909,0.2287612271450653,0.1001364353885153,-0.04287511581537606,0.05238382946500511,5.0
0.472204142012906,-0.4564698270760909,0.2287612271450653,0.1001364353885153,-0.030468098670527535,0.03424811460145981,5.0
0.46242994833327755,-0.47034870101759785,0.2575979552095598,0.09269745282611208,-0.060357730785412164,0.025516103466255064,5.0
0.4689460774530297,-0.45993955315346735,0.20816354878955162,0.10363713308456221,-0.03328787543114373,0.0396216599548189,5.0
0.46242994833327755,-0.45300010099871424,0.1999244810528836,0.11545198768363112,-0.02088085785639326,0.030217955586440488,5.0
0.4819783356925365,-0.44953040528933663,0.2370002948817334,0.10363713308456221,-0.037799518043926214,0.03559150081179201,5.0
0.47872027113265814,-0.44606067921196024,0.2287612271450653,0.09882367371080122,-0.03159600963271519,0.03626319391695811,5.0
0.4591718837734018,-0.43565153134782975,0.2370002948817334,0.09094710414487452,-0.0445669816138046,0.059100761540726694,5.0
0.4689460774530297,-0.4425909531345838,0.2370002948817334,0.09488538867765901,-0.032159964898858036,0.012753932675993146,5.0
0.4852364002524128,-0.44953040528933663,0.20816354878955162,0.11588957518751232,-0.0445669816138046,0.03088964881961416,5.0
0.472204142012906,-0.4564698270760909,0.2122830916717293,0.11195129032115601,-0.04231116054923321,0.03491980770662591,5.0
0.46242994833327755,-0.44606067921196024,0.2370002948817334,0.1001364353885153,-0.04005533926971084,0.03424811460145981,5.0
0.45265575465364916,-0.4564698270760909,0.2328807519995557,0.11501440017974993,-0.03667160740416503,0.04633859100647991,5.0
0.4689460774530297,-0.44953040528933663,0.21640261652621962,0.103199545580681,-0.02595645654138475,0.04298012599267969,5.0
0.4689460774530297,-0.4425909531345838,0.21640261652621962,0.1123888778250372,-0.04682280353817989,0.01745578492418614,5.0
0.47872027113265814,-0.45300010099871424,0.19580495619839325,0.11326405149851237,-0.037799518043926214,0.022829330789575518,5.0
0.47872027113265814,-0.4425909531345838,0.2370002948817334,0.11151370281727481,-0.032723920165000885,0.012082240082857331,5.0
0.4754622065727818,-0.4564698270760909,0.20404402393506127,0.11063852780951242,-0.0355436967106661,0.016112398713853938,5.0
0.4689460774530297,-0.44953040528933663,0.20816354878955162,0.10801300545479971,-0.04231116054923321,0.027531182909760938,5.0
0.4819783356925365,-0.45300010099871424,0.2946737690384096,0.09532297601475431,-0.03497974144452325,0.006037000600271561,5.0
0.47872027113265814,-0.45993955315346735,0.2575979552095598,0.09663573760907543,-0.0355436967106661,0.032904728391127604,5.0
0.46242994833327755,-0.45993955315346735,0.2452393626184014,0.09488538867765901,-0.033851830697286575,0.015440706120718118,5.0
0.46568801289315387,-0.4668790053082202,0.2452393626184014,0.10888817912827486,-0.037799518043926214,0.008052081451860723,5.0
0.47872027113265814,-0.4564698270760909,0.2287612271450653,0.10144919689944346,-0.022572724944527656,0.013425626293189531,5.0
0.4754622065727818,-0.45300010099871424,0.21640261652621962,0.09926126088111062,-0.02144481355243806,-0.00672516788585407,5.0
0.46242994833327755,-0.4668790053082202,0.21640261652621962,0.09707332482108129,-0.012985483270589472,0.010067160255328741,5.0
0.46568801289315387,-0.47728815317235096,0.2370002948817334,0.10363713308456221,-0.02144481355243806,-0.006053474268657691,5.0
0.47872027113265814,-0.4807578792497274,0.20816354878955162,0.11282646399463117,-0.010165706509973288,-0.01545718081316481,5.0
0.49175252937216496,-0.4738184270949743,0.2287612271450653,0.11982786005386863,-0.009601752533536286,-0.001351623044525266,5.0
0.4689460774530297,-0.4668790053082202,0.2122830916717293,0.10713783044703731,-0.014677350358723884,0.03491980770662591,5.0
0.4559138192135255,-0.44953040528933663,0.2328807519995557,0.09838608645709888,-0.04231116054923321,0.03156134192478026,5.0
0.4689460774530297,-0.45993955315346735,0.2370002948817334,0.09794849924509302,-0.04231116054923321,0.04566689841334409,5.0
0.46242994833327755,-0.44953040528933663,0.2575979552095598,0.11851509887651226,-0.04795071407046559,0.0752213960647131,5.0
0.46242994833327755,-0.45300010099871424,0.24111981973622373,0.10582506926968097,-0.06994497245935034,0.10410420521918858,5.0
0.46568801289315387,-0.44606067921196024,0.24935888747289173,0.11195129032115601,-0.09419505019319868,0.12962854628768214,5.0
0.4819783356925365,-0.432181805270453,0.2575979552095598,0.12420373108981889,-0.0812240760625995,0.14709256394981907,5.0
0.4689460774530297,-0.4252423531157002,0.2452393626184014,0.10801300545479971,-0.060357730785412164,0.10611928607077777,5.0
0.46242994833327755,-0.432181805270453,0.26171749809173744,0.10057402255882468,-0.07614847823741192,0.08462510260922025,5.0
0.47872027113265814,-0.4425909531345838,0.24111981973622373,0.11413922650627477,-0.06881706106726074,0.07857986415069504,5.0
0.48849446481228864,-0.432181805270453,0.2370002948817334,0.12726684361698726,-0.05528213296022457,0.03156134192478026,5.0
0.4819783356925365,-0.4113634791741931,0.2658370229462278,0.10976335413603726,-0.04118325001694751,0.020142558368911115,5.0
0.48849446481228864,-0.41483320525156947,0.2452393626184014,0.10757541795091852,-0.02200876924848286,0.00872377506905711,5.0
0.4689460774530297,-0.4425909531345838,0.27407609068289585,0.09094710414487452,-0.024264590313054252,-0.010083635971836003,5.0
0.4754622065727818,-0.44953040528933663,0.26171749809173744,0.0795698363825432,-0.01354943896663428,-0.0020233166617216448,5.0
0.4689460774530297,-0.45300010099871424,0.24935888747289173,0.08438329625666188,0.004497131269544668,-0.02553257687862604,5.0
0.46568801289315387,-0.4564698270760909,0.2452393626184014,0.08657123177463702,-0.008473841141446689,-0.008740248737443222,5.0
0.4689460774530297,-0.45993955315346735,0.24111981973622373,0.08657123177463702,-0.010165706509973288,-0.0006799294273288641,5.0
0.4689460774530297,-0.4738184270949743,0.2287612271450653,0.09050951664099333,-0.015241306054768674,-0.0006799294273288641,5.0
0.4689460774530297,-0.4738184270949743,0.2287612271450653,0.0918222784854933,-0.011857573598107681,0.028202876078930825,5.0
0.47872027113265814,-0.4807578792497274,0.2246416842628877,0.10101160972913407,-0.011857573598107681,0.016784092331050323,5.0
0.4819783356925365,-0.47728815317235096,0.21640261652621962,0.09401021433704024,-0.0462588478421351,0.0013351493761391382,5.0
0.4852364002524128,-0.4634092792308438,0.21640261652621962,0.08832158045587457,-0.03159600963271519,0.024844410105073822,5.0
0.4689460774530297,-0.45993955315346735,0.2287612271450653,0.08569605743401824,-0.032723920165000885,0.03223303502994636,5.0
0.4591718837734018,-0.45993955315346735,0.2246416842628877,0.08569605743401824,-0.030468098670527535,0.0295462624172706,5.0
0.4591718837734018,-0.4634092792308438,0.21640261652621962,0.10407471992129978,-0.028212277605956144,0.013425626293189531,5.0
0.4754622065727818,-0.4668790053082202,0.20816354878955162,0.11545198768363112,-0.015805260031205675,0.04499520582020828,5.0
0.472204142012906,-0.45993955315346735,0.21640261652621962,0.11720233636486867,-0.037799518043926214,0.04163673978234749,5.0
0.4591718837734018,-0.4634092792308438,0.2658370229462278,0.10976335413603726,-0.03610765208428444,0.05775737635445506,5.0
0.4689460774530297,-0.4668790053082202,0.2370002948817334,0.10932576663215607,-0.04061929475080466,0.06716108085084105,5.0
0.4689460774530297,-0.4634092792308438,0.2205221594083973,0.11282646399463117,-0.028776233302000943,0.05171213789592987,5.0
0.4982686584919176,-0.4425909531345838,0.2122830916717293,0.12026544622346258,-0.029904143834286637,0.04365181858581551,5.0
0.4950105939320407,-0.4391212270572074,0.20404402393506127,0.12595408110534367,-0.01354943896663428,0.06783277446803743,5.0
0.4754622065727818,-0.4425909531345838,0.2122830916717293,0.12464131859370008,-0.03159600963271519,0.07656478329910588,5.0
0.49175252937216496,-0.4391212270572074,0.19168541331621558,0.13908169821605618,-0.07050892815539514,0.08193832814043468,5.0
0.49175252937216496,-0.44953040528933663,0.2122830916717293,0.1412696330668877,-0.04795071407046559,0.09537219229187785,5.0
0.49175252937216496,-0.4634092792308438,0.2328807519995557,0.15045896264266942,-0.051898400503563584,0.09201372830213822,5.0
0.4689460774530297,-0.4738184270949743,0.2452393626184014,0.1784645468796192,-0.009601752533536286,0.05507060188566952,5.0
0.46242994833327755,-0.47034870101759785,0.2205221594083973,0.206470131116569,-0.031032054366572335,0.030217955586440488,5.0
0.46242994833327755,-0.47034870101759785,0.2205221594083973,0.22528637777201366,-0.023700634617009456,0.01879917215857891,5.0
0.4852364002524128,-0.4668790053082202,0.2287612271450653,0.24278986725296364,-0.018061081095777066,0.0013351493761391382,5.0
0.4852364002524128,-0.45993955315346735,0.24111981973622373,0.263356463923933,-0.03328787543114373,0.026187796571421167,5.0
0.472204142012906,-0.43565153134782975,0.24111981973622373,0.25810541387735875,0.01746810196092824,0.020142558368911115,5.0
0.46242994833327755,-0.44953040528933663,0.2575979552095598,0.24716574229177557,-0.006218020076875298,0.00872377506905711,5.0
0.4689460774530297,-0.4564698270760909,0.20816354878955162,0.25547989952836936,-0.0011424222516877177,-0.001351623044525266,5.0
0.46242994833327755,-0.45300010099871424,0.21640261652621962,0.2694826889782698,-0.009601752533536286,-0.001351623044525266,5.0
0.44939769009377023,-0.4564698270760909,0.2122830916717293,0.25985576389288356,-0.0462588478421351,-0.02553257687862604,5.0
0.46242994833327755,-0.4425909531345838,0.24111981973622373,0.23841399221415163,-0.05302631189565318,-0.033592896188740395,5.0
0.46242994833327755,-0.4425909531345838,0.24111981973622373,0.22616155277977604,-0.051898400503563584,-0.018815644802904454,5.0
0.47872027113265814,-0.42871207919307663,0.2287612271450653,0.20953323830658843,-0.0456948921460903,-0.005381782699582443,5.0
0.47872027113265814,-0.432181805270453,0.2287612271450653,0.21872257055094463,-0.05415422156813498,0.007380387834664337,5.0
0.46242994833327755,-0.44953040528933663,0.2370002948817334,0.22353602775648887,-0.07107288041222433,0.010738853872525128,5.0
0.44939769009377023,-0.4738184270949743,0.2534784303550694,0.2502288494817951,-0.10265438219465506,0.0295462624172706,5.0
0.45265575465364916,-0.45300010099871424,0.2452393626184014,0.24760332445850783,-0.12577654509719818,0.026859489676587266,5.0
0.472204142012906,-0.4252423531157002,0.2328807519995557,0.23360053500860745,-0.0846078102388683,0.04633859100647991,5.0
0.4852364002524128,-0.40095433131006264,0.2370002948817334,0.18240282907740105,-0.0834798988467787,0.07992325138508782,5.0
0.4819783356925365,-0.37666630950442476,0.2205221594083973,0.10801300545479971,-0.09137527515219028,0.07723647691630228,5.0
0.4754622065727818,-0.404424057387439,0.2370002948817334,0.09094710414487452,-0.10152647080256545,0.06917615760618792,5.0
0.4819783356925365,-0.4183029313289462,0.2370002948817334,0.09488538867765901,-0.0851717659349131,0.03491980770662591,5.0
0.4852364002524128,-0.432181805270453,0.2287612271450653,0.08219536007154314,-0.0834798988467787,0.0470102846236763,5.0
0.47872027113265814,-0.4252423531157002,0.2452393626184014,0.060753585724236836,-0.06825310537121594,0.06245922757858747,5.0
0.472204142012906,-0.4183029313289462,0.24111981973622373,0.00386725024829827,-0.07332870319640353,0.0940288050574851,5.0
0.472204142012906,-0.4425909531345838,0.2575979552095598,-0.02895179653134468,-0.06994497245935034,0.1208965374566137,5.0
0.47872027113265814,-0.47034870101759785,0.2287612271450653,-0.030264553705839338,-0.04795071407046559,0.10679097968797416,5.0
0.4689460774530297,-0.4876973010364814,0.2370002948817334,-0.013198657065919467,-0.047386758374420794,0.08126663452323832,5.0
0.4754622065727818,-0.4981064489006122,0.24935888747289173,-0.0031341498138008766,-0.04061929475080466,0.06313092119578387,5.0
0.4591718837734018,-0.484227574959105,0.24111981973622373,-0.00357173198053314,-0.012985483270589472,0.05305552308220148,5.0
0.47872027113265814,-0.4634092792308438,0.2534784303550694,-0.0044469069882955336,-0.012421529294152493,0.023501023894741617,5.0
0.46242994833327755,-0.45300010099871424,0.2205221594083973,-0.01582417141490878,0.002805264181410272,-0.014785487195968432,5.0
