acc_x,acc_y,acc_z,gyro_x,gyro_y,gyro_z,activity
-1.4887867422279155,0.4434123025582885,2.4137198540357314,0.03955625420561969,-0.0798090611560728,-0.07821074889709632,0.0
-1.4887867422279155,0.49461611746358325,2.4370386964705775,0.12719908793122778,-0.06106365686387504,-0.13107903747169025,0.0
-1.5078944962121583,0.5132356906867458,2.3729118797747497,0.1560364062972354,-0.013575291829547654,-0.1628000220799533,0.0
-1.5747714679206792,0.5039259015288529,2.369997228563329,0.09496914144103902,0.042660926762879324,-0.15457605939241537,0.0
-1.5843253449128005,0.46668676526777425,2.3291892543023476,0.03899081618492283,0.14263643664423156,-0.13812814834672282,0.0
-1.6034330152788792,0.44806719459092337,2.3146149777805682,0.07687513857176098,0.16804686883163028,-0.0664622379367338,0.0
-1.6034330152788792,0.4294476245506503,2.3029555565631448,0.2408520542296784,0.11555973478118009,0.03516237936276018,0.0
-1.5795484064167398,0.4294476245506503,2.3233595436936354,0.3262331332863075,0.1272235412188932,0.06394622727506798,0.0
-1.4075789550312119,0.4294476245506503,2.349593241432838,0.2804326880924156,0.055157868038418885,0.14089896367663976,0.0
-1.211724894783545,0.43410251721986304,2.404975288122664,0.06330463469567478,-0.037736038907707714,0.11270254883527632,0.0
-1.087524828358624,0.43410251721986304,2.4224644199487986,0.019200498391490375,-0.2056115782648485,0.0980169083436502,0.0
-0.6862628308711685,0.36427913036456155,2.6498227255026836,0.027682063529560222,-0.524283502039621,-0.008894535843012918,0.0
-0.4330855922889371,0.3363497781687526,2.751842457062202,-0.19510037697065993,-0.8246265914814795,0.04103663484294146,0.0
-0.33277005110799107,0.3223850969782248,2.7693313847954024,-0.5168343831623187,-1.098309528696606,0.303615846567649,0.0
-0.5047395024935191,0.3223850969782248,2.7081196274968637,-0.6717642766960646,-1.1512132123833756,0.3788063052504626,0.0
-0.6528242613987434,0.3316948810434944,2.667311653235884,-0.7673232677112805,-1.1645432884967417,0.474556649158046,0.0
-0.9060014999809748,0.3549693462992919,2.5361435727257415,-0.7724121754149985,-1.120387421532699,0.48982970839123313,0.0
-0.9060014999809748,0.3549693462992919,2.5361435727257415,-0.7503601132973531,-1.0728990761862431,0.4704446893083522,0.0
-1.4696790718618367,0.44806719459092337,2.1863616505283145,-0.5903412568878029,-0.9333498977625945,0.2002289443847053,0.0
-1.7801794051604678,0.5318552588172851,2.046448902058637,-0.47612290084423076,-0.681328354554652,-0.2133186213589198,0.0
-1.9664795884160131,0.5504748269478243,1.9181954727599153,-0.21715243908830525,-0.29892205008951783,-0.5698859100194902,0.0
-2.0667950459787954,0.4806514413656787,1.8657281793279779,0.3810805868113492,0.12472415194763709,-0.861836377651029,0.0
-1.976033465408135,0.40151827044510763,1.8861321664584687,0.8481320746674611,0.34758621462648426,-0.9299777541175769,0.0
-1.8518333153650497,0.3363497781687526,1.9327697492816944,1.2054886830595328,0.40007335883841644,-0.8841585764180154,0.0
-1.7133023498337823,0.31307531291295515,2.0377043361455693,1.323665194902623,0.48005377487268397,-0.5422769139196878,0.0
-1.5031175577160971,0.2898008527497811,2.230084378047184,1.0901394095955024,0.44881140390124136,-0.1569257630174262,0.0
-1.0970785381144164,0.3456595622340222,2.3612526626502617,0.8752730996609104,0.29801502964509186,0.04221148307310104,0.0
-1.0970785381144164,0.3456595622340222,2.3612526626502617,0.09610001748243273,0.10639531761472311,0.2953918695507277,0.0
-0.6241626304223792,0.5039259015288529,2.5128247302908946,-0.03564695168529592,0.25760826183015645,0.2454607033427056,0.0
-0.6576011998948039,0.49461611746358325,2.4953355984647594,-0.022641884105778887,0.2646898596846411,0.14736065581011126,0.0
-0.7292551100993858,0.4806514413656787,2.460357538905425,0.04181800456427944,0.22428309186970574,0.06747078271258426,0.0
-0.7579167410757504,0.46668676526777425,2.4516129729923573,0.05708482077832854,0.17971068543082552,0.01460248518212572,0.0
-0.8486784052645749,0.4387574092524979,2.381656445687817,0.041252566974614505,0.062239465892903516,-0.03650353462957469,0.0
-0.9012245614849138,0.4294476245506503,2.378741590383461,0.06273919667497792,-0.037736038907707714,-0.029454427336888002,0.0
-0.948993779209192,0.41548294749787895,2.349593241432838,0.1113668371447372,-0.09980416008389864,-0.009481960853679165,0.0
-1.020647689413774,0.4387574092524979,2.352508096737194,0.16169078650420401,-0.1727029681021994,0.04279890897935374,0.0
-0.9967631641697993,0.4387574092524979,2.3729118797747497,0.2504644936850143,-0.09563852145995387,-0.016531066355192945,0.0
-0.9967631641697993,0.4294476245506503,2.387486156296529,0.28212900905101707,-0.05481518876647579,-0.056476001112783523,0.0
-1.020647689413774,0.4853063333983136,2.369997228563329,0.12946084001401525,-0.14479313648206252,0.07040791224384782,0.0
-1.1400709845789632,0.5504748269478243,2.3291892543023476,-0.08879808425173626,-0.2839257144619811,0.08744324919579309,0.0
-1.020647689413774,0.5132356906867458,2.335018964911059,-0.1408183545698044,-0.27017907855081347,0.02341386840239763,0.0
-0.948993779209192,0.47134165730040906,2.3612526626502617,-0.046390267182025526,-0.16353855093574238,-0.05412630107011852,0.0
-0.953770717705253,0.4806514413656787,2.396230722209596,0.009022620915457644,-0.05148266973813428,-0.16926169988404147,0.0
-1.034978504901956,0.4853063333983136,2.35542295204155,0.022593124791543854,0.02766460383719522,-0.15340120757990994,0.0
-1.1114093536025986,0.4853063333983136,2.3117001224762124,0.1209792766000731,0.040161542572364255,-0.13460359290920654,0.0
-1.2021710177914235,0.4806514413656787,2.2883812800413654,0.2108838598222771,-0.01065933958502674,-0.0623502565929648,0.0
-1.144847923075024,0.48996122543094833,2.273807207612522,0.19222441203579144,-0.031071005931765774,-0.024167599554132363,0.0
-1.0827478898625633,0.5411650428825547,2.300040701258789,0.08309495335117108,-0.13937779814174867,0.0287006979763262,0.0
-1.015870918154042,0.5458199349151895,2.32044468838928,-0.10915385299682324,-0.29767235037314876,0.09860433424990292,0.0
-1.106632415106538,0.5272003667846502,2.3117001224762124,-0.23128838270921598,-0.311835546082118,0.2213762626804194,0.0
-1.1305171075868417,0.499271009496218,2.340848675519771,-0.11311191224519052,-0.1747857874141718,0.152647481801694,0.0
-1.0970785381144164,0.49461611746358325,2.317529833084924,0.04690694341005379,-0.08355814506295699,0.10506601205399106,0.0
-0.934663130957339,0.4806514413656787,2.3291892543023476,0.016938748032830627,-0.21977477397381778,-0.04825204558993724,0.0
-0.8486784052645749,0.43410251721986304,2.3262743989979917,-0.1566506053562949,-0.5288657207843317,-0.0664622379367338,0.0
-1.039755443398017,0.43410251721986304,2.3029555565631448,-0.25220958257848913,-0.5888510226485503,0.20610320344723235,0.0
-1.0970785381144164,0.43410251721986304,2.2854664247370096,-0.10349947278985464,-0.5309485400963041,0.20257864800971603,0.0
-0.948993779209192,0.44806719459092337,2.2621477863950985,0.07178619983374462,-0.4351386485159323,0.05924682360739214,0.0
-0.8104628972960892,0.47134165730040906,2.2854664247370096,0.1362460893658668,-0.3668220694038243,-0.050601745632602245,0.0
-0.7722475565639325,0.47134165730040906,2.2621477863950985,0.10005808362731075,-0.31350180559628876,-0.12637964455105194,0.0
-0.7292551100993858,0.3968633771393169,2.2184249568297605,0.08761845406849059,-0.18020112575448566,-0.17924793312564585,0.0
-0.7483628640836288,0.3596242383319267,2.2242546674384727,0.1277645259519246,-0.0706446439896158,-0.19687069598384394,0.0
-0.9155553769730959,0.3968633771393169,2.238828943960252,0.19787879224276006,-0.03815260378625041,-0.10581974499689872,0.0
-0.9824323486816172,0.4294476245506503,2.238828943960252,0.30531193341703444,0.05474130315987621,-0.07351134164707464,0.0
-1.0827478898625633,0.41548294749787895,2.221339812134117,0.3143589417481842,-0.011492468707019482,-0.0676370897492392,0.0
-0.948993779209192,0.44806719459092337,2.2446586545689633,0.241417499146886,-0.2085275171724242,0.03340010164400205,0.0
-0.8868937459967317,0.4527220866235581,2.2621477863950985,0.20240229640833493,-0.298505469968752,0.10506601205399106,0.0
-0.9633245946973742,0.4387574092524979,2.215510101525405,0.1209792766000731,-0.3580742120351689,0.1626337150432984,0.0
-1.054086258886199,0.4527220866235581,2.23299923335154,0.1729995331251197,-0.4309730098919876,0.24311099971769473,0.0
-1.0588631973822598,0.4527220866235581,2.18927650583267,0.1735649780423273,-0.4484687246292983,0.321238609425847,0.0
-0.9728784716894957,0.4434123025582885,2.174702229310891,0.032771002267576586,-0.5726049669816802,0.47338181167492394,0.0
-0.8964476229888533,0.4434123025582885,2.1805319399196024,-0.05374095455457394,-0.5047049679903379,0.542110578224266,0.0
-0.7961320818079072,0.4434123025582885,2.2038506803079816,-0.11198103620379679,-0.48970861203983695,0.4534093451917153,0.0
-0.7913551433118462,0.40151827044510763,2.157213097484756,-0.1690902418116259,-0.8212940318072095,0.4122895460834088,0.0
-0.8056859588000287,0.34100467020138747,2.1863616505283145,-0.1408183545698044,-0.6517522634203443,0.5080398899909921,0.0
-0.5859472896902225,0.2944557447824159,2.1951062164413817,-0.19736212905344744,-1.0903947909235538,0.43049975634193455,0.0
-0.5859472896902225,0.2944557447824159,2.1951062164413817,-0.4687722134716823,-1.259103439714816,0.3312248426674514,0.0
-0.4951856255013975,0.4061731624777424,2.136809212400733,-1.3327609573756245,-2.513379481169019,0.2008163774556495,0.0
-0.6146089206665867,0.31307531291295515,2.157213097484756,-1.3333263609137675,-2.887454366125515,0.8234873938726394,0.0
-0.21812386167519146,0.2385970403907981,2.1484686336181564,-0.4608560673889048,-2.163881725897643,0.9938407777214755,0.0
-0.16557753821852367,0.04309157502013579,1.941514315194762,0.10231983226184281,-3.0478318189607445,0.8898664854557375,0.0
0.12581520833219306,0.2991106368150507,1.527605780394442,-0.5620694248180675,-4.416246586328233,1.1095636167710345,0.0
0.1688073203240818,0.3456595622340222,1.5713285079133117,-0.9499595897766189,-5.177726594938304,1.228811025587493,0.0
0.1544765048358997,-0.017422031589363767,1.8249203071134639,-1.0178120970881561,-7.00394555921602,0.9726934737551446,0.0
0.8996775723307395,-0.2734411239400191,1.9152806174555594,-1.739876001244848,-8.854325764038872,-0.22859168059210683,0.0
1.0907544432278542,-0.08724544263462604,1.3410553980783053,-3.3621165171138228,-9.073022320193042,-1.2060677151156007,0.0
0.780254109929223,0.03378177058437248,0.8513607274112008,-2.8707512702293645,-6.768586773733499,-0.8782842743673384,0.0
0.7372619979373327,-0.008112267894587787,0.5598758220102313,-0.5366247207832197,-4.271698609039109,-0.4406522966201939,0.0
0.7563697519215781,-0.0732807359809816,0.4287076075641004,1.418093213325294,-5.095663440883921,-1.1285275241490096,0.0
0.5079692845990772,0.2572166085213374,0.17511572545119364,1.8048526263796454,-5.794658951426674,-0.13225388928419568,0.0
0.03505337690703953,0.1920481200644499,0.1430523936381301,1.1557301924102952,-7.714188611081668,0.8305365334064388,0.0
-0.10347750500606329,-0.008112267894587787,0.23341272949184255,0.6179989864496294,-8.376526046499311,1.367443453486833,0.0
0.09715357735582886,-0.008112267894587787,0.3733254779615199,0.11645577243449821,-4.669934409373312,1.0449468100713863,0.0
0.25001527475711416,0.16877364971602898,-0.017264316450421185,-0.5304048956590431,-3.3973295742321223,0.704827489774042,0.0
0.03505337690703953,-0.040696501937784645,-0.2591967964796176,-0.5258813914934684,-4.685763884919416,0.4275626339753626,0.0
0.03505337690703953,-0.040696501937784645,-0.2591967964796176,0.8820583283232298,-2.8391328605375277,0.9121886842227238,0.0
0.025499499914918393,-0.08259054041674459,-0.30583437930284324,1.8879719119744225,-0.9375155363865393,0.5767687138578678,0.0
0.13536875085165703,0.20135790412971952,-0.541937199746562,1.0454697714778967,-2.7454059508528412,-0.2409276031293388,0.0
0.4315386031347633,0.04774643649703037,-0.4574064979667102,0.4427132965847533,-2.2451118010023503,-0.4700235776034461,0.0
0.4315386031347633,0.04774643649703037,-0.4574064979667102,0.46646167966099983,-0.1881158635275378,-0.22154256971707434,0.0
0.7898079869213434,-0.017422031589363767,-0.6322975100886575,0.2589460570989564,-1.014996593633997,0.4093524237168369,0.0
0.7850310484252828,-0.15241391072102023,-0.6293826547843016,-0.030558016395534935,0.34383711547737683,1.3451212547198466,0.0
0.6703848589924817,-0.25482155580947974,-0.4078540598391286,-0.5173998418725478,0.6716734767415706,2.259155363014965,0.0
0.1401456893477176,-0.306025357983216,-0.45449164266235414,-0.15043079402514029,1.0857387119759492,1.6464705941689624,0.0
-0.20379304618700936,-0.3525742986800574,-0.48946990631462417,-0.22393769533666755,0.02224926295651081,-0.05588857520653081,0.0
-0.19423916919488785,-0.3199900646368605,-0.4632362085754217,-0.4857353127135236,-0.3272484415074564,-1.9156778086461421,0.0
0.6465001665121811,-0.3944683371590177,-0.6322975100886575,-0.33815607896628286,-0.7821369637086433,-1.309454674616078,0.0
1.334377972054293,0.04774643649703037,-0.9033784411149445,0.06160832235771189,-0.09855447052901163,0.5379986183745721,0.0
0.8614620643622543,0.029126868366490984,-0.9004635858105887,0.7361754431206333,0.6629256193729152,1.4696555181866546,0.0
0.17358425882014275,0.04774643649703037,-0.7780399691670464,1.115018599748035,1.2544473607672109,1.3727303081371824,0.0
-0.3423239281001126,-0.18499818550520408,-0.6031489570450991,0.7022491894648648,0.8582944203909092,0.21197746250975938,0.0
-0.8486784052645749,-0.45498190302753005,-0.3641313323202585,0.765578192610827,0.8462140439939123,-1.6472242626296447,0.0
-0.929886192461278,-0.5620444095928842,-0.2183888732418696,0.6027321529943035,1.4394021058712712,-2.107178553778842,0.0
0.9331158073305079,-0.44101727785585937,-0.33206802601881186,-0.5428445459073957,-0.3372459782695166,-1.4574858023803943,0.0
1.8168477567384522,-0.25947645802736125,-0.7867844330336463,0.46363449645402627,-0.3018379889970934,-0.0036077058212911233,0.0
0.7229311824491526,-0.41774276676645156,-0.539022344442206,0.003933682177441291,-0.5247000415144586,-0.030041853243140706,0.0
0.21657670528468903,-0.4596368052454119,-0.5769153613523641,0.14359678363492595,-0.2947563911426088,-0.8218914446846113,0.0
-0.17513141521064518,-0.41774276676645156,-0.5885747825697876,0.07461338821310123,0.07556953184478739,-0.4189175452535352,0.0
-0.17990835370670574,-0.01276712937148232,-0.7663805479496231,-0.07466215442384702,0.5046310671415152,1.6870029172181742,0.0
0.4697537766305918,0.0710209068454512,-0.7955289989467136,0.08818389208918744,1.4598136782243005,1.5571819137360836,0.0
0.21179976678862844,-0.07793563819886305,-0.5827450719610758,0.053692195240338914,1.7414114345043368,1.8720419128998698,0.0
0.3121151407332456,-0.25947645802736125,-0.17758100102735552,-0.01698751079532104,1.8676303742309055,1.2064888268205067,0.0
0.7945849254174032,-0.5806640184644104,-0.20381464774332436,0.10910508506194976,1.1261454797908845,0.8828174032394717,0.0
0.5748464235439275,-0.41774276676645156,-0.15426220961574258,0.13341890615889326,-0.036486344272079654,0.5855800809575833,0.0
0.6512771050082417,-0.6691069976402123,-0.19507008183025673,0.26855849655429226,-0.26684655952247194,0.47631893404149583,0.0
0.6560540435043015,-0.4736015118990564,-0.285430443195586,0.08366039137186794,-0.6175939535413261,0.04867316445953502,0.0
0.6321693510239983,-0.38050363050537317,-0.41076891514348435,0.1345497753037762,-0.6742467363772032,0.05865939770113944,0.0
0.19269201280438542,-0.3758487282874914,-0.32623831541010034,-0.33815607896628286,-1.240358025261136,0.21021517762630973,0.0
0.13059181235559608,-0.33860959202641294,-0.3583016727347807,-0.14590728985956547,-1.2641022385802925,0.36412066475883653,0.0
0.3168920792293065,-0.4503270008096486,-0.4428323234913985,-0.09841053750009365,-0.9391818568696026,0.24017387735112278,0.0
0.4554229611424097,-0.5620444095928842,-0.541937199746562,0.08535670198570314,-0.28225945494781035,-0.04296521601600868,0.0
0.3168920792293065,-0.4596368052454119,-0.5710856507436526,0.05934657199905214,-0.009826210463033997,-0.029454427336888002,0.0
0.19269201280438542,-0.4689466096811748,-0.5973192464363876,0.13172259209680268,0.19720640016813623,0.7982281300566146,0.0
-0.5668395357059793,-0.2268921832431774,-0.4049392045347725,-0.08540546992057661,-0.2351876693991562,1.5137124110027662,0.0
0.9426696843226283,-0.7249656612908428,-0.6177232335668783,0.007891744874063923,0.5641998295308962,-0.015356216333860442,0.0
0.5318539770793804,-0.5992835458539624,-0.5565113742218734,-0.07975108971360802,0.4700562177876595,-0.06881193439705294,0.0
0.36943840268597355,-0.520150452595898,-0.43991746818704264,-0.1182008475349515,0.17971068543082552,-0.11404370051974501,0.0
0.2309075207728711,-0.4689466096811748,-0.42534319166526346,0.08705301604779372,0.18304320445916694,-0.0024328549043721613,0.0
0.2595691517492353,-0.5154955503780165,-0.4574064979667102,0.2872179443407779,0.2813524548263485,0.04984801627204044,0.0
0.2930073867490029,-0.5573895888569769,-0.4457471787957545,0.24763731047804066,0.2542757428018149,0.018714462943548858,0.0
0.2977843252450635,-0.5154955503780165,-0.4865550510102684,0.20805667661530353,0.4779709555607117,0.01812703882846907,0.0
0.25001527475711416,-0.4736015118990564,-0.4574064979667102,0.13398433728307937,0.44256294596532425,0.046323464416870005,0.0
0.18791507430832483,-0.4689466096811748,-0.47489562979284505,-0.022076446085082038,0.6579268611533673,-0.11991795241758044,0.0
0.20224588979650693,-0.5154955503780165,-0.41076891514348435,-0.041866769912961385,0.7545698316834138,-0.3942456715203046,0.0
0.11148439284401096,-0.5713542140286472,-0.39036503005946105,-0.033385199602508464,0.7566526916413147,-1.039826348433992,0.0
0.37899227967809546,-0.4922210392886088,-0.34664225151735734,0.024289437129506746,0.5725311067787858,-0.9035435955008965,0.0
0.5079692845990772,-0.3898134349411362,-0.36996104292897014,0.09723089352382645,0.5017151282339395,-0.5023319809532701,0.0
0.40765391065446044,-0.3944683371590177,-0.37579075353768193,0.06782813541299429,0.5054641867371185,-0.4594498969615139,0.0
0.35510758719779223,-0.3898134349411362,-0.35247196212606907,0.07517882450967041,0.49754948960999473,-0.5728230323860621,0.0
0.38376921817415643,-0.36188410311582075,-0.3204086048013885,0.07857145263385157,0.3779954253563951,-0.5117307954533135,0.0
0.5175231615911987,-0.34791939646217596,-0.2708561666738069,0.13398433728307937,0.127640111178177,-0.21390604010048084,0.0
0.498415407606956,-0.3572292008979393,-0.3087492346071991,0.01241524559138344,0.18887510259728257,-0.13225388928419568,0.0
0.3216690177253675,-0.33395468980853116,-0.33498288132316784,-0.17361373218417936,0.22136715296213005,0.23547448443048455,0.0
-0.2085699846830703,-0.3432644942442944,-0.2912601027810639,-0.3081878983519029,-0.022323148563110407,0.9016150322395583,0.0
0.2595691517492353,-0.37119382606960993,-0.31166408991155486,-0.20132017450879322,0.029330860810995448,1.0144006916050121,0.0
0.9187849918423239,-0.5992835458539624,-0.3204086048013885,-0.05769902069945195,0.03432963681313715,0.21139002943881496,0.0
0.7515928134255183,-0.5248052733318056,-0.2650265070883293,0.10401614287567802,-0.08272501530587162,-0.1234425078550967,0.0
0.5605156080557453,-0.49687594150649017,-0.2650265070883293,0.19787879224276006,-0.04440107188364967,-0.3678115129036243,0.0
0.3216690177253675,-0.43170747342009647,-0.26211165178397333,0.15773272035932595,0.04307749164142202,-0.7654986150018845,0.0
0.21657670528468903,-0.4084329623306886,-0.3233234601057445,0.032205564246879724,0.003920421002485206,-0.9558244653339295,0.0
0.04460725389916106,-0.33860959202641294,-0.3087492346071991,0.010153496956851372,-0.11896613433538014,-0.8265908519346331,0.0
-0.07003910276996711,-0.2408568898968219,-0.3408125409086457,-0.10576122487264208,-0.1897821230417086,-0.23857791383371127,0.0
0.536630915575441,-0.36188410311582075,-0.43117290227397526,-0.2550367657854627,0.2317812495219919,-0.23799048076276685,0.0
0.732485059441273,-0.3432644942442944,-0.3000046686941317,-0.22846119950224253,0.11847568385023785,-0.32669174245408455,0.0
1.0286545772517217,-0.33395468980853116,-0.3233234601057445,-0.1843570476809088,0.3496690339384565,-0.48940859668632725,0.0
0.689492612976727,-0.36188410311582075,-0.27668587728251876,-0.01642207277462418,0.22553279158607475,-0.4089313120119308,0.0
0.12581520833219306,-0.34791939646217596,-0.29417495808542,0.0644355107370685,0.24344506612118721,-0.21155633647546992,0.0
-0.948993779209192,0.0011975365411755722,-0.19507008183025673,0.00845718289476079,0.2821855744219518,1.6300226401351197,0.0
0.25001527475711416,-0.2874058305936636,-0.1892404222447789,-0.01642207277462418,0.25094322377347344,1.823873060234064,0.0
1.2436161406291375,-0.49687594150649017,-0.2067295030476799,0.20353317244972866,0.46214148001460736,0.5379986183745721,0.0
0.6703848589924817,-0.445672098591767,-0.1892404222447789,0.32284051895514787,0.31342792507043027,0.5403482933408164,0.0
0.5031923461030162,-0.4503270008096486,-0.2242185838505811,0.2719511246784735,0.11181065595503696,0.49394172555846055,0.0
0.780254109929223,-0.4596368052454119,-0.2358780050680045,0.15264378506956502,0.2963487701309211,-0.02181789592912151,0.0
1.0716470237162667,-0.49687594150649017,-0.26211165178397333,0.025420313170900474,0.4088212162070719,-0.4259666561285677,0.0
0.5509617310636234,-0.43170747342009647,-0.2562819411752617,-0.13855660248701698,0.46047524082340086,-0.5957326212358429,0.0
0.4458690841502874,-0.39912323937689953,-0.2067295030476799,-0.15269254610792776,0.2801027551099794,-0.6767973246518001,0.0
0.5652925465518055,-0.37119382606960993,-0.1804958563317114,-0.06448427005130353,0.24844384466369943,-0.4212672488785461,0.0
0.5461847925675629,-0.34791939646217596,-0.16883648613752195,0.08309495335117108,0.144719255956204,-0.19863298086729358,0.0
0.5318539770793804,-0.3525742986800574,-0.19507008183025673,0.09779633154452332,0.1488849047416308,-0.1293167669176238,0.0
0.5127462230951377,-0.33860959202641294,-0.1979849371346125,0.045210630479422004,0.09681433048898233,-0.11463112642599771,0.0
0.498415407606956,-0.33395468980853116,-0.1892404222447789,0.022027686770846995,0.09264868170355547,-0.16867428114248043,0.0
0.5079692845990772,-0.33395468980853116,-0.15134735431138668,0.08026776324768677,0.05890694686456203,-0.16103773719650347,0.0
0.5175231615911987,-0.30137045576533417,-0.19507008183025673,0.11306314431031703,0.08056830530655859,-0.10288261546563517,0.0
0.5414078540715027,-0.3292998690726239,-0.19215527754913467,0.03446731546760332,0.10431248814126859,-0.044140067828514096,0.0
0.498415407606956,-0.33860959202641294,-0.21255921365639174,-0.02716538827135377,0.009335760612984351,-0.02358017364787964,0.0
0.5079692845990772,-0.306025357983216,-0.16883648613752195,-0.07126952629966586,-0.053148929252305036,-0.07057421211581108,0.0
0.4649768381345313,-0.2920606513295711,-0.14843249900703093,-0.06561514609269725,-0.13396245980143479,-0.06939936030330567,0.0
0.474530715126652,-0.32464496685474237,-0.16300677552881018,-0.007375071339985168,-0.020656890319124918,-0.0764484711783382,0.0
0.5891772390321092,-0.34791939646217596,-0.19507008183025673,0.036163627805566215,0.12389102219055173,-0.04766461968368453,0.0
0.5652925465518055,-0.3665390053337023,-0.1804958563317114,0.07404795019240437,0.16721374923602703,-0.02534244957546486,0.0
0.5079692845990772,-0.33395468980853116,-0.21255921365639174,0.10345070830323654,-0.012742162707554908,0.07921929367294682,0.0
0.5414078540715027,-0.28275092837578214,-0.14551764370267495,0.10288527028253967,0.1143100452262931,0.04749831264702959,0.0
0.5748464235439275,-0.306025357983216,-0.12802856289977385,0.09101107874441637,0.12389102219055173,-0.1087568745281623,0.0
0.536630915575441,-0.33395468980853116,-0.16300677552881018,0.2951340628375125,0.159299021624457,-0.22800424752116244,0.0
0.5509617310636234,-0.315335162418979,-0.15426220961574258,0.4557183503712487,0.07681922648041546,-0.16103773719650347,0.0
0.5079692845990772,-0.2874058305936636,-0.16883648613752195,0.44101697562615194,-0.01982376056203954,-0.00595740810292228,0.0
0.5223001000872589,-0.2734411239400191,-0.17466614572299977,0.2962649526719277,-0.07647654720847236,0.07686959004793596,0.0
0.40765391065446044,-0.24551175137371645,-0.15717706492009856,-0.1645667376460511,-0.12313178312080701,0.07628216414168326,0.0
0.4315386031347633,-0.2268921832431774,-0.15717706492009856,-0.5863832114324571,-0.12146552360663626,0.016952187015963644,0.0
0.6321693510239983,-0.31068026020109757,-0.09596525659832729,-0.6525393977853929,-0.24185268713287494,-0.028279577315555485,0.0
0.5414078540715027,-0.33860959202641294,-0.12219885229106221,-0.44728555489217997,-0.5267828608264309,-0.15986289971338144,0.0
0.6178385355358158,-0.33860959202641294,-0.15426220961574258,-0.26578006748917077,-0.9529284724578061,-0.17396110713406315,0.0
0.6656079204964219,-0.28275092837578214,-0.18341071163606715,-0.056568144658058254,-1.363661188663843,-0.09230895631777804,0.0
0.6751617974885461,-0.18499818550520408,-0.2912601027810639,0.29569949396169853,-1.0162462933503662,0.12151393026437532,0.0
0.5127462230951377,-0.21758241954840105,-0.3233234601057445,0.9561306607589433,0.06640510959758933,0.15029777817668316,0.0
0.5127462230951377,-0.21758241954840105,-0.3233234601057445,0.24481011347804577,-0.365988949808221,-0.02534244957546486,0.0
0.4267616646387031,-0.3525742986800574,-0.5885747825697876,-0.23581188687479093,0.4750549760072075,-0.0036077058212911233,0.0
0.38376921817415643,-0.39912323937689953,0.01188418556990341,0.058215695957658416,1.0707423966713765,-0.017118492261445656,0.0
0.38376921817415643,-0.39912323937689953,0.01188418556990341,0.09553457946173587,-0.3139183653940904,-0.12814191510511838,0.0
0.42198472614264215,-0.34791939646217596,-0.13094341820412972,0.1277645259519246,0.0035038567590351495,-0.0464897678711791,0.0
0.49363846911089543,-0.32464496685474237,-0.19507008183025673,0.1560364062972354,-0.1752023573734556,-0.0670496638429865,0.0
0.49363846911089543,-0.32464496685474237,-0.19507008183025673,0.15320922309026186,-0.034403522419736744,-0.07351134164707464,0.0
0.5318539770793804,-0.2641313195042558,-0.23879286037236047,0.16338709366978382,0.052658478767162765,-0.06352510840547022,0.0
0.498415407606956,-0.25947645802736125,-0.2183888732418696,0.15942903442141657,0.09889714980095474,-0.04883947149618996,0.0
0.5031923461030162,-0.28275092837578214,-0.1892404222447789,0.17582673012511477,0.033913071934594474,-0.021230471814041717,0.0
0.5031923461030162,-0.28275092837578214,-0.1892404222447789,0.13228803011749957,0.0384952830581935,-0.07233648983456922,0.0
0.5031923461030162,-0.2920606513295711,-0.1892404222447789,0.1407695935314417,0.04182780208653499,-0.0946586599427889,0.0
0.498415407606956,-0.28275092837578214,-0.19507008183025673,0.14359678363492595,0.0047535507595705805,-0.07233648983456922,0.0
0.498415407606956,-0.28275092837578214,-0.19507008183025673,0.14246590759353225,0.01058545524861241,-0.0805604453574155,0.0
0.5461847925675629,-0.24551175137371645,-0.20964435835203588,0.09440370686859753,0.08390082433490006,-0.10523231909064602,0.0
0.4649768381345313,-0.33860959202641294,-0.15426220961574258,0.1209792766000731,0.1692965685479993,-0.0623502565929648,0.0
0.35988452569385243,-0.20827261511263806,-0.08139098007654816,0.2171036711534318,-0.03190413314848063,0.17027024465989196,0.0
0.35988452569385243,-0.20827261511263806,-0.08139098007654816,0.31775158366538686,-0.36390613049624865,-0.11228142280098685,0.0
0.4315386031347633,-0.315335162418979,-0.16300677552881018,0.20466404849112238,-0.258931842072384,-0.03532868281706928,0.0
0.5079692845990772,-0.3199900646368605,-0.24462251995783832,0.12889540199331836,-0.11938270429466391,-0.09407123403653618,0.0
0.4506460226463492,-0.2920606513295711,-0.1979849371346125,0.26233868522313764,-0.49345771118894427,-0.08819698213870074,0.0
0.39810003366233887,-0.29671555354745266,-0.1338582735084856,0.1136285823310139,-0.24185268713287494,-0.09348380813028348,0.0
0.6751617974885461,-0.34791939646217596,-0.46032135327106594,0.2719511246784735,-0.1777017466447116,-0.12226765604259127,0.0
0.39332309516627717,-0.2408568898968219,-0.2650265070883293,0.1362460893658668,-0.1597894619481172,0.008140804691278194,0.0
0.4697537766305918,-0.26878622172213734,-0.27668587728251876,0.0859221400064,-0.2447686463634149,0.08039414548545223,0.0
0.4601998996384695,-0.2734411239400191,-0.20964435835203588,-0.03508151366459906,-0.33266377984777024,0.07158275689166158,0.0
0.4649768381345313,-0.30137045576533417,-0.1979849371346125,0.20522947961530846,-0.5072043267771478,0.0739324605166724,0.0
0.4649768381345313,-0.3292998690726239,-0.1892404222447789,-0.07240040234105959,-0.3984809798501043,-0.025929875481717563,0.0
0.474530715126652,-0.306025357983216,-0.23879286037236047,0.2770400599682344,-0.38223496482916275,-0.08467242670118447,0.0
0.479307653622713,-0.34791939646217596,-0.2796007325868745,0.37429533056298686,-0.3830680844247659,-0.07527361936583277,0.0
0.412430849150521,-0.3292998690726239,-0.2737710219781629,0.384473228728552,-0.33474659915974253,0.027525846163820773,0.0
0.4601998996384695,-0.2408568898968219,-0.30583437930284324,0.2425483613952582,-0.29975516968512117,0.07980671957919952,0.0
0.39810003366233887,-0.2408568898968219,-0.28834529849994217,0.18996267374602552,-0.5134528253589934,0.12151393026437532,0.0
0.4267616646387031,-0.2734411239400191,-0.2737710219781629,0.11475945837240761,-0.6405050066189508,0.1391366931225733,0.0
0.38376921817415643,-0.2734411239400191,-0.33498288132316784,-0.013029444650443015,-0.6975743289296651,0.17614450372241908,0.0
0.36466146418991335,-0.2734411239400191,-0.3378976856042897,-0.012464006629746154,-0.8246265914814795,0.20786547400129882,0.0
0.35510758719779223,-0.2734411239400191,-0.3408125409086457,0.02824750155025708,-0.9208529818907603,0.20904032581380427,0.0
0.39332309516627717,-0.2734411239400191,-0.4282580469696192,-0.013594882671139875,-0.8417056854520959,0.15558460416826586,0.0
0.4410924801268848,-0.37119382606960993,-0.41076891514348435,0.18261197258045556,-0.6180105336620919,0.17555707065147472,0.0
0.40765391065446044,-0.33395468980853116,-0.4457471787957545,0.029378375867523114,-0.36307301090064537,0.06864563452508969,0.0
0.4410924801268848,-0.37119382606960993,-0.5157035020073591,-0.004547881236500859,-0.027321923295066858,0.04338633488560646,0.0
0.5223001000872589,-0.3665390053337023,-0.5448519530044499,-0.05769902069945195,0.675005995769912,0.03222524983149662,0.0
0.474530715126652,-0.2734411239400191,-0.664360816390104,0.13115715407610581,0.5371230971833985,0.03516237936276018,0.0
0.4840845921187739,-0.2920606513295711,-0.5623410848305849,0.005629996239531873,0.6462630242312077,0.009903080618863408,0.0
0.24046139776499265,-0.36188410311582075,-0.38453531945074954,0.38334233889413666,0.2755205363652688,0.07921929367294682,0.0
0.25479221325317475,-0.3758487282874914,-0.4923847616189803,0.1441622147591121,0.6700072375503641,0.1520600487307496,0.0
0.39332309516627717,-0.33860959202641294,-0.4282580469696192,-0.09445246445870487,0.7374906564209405,0.08039414548545223,0.0
0.36466146418991335,-0.3292998690726239,-0.38453531945074954,-0.2329847036678173,0.7762311850446694,0.062183949556309855,0.0
0.5270770385833198,-0.3292998690726239,-0.37579075353768193,-0.5077873748311689,1.3006860063972978,0.004028825810371979,0.0
0.6178385355358158,-0.37119382606960993,-0.285430443195586,0.26120780918174386,1.4827248125937826,-0.058238278831541646,0.0
0.479307653622713,-0.403778141594781,-0.17466614572299977,-0.31440772347607937,0.7878950219668288,0.04691088674077689,0.0
0.5796233620399877,-0.4596368052454119,-0.4923847616189803,-0.5812943037287392,1.2232050304416968,0.02106416656855971,0.0
0.5414078540715027,-0.4829113163348197,0.0352029769815162,0.26855849655429226,0.5641998295308962,-0.04002808648474512,0.0
0.6799387359846066,-0.36188410311582075,-0.08139098007654816,0.16847604275256634,0.8962017887731064,-0.0758610452720855,0.0
0.6273924125279373,-0.2408568898968219,-0.2183888732418696,-0.02716538827135377,0.9761821641614454,0.002853974893453016,0.0
0.49363846911089543,-0.24551175137371645,-0.19215527754913467,-0.10576122487264208,0.7549863711582512,0.009315655608197155,0.0
0.38376921817415643,-0.2780960261579006,-0.11928404800994037,0.0033682441567444176,0.4238175315116444,0.04808573855328232,0.0
0.34077677170960974,-0.24551175137371645,-0.09888006087944937,-0.025469074209263188,0.2230333921533366,0.14736065581011126,0.0
0.5031923461030162,-0.29671555354745266,-0.06390189927364694,0.04351431754879022,0.08056830530655859,0.10917799339776005,0.0
0.5461847925675629,-0.33395468980853116,-0.023094027059132934,0.04012169179528463,-0.204778438346281,0.024588718423730126,0.0
0.5270770385833198,-0.3432644942442944,-0.0493276227518678,0.05312675721964205,-0.29392327154700554,0.003441400351912498,0.0
0.5796233620399877,-0.34791939646217596,-0.1338582735084856,0.04351431754879022,-0.1743692276163702,-0.03415383100456385,0.0
0.6560540435043015,-0.2874058305936636,-0.15426220961574258,0.0203313744328841,-0.025655665051081373,-0.027692151409302784,0.0
0.5700694850478661,-0.2780960261579006,-0.15134735431138668,-0.03564695168529592,-0.1331293300443494,-0.03826581234833283,0.0
0.5748464235439275,-0.2501666535915983,-0.1338582735084856,0.0248548751502036,-0.15645695308125773,-0.03591610872332198,0.0
0.5414078540715027,-0.31068026020109757,-0.09888006087944937,0.11871752451728564,-0.36307301090064537,-0.016531066355192945,0.0
0.4888615306148341,-0.32464496685474237,-0.11053948209687274,0.17469585408372104,-0.452634363253243,0.009315655608197155,0.0
0.5318539770793804,-0.33860959202641294,-0.1338582735084856,0.21653824002924565,-0.46596443936660903,0.000504272779744322,0.0
0.474530715126652,-0.2920606513295711,-0.18632556694042315,0.14359678363492595,-0.6350896682786369,0.011665357442035082,0.0
0.35033064870173164,-0.2920606513295711,-0.1396879841171971,-0.02038013891950219,-1.013746893917628,0.09038037872705665,0.0
0.4840845921187739,-0.33860959202641294,-0.23879286037236047,-0.128378731907495,-0.8650333592964149,0.07628216414168326,0.0
0.6273924125279373,-0.306025357983216,-0.3291531707144561,-0.27199989261334695,-0.43972086726064297,0.020476740662307,0.0
0.6512771050082417,-0.306025357983216,-0.34664225151735734,-0.27765425902729396,0.015584229980568862,-0.060000552967953945,0.0
0.479307653622713,-0.2920606513295711,-0.2533670858709057,-0.1430801066525919,-0.028571616660509662,-0.07292391574082192,0.0
0.4410924801268848,-0.2874058305936636,-0.2591967964796176,-0.10915385299682324,-0.06564586544710355,-0.05471372697637124,0.0
0.4697537766305918,-0.2734411239400191,-0.3000046686941317,-0.20640910979855415,-0.06106365686387504,-0.030041853243140706,0.0
0.4267616646387031,-0.25947645802736125,-0.3437273962130016,-0.416186484443385,-0.19269806194928416,0.019301888849801573,0.0
0.4601998996384695,-0.2641313195042558,-0.2504522305665499,-0.24881694066128654,-0.04231825003130676,0.05161029399079858,0.0
0.5414078540715027,-0.29671555354745266,-0.23296314976364874,0.025420313170900474,0.11972538356660696,0.08979295282080393,0.0
0.5318539770793804,-0.3525742986800574,-0.21547406896074775,0.16564884575257127,0.21636837441961781,0.04397376079185917,0.0
0.498415407606956,-0.34791939646217596,-0.2242185838505811,0.30078845683750266,0.19012480231365161,-0.014768790427607729,0.0
0.37421534118203453,-0.3292998690726239,-0.24462251995783832,0.17526128520790715,-0.036486344272079654,0.003441400351912498,0.0
0.37899227967809546,-0.2920606513295711,-0.23296314976364874,0.17808848220790222,-0.12771399170403552,0.012252783348287794,0.0
0.4172077876465812,-0.2920606513295711,-0.2650265070883293,0.10175439424114596,-0.1793680061588824,0.025176144329982848,0.0
0.4840845921187739,-0.2920606513295711,-0.314578894192677,0.029378375867523114,-0.07272746330158818,0.01812703882846907,0.0
0.5223001000872589,-0.2734411239400191,-0.3204086048013885,0.09723089352382645,0.04932596481956232,0.024001292517477426,0.0
0.4649768381345313,-0.3432644942442944,-0.2504522305665499,0.08196407730977735,-0.016907808952611257,0.007553378785025483,0.0
0.4840845921187739,-0.33860959202641294,-0.2591967964796176,0.016373311736261453,0.006836373882098758,-0.04237779010975596,0.0
0.4601998996384695,-0.3572292008979393,-0.2708561666738069,0.06217376037840875,0.08306769457781471,-0.04002808648474512,0.0
0.4458690841502874,-0.36188410311582075,-0.22130372854622557,0.32114419799654664,0.08681677340395784,0.012252783348287794,0.0
0.4315386031347633,-0.38050363050537317,-0.22130372854622557,0.4766395502405218,0.05890694686456203,0.03986178303043603,0.0
0.4267616646387031,-0.34791939646217596,-0.2591967964796176,0.3805151556871631,0.05057565437444932,0.007553378785025483,0.0
0.4888615306148341,-0.38050363050537317,-0.19507008183025673,0.5331833247241649,0.19387388113979478,-0.011831662687517093,0.0
0.49363846911089543,-0.33860959202641294,-0.20964435835203588,0.43875522354336444,0.16971312834580096,-0.024167599554132363,0.0
0.498415407606956,-0.3199900646368605,-0.285430443195586,-0.30592614626911546,0.04224436696507769,-0.09935806719281058,0.0
0.5414078540715027,-0.3292998690726239,-0.2475373752621942,-0.30988421931050436,0.1551333728390302,-0.07527361936583277,0.0
0.4697537766305918,-0.34791939646217596,-0.21547406896074775,0.12889540199331836,-0.015241550073533141,-0.003020280362831642,0.0
0.498415407606956,-0.38515853272325473,-0.23004829445929298,0.12493733584844031,0.0022541627584997206,0.0016791238086115922,0.0
0.498415407606956,-0.36188410311582075,-0.20964435835203588,0.15942903442141657,-0.005243999815754437,-0.024167599554132363,0.0
0.474530715126652,-0.36188410311582075,-0.20381464774332436,0.16169078650420401,-0.025655665051081373,-0.008894535843012918,0.0
0.4840845921187739,-0.33860959202641294,-0.20964435835203588,0.17526128520790715,-0.04231825003130676,-0.015943642240113153,0.0
0.4697537766305918,-0.3292998690726239,-0.21255921365639174,0.1939207329943928,-0.0464838962763631,-0.02710472729422299,0.0
0.479307653622713,-0.3292998690726239,-0.2067295030476799,0.20862210773948964,-0.059813962228246975,-0.011244237676850842,0.0
0.474530715126652,-0.36188410311582075,-0.20381464774332436,0.23519767402270988,-0.06606243032564622,-0.020055620001536285,0.0
0.4888615306148341,-0.36188410311582075,-0.18341071163606715,0.2719511246784735,-0.06647899520418891,-0.024167599554132363,0.0
0.479307653622713,-0.3525742986800574,-0.19215527754913467,0.3030502089202901,-0.09355569198649938,-0.008894535843012918,0.0
0.474530715126652,-0.34791939646217596,-0.2067295030476799,0.3149243728723703,-0.12563117239206315,-0.024167599554132363,0.0
0.474530715126652,-0.33395468980853116,-0.23004829445929298,0.323405950079334,-0.15104161474094388,-0.017118492261445656,0.0
0.4888615306148341,-0.30137045576533417,-0.23879286037236047,0.3251022710379353,-0.1502084849838585,-0.015943642240113153,0.0
0.4888615306148341,-0.306025357983216,-0.2708561666738069,0.323405950079334,-0.1106348469260085,-0.02064304590778901,0.0
0.5127462230951377,-0.306025357983216,-0.2650265070883293,0.308139144210051,-0.07814280672264311,-0.0012580037635565842,0.0
0.536630915575441,-0.28275092837578214,-0.2796007325868745,0.26120780918174386,-0.027321923295066858,-0.020055620001536285,0.0
0.5414078540715027,-0.2408568898968219,-0.3087492346071991,0.20353317244972866,-0.028571616660509662,-0.028279577315555485,0.0
0.5414078540715027,-0.19430794919998015,-0.3204086048013885,0.10967052308264663,-0.01065933958502674,-0.010656811770598133,0.0
0.5318539770793804,-0.17103347885155956,-0.3000046686941317,0.03672906582626308,0.02224926295651081,-0.025929875481717563,0.0
0.498415407606956,-0.1756883810694411,-0.285430443195586,-0.05826445872014883,0.052658478767162765,0.004028825810371979,0.0
0.474530715126652,-0.19896285141786196,-0.3000046686941317,-0.12328978282471245,0.0626560307714462,0.01812703882846907,0.0
0.4172077876465812,-0.29671555354745266,-0.314578894192677,-0.12781328699028735,0.05974007662164739,0.051022868084545876,0.0
0.4601998996384695,-0.32464496685474237,-0.34664225151735734,-0.42579895148476404,0.06557197984050396,0.08391869375827682,0.0
0.474530715126652,-0.31068026020109757,-0.16592163083316594,-0.611262456757076,0.04641001066976352,0.09155523053956206,0.0
0.4506460226463492,-0.2734411239400191,-0.1338582735084856,0.11249771318613093,0.14721864522746017,0.10447858614773836,0.0
0.39332309516627717,-0.3292998690726239,-0.2475373752621942,-0.18039898843254162,-0.05523175364501847,0.11505224529559548,0.0
0.4315386031347633,-0.3898134349411362,-0.26794131136945115,-0.10067227578985957,-0.01982376056203954,0.09977918606240835,0.0
0.40287697215839907,-0.403778141594781,-0.2591967964796176,-0.11933172357634522,-0.09855447052901163,0.12915045988096885,0.0
0.5605156080557453,-0.4829113163348197,-0.40202434923041674,-0.1300750390730748,0.031830250082251564,0.03516237936276018,0.0
0.536630915575441,-0.4503270008096486,-0.38453531945074954,-0.36077359979415735,-0.08647409921275581,0.024001292517477426,0.0
0.35988452569385243,-0.4829113163348197,-0.2708561666738069,-0.2680418195719583,-0.2481011653917563,0.10271631559367189,0.0
0.4649768381345313,-0.44101727785585937,-0.16883648613752195,0.06104288433701503,-0.16437168069282776,0.09977918606240835,0.0
0.4649768381345313,-0.37119382606960993,-0.1892404222447789,0.16282166254559774,0.0030872925155850956,0.07863186776669409,0.0
0.5318539770793804,-0.33860959202641294,-0.2417076646534823,0.2713856935542874,0.1430529964420332,0.10095403787491376,0.0
0.5891772390321092,-0.3665390053337023,-0.31749374949703274,0.3143589417481842,0.3721635475412438,0.050435442178293155,0.0
0.5557386695596844,-0.38050363050537317,-0.34664225151735734,0.04634150576650986,0.4009064784340197,0.006965953326566002,0.0
0.474530715126652,-0.3665390053337023,-0.285430443195586,-0.3178003378072389,0.3667481685550015,-0.016531066355192945,0.0
0.474530715126652,-0.3665390053337023,-0.285430443195586,-0.3930035324913245,0.27385427685109803,-0.0394406605784924,0.0
0.4601998996384695,-0.37119382606960993,-0.1804958563317114,-0.17361373218417936,0.14763520502526178,-0.011244237676850842,0.0
0.40287697215839907,-0.37119382606960993,-0.15426220961574258,0.241417499146886,0.009335760612984351,-0.01006938675993188,0.0
0.40287697215839907,-0.37119382606960993,-0.15426220961574258,0.7406989472862083,0.04182780208653499,0.04749831264702959,0.0
0.5939541775281701,-0.2641313195042558,-0.23879286037236047,0.6315694437742678,0.25927452134432705,-0.003020280362831642,0.0
0.4888615306148341,-0.2920606513295711,-0.16592163083316594,0.6061247949115061,0.2838518339361226,0.045736038510617305,5.0
0.4888615306148341,-0.2920606513295711,-0.16592163083316594,0.4438441588331255,0.07515296696624471,0.05161029399079858,5.0
0.4172077876465812,-0.3292998690726239,-0.21547406896074775,0.3889967053080837,-0.08605753433421312,0.0733450346104197,5.0
0.39332309516627717,-0.39912323937689953,-0.19215527754913467,0.09440370686859753,-0.2026956190343087,0.08098157139170495,5.0
0.39332309516627717,-0.39912323937689953,-0.19215527754913467,0.03164012708824671,-0.23102201045224724,0.07804444186044139,5.0
0.5079692845990772,-0.445672098591767,-0.23004829445929298,-0.14647273477677292,-0.11438392575215163,-0.004195131279750607,5.0
0.4840845921187739,-0.445672098591767,-0.023094027059132934,0.015807873715564597,-0.09855447052901163,0.06277137546256256,5.0
0.3168920792293065,-0.403778141594781,-0.1396879841171971,-0.41053211802943784,-0.5155356446709657,0.10389116024148563,5.0
0.3168920792293065,-0.403778141594781,-0.1396879841171971,-0.2906593403998326,-0.7071553871857806,-0.057650852925288945,5.0
0.6465001665121811,-0.3525742986800574,-0.22713343915493708,-0.55415327873529,-0.43638834823230144,-0.19393357361727198,5.0
0.718154243953092,-0.2874058305936636,-0.39036503005946105,0.621957031904975,0.09973027955804009,-0.04766461968368453,5.0
0.718154243953092,-0.2874058305936636,-0.39036503005946105,-0.16965567293581202,0.251776363692041,0.0545474199397163,5.0
0.5175231615911987,-0.4503270008096486,-0.18341071163606715,0.13059171605540892,0.09514807097481158,0.01753961292221636,5.0
0.4649768381345313,-0.4270525712022147,-0.17466614572299977,0.13341890615889326,0.02599834432302446,-0.02710472729422299,5.0
0.4649768381345313,-0.403778141594781,-0.16592163083316594,0.12493733584844031,0.023498957592138874,-0.03356640868065697,5.0
0.43631554163082387,-0.3572292008979393,-0.1979849371346125,0.13398433728307937,0.0014210336365069792,-0.017118492261445656,5.0
0.4315386031347633,-0.36188410311582075,-0.21255921365639174,0.1283299639726215,-0.03565321451499428,-0.005369982196669568,5.0
0.4649768381345313,-0.36188410311582075,-0.23296314976364874,0.13228803011749957,-0.04856671812870601,0.007553378785025483,5.0
0.4649768381345313,-0.37119382606960993,-0.23879286037236047,0.1328534681381964,-0.03815260378625041,0.0022665493230452274,5.0
0.4601998996384695,-0.3898134349411362,-0.26211165178397333,0.14020415551074483,-0.036486344272079654,-0.014768790427607729,5.0
0.4410924801268848,-0.403778141594781,-0.2562819411752617,0.15377466111095875,-0.034403522419736744,-0.007719684030507493,5.0
0.42198472614264215,-0.4270525712022147,-0.26211165178397333,0.17073778104233228,-0.059813962228246975,-0.0024328549043721613,5.0
0.40765391065446044,-0.4596368052454119,-0.2591967964796176,0.20522947961530846,-0.06564586544710355,0.003441400351912498,5.0
0.412430849150521,-0.4689466096811748,-0.2591967964796176,0.2221926064431928,-0.058980832471161614,0.006965953326566002,5.0
0.38854615667021697,-0.4922210392886088,-0.2591967964796176,0.2572497499333765,-0.06772868983981697,0.014015059275873008,5.0
0.38376921817415643,-0.5061857459422533,-0.2358780050680045,0.2860870545063627,-0.10147041959806938,0.04044920893668875,5.0
0.37421534118203453,-0.4829113163348197,-0.23296314976364874,0.3307566374518825,-0.1297968110160079,0.03222524983149662,5.0
0.39810003366233887,-0.4363623756379779,-0.2358780050680045,0.338672755948617,-0.13812810858686164,0.016952187015963644,5.0
0.4458690841502874,-0.41774276676645156,-0.23879286037236047,0.34489258107279314,-0.13854466838466326,0.0380995053116779,5.0
0.474530715126652,-0.3665390053337023,-0.2562819411752617,0.2826944401752031,-0.13062994077309328,0.03163782392524392,5.0
0.5031923461030162,-0.28275092837578214,-0.28251558789123055,0.20296772753252104,-0.1297968110160079,0.026938420257568048,5.0
0.5031923461030162,-0.20361775363574353,-0.285430443195586,0.12946084001401525,-0.11688331502340776,0.024001292517477426,5.0
0.49363846911089543,-0.18499818550520408,-0.29708981338977575,0.04973413168165242,-0.10646919814058166,0.06159652365005715,5.0
0.474530715126652,-0.18965304698209862,-0.2533670858709057,-0.007940509360682042,-0.09688821101484088,0.09977918606240835,5.0
0.4697537766305918,-0.23620198767894038,-0.2417076646534823,-0.05826445872014883,-0.07897593647972848,0.13150016350597973,5.0
0.4649768381345313,-0.23620198767894038,-0.24462251995783832,-0.11141559128658916,-0.04939984788579138,0.1626337150432984,5.0
0.4840845921187739,-0.28275092837578214,-0.2358780050680045,-0.14703816590095903,-0.03482008729827944,0.18495588515151803,5.0
0.5031923461030162,-0.3292998690726239,-0.2417076646534823,-0.1583469263148963,-0.057314572956990856,0.19435469965156144,5.0
0.498415407606956,-0.32464496685474237,-0.2504522305665499,-0.1820952955981215,-0.06148022174241774,0.18848044058903432,5.0
0.5079692845990772,-0.3432644942442944,-0.21547406896074775,-0.2024510643432085,-0.07439372281575893,0.17261994828490282,5.0
0.49363846911089543,-0.34791939646217596,-0.20089979243896838,-0.19340405601205854,-0.06148022174241774,0.14148639674758418,5.0
0.4888615306148341,-0.37119382606960993,-0.2067295030476799,-0.18152986447393538,-0.029404746417595027,0.126213337514397,5.0
0.5031923461030162,-0.3898134349411362,-0.2242185838505811,-0.16230498556326364,0.005170115638113268,0.10036661196866106,5.0
0.5031923461030162,-0.38050363050537317,-0.2183888732418696,-0.1719174250185995,0.037245588422565444,0.07451988642292513,5.0
0.5079692845990772,-0.36188410311582075,-0.2242185838505811,-0.16569761368744468,0.03516276657022253,0.057484549470979855,5.0
0.5175231615911987,-0.33860959202641294,-0.2242185838505811,-0.17531005314278053,0.05682412755258964,0.06394622727506798,5.0
0.5079692845990772,-0.33860959202641294,-0.23879286037236047,-0.15382342214932151,0.05140878413153469,0.05924682360739214,5.0
0.4888615306148341,-0.3292998690726239,-0.23004829445929298,-0.16852479689441827,0.038911847936736195,0.011077932431368833,5.0
0.4840845921187739,-0.33860959202641294,-0.2417076646534823,-0.1787026812669618,0.021832698077968116,0.014015059275873008,5.0
0.4697537766305918,-0.37119382606960993,-0.2504522305665499,-0.15947780235629005,0.021832698077968116,0.004616251492728075,5.0
0.4506460226463492,-0.39912323937689953,-0.285430443195586,-0.16230498556326364,0.0176670543732823,-0.008307109936760204,5.0
0.4315386031347633,-0.3898134349411362,-0.2796007325868745,-0.14590728985956547,0.0176670543732823,-0.008894535843012918,5.0
0.43631554163082387,-0.41308786454857005,-0.3000046686941317,-0.13572941928004342,0.03516276657022253,-0.03650353462957469,5.0
0.4315386031347633,-0.403778141594781,-0.30291952399848726,-0.1312059151144685,0.04224436696507769,-0.0535388751638658,5.0
0.4267616646387031,-0.3898134349411362,-0.33498288132316784,-0.1481690419423528,0.06432229028561695,-0.050014319726349545,5.0
0.4267616646387031,-0.38050363050537317,-0.34664225151735734,-0.1272478558661013,0.07140388814010158,-0.05412630107011852,5.0
0.412430849150521,-0.38050363050537317,-0.33206802601881186,-0.13403309832144208,0.07307014765427233,-0.04237779010975596,5.0
0.4458690841502874,-0.3665390053337023,-0.31166408991155486,-0.13233679115586225,0.08431739429418383,-0.0623502565929648,5.0
0.43631554163082387,-0.38050363050537317,-0.3204086048013885,-0.14986536290095415,0.09306524150135709,-0.05412630107011852,5.0
0.4458690841502874,-0.38515853272325473,-0.32623831541010034,-0.18039898843254162,0.09473150101552784,-0.08173529716992091,5.0
0.4267616646387031,-0.3665390053337023,-0.35538681743042494,-0.18039898843254162,0.09223211174427172,-0.07468619345958005,5.0
0.40765391065446044,-0.3758487282874914,-0.3408125409086457,-0.19283862488787265,0.053908173402790825,-0.04883947149618996,5.0
0.35988452569385243,-0.3944683371590177,-0.3408125409086457,-0.17813723634975415,0.033913071934594474,-0.027692151409302784,5.0
0.3312228947174886,-0.4270525712022147,-0.3378976856042897,-0.1413837856939905,-0.01065933958502674,-0.0012580037635565842,5.0
0.3216690177253675,-0.43170747342009647,-0.3437273962130016,-0.11198103620379679,-0.01940719568349685,0.034574953456507476,5.0
0.3455537102056707,-0.4689466096811748,-0.3291531707144561,-0.07070408138245825,0.0014210336365069792,0.044561186698111876,5.0
0.35510758719779223,-0.4875661370707271,-0.3437273962130016,-0.04808658124411609,-0.013991856708090344,0.06042167541989756,5.0
0.35510758719779223,-0.4875661370707271,-0.34664225151735734,-0.019814700898805344,-0.06272991637804579,0.09038037872705665,5.0
0.37421534118203453,-0.4503270008096486,-0.3291531707144561,0.015242435694867744,-0.11021827696672476,0.0739324605166724,5.0
0.39332309516627717,-0.45498190302753005,-0.33206802601881186,0.027116625508863356,-0.10980171716892313,0.055134845845969,5.0
0.38376921817415643,-0.4363623756379779,-0.3000046686941317,0.02824750155025708,-0.13937779814174867,0.07451988642292513,5.0
0.36943840268597355,-0.41774276676645156,-0.285430443195586,0.08196407730977735,-0.21352629571493642,0.09390492699988125,5.0
0.34077677170960974,-0.403778141594781,-0.31166408991155486,0.12719908793122778,-0.28267601474561194,0.10271631559367189,5.0
0.27867690573347836,-0.4503270008096486,-0.3408125409086457,0.16395253858699144,-0.35765763191440303,0.14148639674758418,5.0
0.25001527475711416,-0.4596368052454119,-0.39036503005946105,0.18430829353905692,-0.3809852651127935,0.16380856685580383,5.0
0.2930073867490029,-0.47825641411693826,-0.41076891514348435,0.18996267374602552,-0.2697625187530118,0.20199122926815496,5.0
0.36466146418991335,-0.4596368052454119,-0.4574064979667102,0.2250198034431878,-0.13937779814174867,0.21139002943881496,5.0
0.4649768381345313,-0.422397668984333,-0.5273629232247824,0.21031842869809098,0.031413685203708866,0.22960022536795752,5.0
0.4315386031347633,-0.38050363050537317,-0.4719807744884891,0.07857145263385157,0.046826575548306194,0.1890678593305954,5.0
0.4554229611424097,-0.3432644942442944,-0.41659862575219586,-0.007940509360682042,-0.013991856708090344,0.14031154493507875,5.0
0.39332309516627717,-0.36188410311582075,-0.39036503005946105,-0.0842745938791829,-0.04981641022396354,0.11211512292902362,5.0
0.26912302874135685,-0.4363623756379779,-0.37579075353768193,-0.10349947278985464,-0.13104651073237703,0.13678698949756246,5.0
0.2595691517492353,-0.4829113163348197,-0.37579075353768193,-0.09049440521033761,-0.1835336447828271,0.20551577037628793,5.0
0.25001527475711416,-0.4922210392886088,-0.3932798853638168,-0.07296583346524568,-0.1881158635275378,0.2407613104220672,5.0
0.25479221325317475,-0.5248052733318056,-0.40202434923041674,-0.0424322010371475,-0.21352629571493642,0.28481821756756226,5.0
0.3168920792293065,-0.5713542140286472,-0.3991094939260608,0.029378375867523114,-0.22102445336722268,0.26895773959281394,5.0
0.35510758719779223,-0.6272129591612522,-0.4136837704478401,0.0994926456066139,-0.19103180243511336,0.23488705135954013,5.0
0.34077677170960974,-0.7110010361191726,-0.4078540598391286,0.15886359640071968,-0.163955110733544,0.1479480745516723,5.0
0.32644595622142764,-0.6458324865508045,-0.4136837704478401,0.26120780918174386,-0.12521460243277938,0.11622709710810092,5.0
0.307338202237185,-0.650487388768686,-0.41076891514348435,0.27760550488544206,-0.05064953998104891,0.1068282897727492,5.0
0.2834538442295389,-0.4736015118990564,-0.40202434923041674,0.30474650229284833,-0.014824985830083084,0.16087144448923196,5.0
0.288230448252942,-0.46429170746329335,-0.41076891514348435,0.29852670475471516,-0.008993081182268095,0.17085767773083635,5.0
0.2834538442295389,-0.4596368052454119,-0.43991746818704264,0.2679930654301062,-0.020656890319124918,0.1855433038930791,5.0
0.26912302874135685,-0.4922210392886088,-0.4457471787957545,0.2250198034431878,-0.041485120274221375,0.15382233361419942,5.0
0.26912302874135685,-0.49687594150649017,-0.4515767873579983,0.17130322595953987,-0.0706446439896158,0.19964152564314425,5.0
0.2930073867490029,-0.5061857459422533,-0.40202434923041674,0.13341890615889326,-0.08897348340327088,0.22255111449292483,5.0
0.23568445926893208,-0.4829113163348197,-0.40202434923041674,0.10231983226184281,-0.15229130429583093,0.2677828734509254,5.0
0.19269201280438542,-0.4829113163348197,-0.40202434923041674,0.057650258799025404,-0.21935821417601611,0.3564841351422428,5.0
0.1783611973162033,-0.45498190302753005,-0.3583016727347807,0.044079755138455155,-0.3097527267701456,0.44694765305824363,5.0
0.21179976678862844,-0.4503270008096486,-0.35247196212606907,0.036163627805566215,-0.35849079215593477,0.5362363334911223,5.0
0.25001527475711416,-0.4503270008096486,-0.3233234601057445,0.0644355107370685,-0.4051460179067873,0.5855800809575833,5.0
0.302561263741124,-0.46429170746329335,-0.3204086048013885,0.0887493301098843,-0.423058312764864,0.6308118685743505,5.0
0.37899227967809546,-0.5108406481601351,-0.31166408991155486,0.09610001748243273,-0.40223007899921165,0.6590082547569471,5.0
0.4697537766305918,-0.5015308437243716,-0.32623831541010034,0.12041383857937622,-0.3422447568120288,0.60613999484112,5.0
0.5414078540715027,-0.5015308437243716,-0.3291531707144561,0.12324102868286052,-0.2780938163238656,0.5074524999081979,5.0
0.5652925465518055,-0.5248052733318056,-0.33498288132316784,0.10175439424114596,-0.2281060512217073,0.41992610435876904,5.0
0.5700694850478661,-0.5573895888569769,-0.36121652803913645,0.10514701891707175,-0.15145817453874552,0.30655296893422096,5.0
0.5844003005360485,-0.6179031547254892,-0.36121652803913645,0.07574426253036727,-0.08522440457712774,0.1978792407596944,5.0
0.536630915575441,-0.6365227635970154,-0.36121652803913645,0.03446731546760332,-0.03232069802702331,0.08215641603951868,5.0
0.5079692845990772,-0.6179031547254892,-0.3408125409086457,0.019200498391490375,0.0072529387606414435,-0.03709096053582741,5.0
0.5031923461030162,-0.5666993118107657,-0.35247196212606907,0.03785994100559295,0.0305805554466235,-0.07409876755332737,5.0
0.5079692845990772,-0.5620444095928842,-0.3408125409086457,0.05312675721964205,0.09348181146064083,-0.14282755559674448,5.0
0.4172077876465812,-0.5573895888569769,-0.31166408991155486,0.048037818697141646,0.11347691546920771,-0.15340120757990994,5.0
0.39332309516627717,-0.5713542140286472,-0.30583437930284324,0.058215695957658416,0.08390082433490006,-0.13636587779265635,5.0
0.38854615667021697,-0.5573895888569769,-0.3204086048013885,0.06952444947508488,0.09598120073189696,-0.12696706329261293,5.0
0.40765391065446044,-0.5480797844212134,-0.31749374949703274,0.08026776324768677,0.1338885792755763,-0.1234425078550967,5.0
0.4267616646387031,-0.5154955503780165,-0.31166408991155486,0.06160832235771189,0.17387878729271003,-0.15516349246335975,5.0
0.474530715126652,-0.4922210392886088,-0.31749374949703274,0.036163627805566215,0.19637326024956886,-0.18805931455474484,5.0
0.4888615306148341,-0.4596368052454119,-0.314578894192677,0.005629996239531873,0.23136468972419022,-0.2327036547711842,5.0
0.5079692845990772,-0.4689466096811748,-0.33498288132316784,-0.031123454416231808,0.2734377170532964,-0.28263482097920634,5.0
0.474530715126652,-0.46429170746329335,-0.3291531707144561,-0.08088196575500173,0.2601076409399304,-0.31905521283749105,5.0
0.4410924801268848,-0.4829113163348197,-0.3495571068217131,-0.084840025003369,0.233030949238361,-0.34313963917039386,5.0
0.4506460226463492,-0.520150452595898,-0.32623831541010034,-0.10519577995543446,0.2492769642593027,-0.3507761974457541,5.0
0.42198472614264215,-0.5620444095928842,-0.35538681743042494,-0.09388703333451877,0.2751039765674672,-0.3683989603039521,5.0
0.42198472614264215,-0.5527346866390951,-0.3583016727347807,-0.0678768981754847,0.314677604463835,-0.3918959678952939,5.0
0.42198472614264215,-0.5527346866390951,-0.3583016727347807,-0.04808658124411609,0.31925982320854573,-0.4447642564698877,5.0
0.38376921817415643,-0.5760091162465288,-0.36996104292897014,-0.015291196733230457,0.34591997543527764,-0.5134930803367633,5.0
0.39332309516627717,-0.5899738229001733,-0.3408125409086457,0.02824750155025708,0.3563340719951395,-0.5904457665854933,5.0
0.39332309516627717,-0.5899738229001733,-0.3408125409086457,0.05991200915768515,0.3804948247891333,-0.6897207089187432,5.0
0.34077677170960974,-0.543424882203332,-0.3583016727347807,0.044079755138455155,0.3700806875833429,-0.7408267412686541,5.0
0.32644595622142764,-0.5108406481601351,-0.38453531945074954,0.07065532379235089,0.29468251061675027,-0.7261410721182612,5.0
0.32644595622142764,-0.5108406481601351,-0.38453531945074954,0.1300262780347121,0.25760826183015645,-0.6985320760184588,5.0
0.3121151407332456,-0.5061857459422533,-0.3787056088420379,0.16338709366978382,0.22594935138387637,-0.661524265418613,5.0
0.3312228947174886,-0.4503270008096486,-0.43117290227397526,0.20070598924275512,0.24677758514952863,-0.6521254509185697,5.0
0.3312228947174886,-0.4503270008096486,-0.43117290227397526,0.19278985695299905,0.31426104466603344,-0.6327404318356885,5.0
0.3121151407332456,-0.43170747342009647,-0.41951348105655184,0.17073778104233228,0.3200929631271132,-0.5804595620026557,5.0
0.2834538442295389,-0.4270525712022147,-0.39036503005946105,0.18091566541487578,0.3317567594033442,-0.5399271816359101,5.0
0.2834538442295389,-0.4270525712022147,-0.39036503005946105,0.19222441203579144,0.29884814924069514,-0.5046816559195143,5.0
0.26912302874135685,-0.39912323937689953,-0.3787056088420379,0.17526128520790715,0.24386162591898883,-0.4788349447031617,5.0
0.3312228947174886,-0.403778141594781,-0.3932798853638168,0.2018368514911273,0.2192843133271934,-0.4300786159782617,5.0
0.35033064870173164,-0.4084329623306886,-0.37579075353768193,0.19618248507718022,0.21303585539127629,-0.3871965606452721,5.0
0.35033064870173164,-0.4084329623306886,-0.37579075353768193,0.19787879224276006,0.2047045578204225,-0.34490192405384357,5.0
0.34077677170960974,-0.3944683371590177,-0.37579075353768193,0.15829815838002284,0.18262664466136547,-0.31435580558746945,5.0
0.3455537102056707,-0.3525742986800574,-0.3961947406681728,0.14642396684189957,0.17387878729271003,-0.2638372206378863,5.0
0.302561263741124,-0.3292998690726239,-0.3961947406681728,0.10401614287567802,0.15305055352705776,-0.1933461405463276,5.0
0.27867690573347836,-0.3292998690726239,-0.37287589823332606,0.09157651676511322,0.10431248814126859,-0.09700836356779974,5.0
0.2834538442295389,-0.3199900646368605,-0.32623831541010034,0.08479126396500627,0.028497733594280594,-0.02240532183537421,5.0
0.3168920792293065,-0.306025357983216,-0.32623831541010034,0.09044564072371951,-0.023156277050010513,0.049260590365787726,5.0
0.35510758719779223,-0.33395468980853116,-0.32623831541010034,0.08931476813058116,-0.05064953998104891,0.08509354557078223,5.0
0.38854615667021697,-0.33860959202641294,-0.3204086048013885,0.10231983226184281,-0.08147532067024355,0.0968420565311448,5.0
0.4172077876465812,-0.315335162418979,-0.285430443195586,0.12946084001401525,-0.08147532067024355,0.11975165254561716,5.0
0.4506460226463492,-0.2874058305936636,-0.30583437930284324,0.14303134561422912,-0.08272501530587162,0.14677322273916688,5.0
0.4649768381345313,-0.25482155580947974,-0.28251558789123055,0.13341890615889326,-0.09772134077192624,0.17085767773083635,5.0
0.4506460226463492,-0.21758241954840105,-0.2650265070883293,0.11871752451728564,-0.11396735579286789,0.17908162608899095,5.0
0.4315386031347633,-0.2268921832431774,-0.2242185838505811,0.09214195478581008,-0.14187718741300478,0.17614450372241908,5.0
0.4410924801268848,-0.20827261511263806,-0.22713343915493708,0.07008988749578174,-0.17062014879022697,0.23547448443048455,5.0
0.43631554163082387,-0.21292751733051948,-0.2475373752621942,0.05538850844036565,-0.16603794020699855,0.2595589250927706,5.0
0.474530715126652,-0.23154708546105884,-0.2475373752621942,0.04294887995912528,-0.16187229142157172,0.2983290205760662,5.0
0.474530715126652,-0.2734411239400191,-0.2650265070883293,0.057650258799025404,-0.15229130429583093,0.3094900913007927,5.0
0.49363846911089543,-0.29671555354745266,-0.28834529849994217,0.041252566974614505,-0.12354834291860864,0.32358831305085783,5.0
0.5079692845990772,-0.315335162418979,-0.3000046686941317,0.044079755138455155,-0.07730967696555774,0.28423079882600116,5.0
0.5175231615911987,-0.3432644942442944,-0.27668587728251876,0.019200498391490375,-0.01607467919552588,0.24957269185116615,5.0
0.5175231615911987,-0.3292998690726239,-0.26794131136945115,0.057650258799025404,0.0005879045145142342,0.22960022536795752,5.0
0.5175231615911987,-0.34791939646217596,-0.2533670858709057,0.06387007271637164,0.0072529387606414435,0.20434093289316585,5.0
0.498415407606956,-0.36188410311582075,-0.2504522305665499,0.07517882450967041,0.014334536615126072,0.20199122926815496,5.0
0.498415407606956,-0.33860959202641294,-0.23879286037236047,0.09723089352382645,0.028497733594280594,0.19141756295560622,5.0
0.5127462230951377,-0.3572292008979393,-0.23004829445929298,0.11589033441380134,0.023498957592138874,0.16615827048081466,5.0
0.5127462230951377,-0.3525742986800574,-0.2242185838505811,0.1379424034279574,0.015584229980568862,0.10565343796024379,5.0
0.5079692845990772,-0.36188410311582075,-0.22713343915493708,0.13963871749004797,0.004336985881027894,0.07628216414168326,5.0
0.5031923461030162,-0.36188410311582075,-0.2417076646534823,0.15038203298677752,-0.0014949186080139374,0.032812675737749326,5.0
0.5031923461030162,-0.3758487282874914,-0.2242185838505811,0.16508341462838516,0.0010044693930569228,-0.010656811770598133,5.0
0.49363846911089543,-0.3944683371590177,-0.23004829445929298,0.1599944724421134,-0.0010783537294712512,-0.006544833113588531,5.0
0.474530715126652,-0.403778141594781,-0.23004829445929298,0.15829815838002284,0.01974987622562521,-0.00595740810292228,5.0
0.49363846911089543,-0.3898134349411362,-0.2475373752621942,0.13341890615889326,0.014751100223483497,-8.315273468931316e-05,5.0
0.4840845921187739,-0.39912323937689953,-0.24462251995783832,0.15038203298677752,0.011002020127155105,0.005791102409647037,5.0
0.474530715126652,-0.37119382606960993,-0.2475373752621942,0.1419004695728354,0.002670727637042408,0.019301888849801573,5.0
0.4506460226463492,-0.3758487282874914,-0.2533670858709057,0.13059171605540892,-0.012325597829012224,0.022826442496144926,5.0
0.4410924801268848,-0.3758487282874914,-0.2417076646534823,0.11080139912404036,-0.022323148563110407,0.007553378785025483,5.0
0.4315386031347633,-0.3898134349411362,-0.24462251995783832,0.10231983226184281,-0.026488794808166752,0.002853974893453016,5.0
0.4315386031347633,-0.41308786454857005,-0.23296314976364874,0.08761845406849059,-0.027321923295066858,-0.008307109936760204,5.0
0.474530715126652,-0.4084329623306886,-0.2242185838505811,0.08818389208918744,-0.02898818153905234,-0.013593939510688765,5.0
0.5127462230951377,-0.4270525712022147,-0.23879286037236047,0.0859221400064,-0.008576516621271724,-0.007132259019841241,5.0
0.498415407606956,-0.39912323937689953,-0.24462251995783832,0.06273919667497792,0.006003244125013379,-0.030041853243140706,5.0
0.479307653622713,-0.403778141594781,-0.2504522305665499,0.06782813541299429,0.01058545524861241,-0.015356216333860442,5.0
0.4458690841502874,-0.41308786454857005,-0.24462251995783832,0.06613182307503139,-0.003161176851999422,-0.012419088593769804,5.0
0.4410924801268848,-0.4084329623306886,-0.23879286037236047,0.06047744631631817,-0.0027446122910030507,0.005203676951187556,5.0
0.4315386031347633,-0.403778141594781,-0.24462251995783832,0.07008988749578174,-0.01607467919552588,0.026350996142488276,5.0
0.4267616646387031,-0.3898134349411362,-0.23004829445929298,0.05991200915768515,-0.020240325440582227,0.01049050652511612,5.0
0.4458690841502874,-0.3944683371590177,-0.23004829445929298,0.06160832235771189,-0.01190903358556217,0.007553378785025483,5.0
0.4840845921187739,-0.4270525712022147,-0.22713343915493708,0.06047744631631817,-0.00232804773000668,-0.00595740810292228,5.0
0.4840845921187739,-0.403778141594781,-0.2562819411752617,0.06387007271637164,0.004336985881027894,-0.024755023669212135,5.0
0.49363846911089543,-0.403778141594781,-0.24462251995783832,0.05029956927131736,0.01641735973765424,-0.020055620001536285,5.0
0.4840845921187739,-0.3944683371590177,-0.22713343915493708,0.05595394559899866,0.0005879045145142342,-0.008894535843012918,5.0
0.479307653622713,-0.3758487282874914,-0.2242185838505811,0.05199588204031218,0.0030872925155850956,-0.011244237676850842,5.0
0.474530715126652,-0.36188410311582075,-0.20089979243896838,0.028812939570953943,0.0047535507595705805,-8.315273468931316e-05,5.0
0.4649768381345313,-0.36188410311582075,-0.22130372854622557,0.019200498391490375,-0.006077129017133759,0.011665357442035082,5.0
0.4601998996384695,-0.3525742986800574,-0.23004829445929298,-0.0011552565605750813,-0.030654441053223097,0.0016791238086115922,5.0
0.4554229611424097,-0.3525742986800574,-0.23879286037236047,-0.014725758712533584,-0.040651990517136,0.032812675737749326,5.0
0.4506460226463492,-0.36188410311582075,-0.24462251995783832,-0.040170455850870805,-0.027321923295066858,0.029288123882578905,5.0
0.4601998996384695,-0.37119382606960993,-0.2504522305665499,-0.03395063762320534,-0.025655665051081373,0.051022868084545876,5.0
0.4649768381345313,-0.3944683371590177,-0.2417076646534823,-0.04695570520272239,-0.008576516621271724,0.046323464416870005,5.0
0.4410924801268848,-0.403778141594781,-0.2504522305665499,-0.03790870376808338,-0.003994305973992166,0.03986178303043603,5.0
0.4697537766305918,-0.4363623756379779,-0.2591967964796176,-0.04808658124411609,0.020583005982710588,0.024001292517477426,5.0
0.474530715126652,-0.41774276676645156,-0.2591967964796176,-0.031123454416231808,0.0072529387606414435,0.012252783348287794,5.0
0.4410924801268848,-0.43170747342009647,-0.2591967964796176,-0.029992578374838073,0.020166441104167904,0.01460248518212572,5.0
0.43631554163082387,-0.43170747342009647,-0.2591967964796176,-0.031123454416231808,0.021832698077968116,0.012840208358954048,5.0
0.4267616646387031,-0.422397668984333,-0.24462251995783832,-0.013594882671139875,0.012668278371140589,0.009315655608197155,5.0
0.42198472614264215,-0.41774276676645156,-0.2796007325868745,-0.0005898185398782143,-0.005243999815754437,0.022826442496144926,5.0
0.43631554163082387,-0.4270525712022147,-0.2708561666738069,0.018635060370793523,0.004336985881027894,0.01812703882846907,5.0
0.4506460226463492,-0.43170747342009647,-0.2591967964796176,0.022593124791543854,0.006003244125013379,0.032812675737749326,5.0
0.4410924801268848,-0.4363623756379779,-0.2591967964796176,0.032771002267576586,-0.008993081182268095,0.01812703882846907,5.0
0.4410924801268848,-0.4270525712022147,-0.2504522305665499,0.0508650068609823,-0.004410870534988537,-0.005369982196669568,5.0
0.42198472614264215,-0.41774276676645156,-0.2533670858709057,0.07235163785444149,-0.02690535968670943,0.0222390165898922,5.0
0.43631554163082387,-0.41308786454857005,-0.2737710219781629,0.07235163785444149,-0.026072229929624057,0.005203676951187556,5.0
0.4506460226463492,-0.38515853272325473,-0.2591967964796176,0.08196407730977735,-0.03815260378625041,0.006965953326566002,5.0
0.4506460226463492,-0.3944683371590177,-0.2650265070883293,0.07517882450967041,-0.031071005931765774,-0.004782556738210088,5.0
0.4506460226463492,-0.403778141594781,-0.2737710219781629,0.08026776324768677,-0.01940719568349685,-0.0018454292220160652,5.0
0.4554229611424097,-0.3944683371590177,-0.2650265070883293,0.07574426253036727,-0.013991856708090344,0.005203676951187556,5.0
0.4554229611424097,-0.38050363050537317,-0.2591967964796176,0.07122076181304776,-0.015241550073533141,0.015189911088378432,5.0
0.4697537766305918,-0.3758487282874914,-0.2650265070883293,0.05878113397835528,-0.025239100172538675,0.004028825810371979,5.0
0.4554229611424097,-0.3758487282874914,-0.26211165178397333,0.05991200915768515,-0.010242775024030367,0.00637852786810652,5.0
0.4410924801268848,-0.38050363050537317,-0.2650265070883293,0.04690694341005379,-0.013158726951004967,0.006965953326566002,5.0
0.4458690841502874,-0.38515853272325473,-0.2650265070883293,0.05256132006100903,-0.018574067196596742,-0.005369982196669568,5.0
0.4554229611424097,-0.39912323937689953,-0.2562819411752617,0.04012169179528463,-0.023156277050010513,0.002853974893453016,5.0
0.4506460226463492,-0.3758487282874914,-0.26794131136945115,0.04860325628680658,-0.03273726290556601,0.006965953326566002,5.0
0.4458690841502874,-0.3944683371590177,-0.27668587728251876,0.06104288433701503,-0.03357039266265137,-0.0012580037635565842,5.0
0.4506460226463492,-0.3944683371590177,-0.2650265070883293,0.06556638505433454,-0.01982376056203954,-0.017705918167698367,5.0
0.4506460226463492,-0.38515853272325473,-0.2796007325868745,0.0842258293925648,-0.01649124407406857,-0.011244237676850842,5.0
0.4649768381345313,-0.38515853272325473,-0.2591967964796176,0.10458158089637488,-0.01649124407406857,-0.01006938675993188,5.0
0.4697537766305918,-0.38515853272325473,-0.2708561666738069,0.08761845406849059,-0.015658114952075825,-0.0012580037635565842,5.0
0.474530715126652,-0.3758487282874914,-0.2650265070883293,0.10345070830323654,-0.008993081182268095,-0.022992747741626934,5.0
0.4601998996384695,-0.36188410311582075,-0.2591967964796176,0.09044564072371951,-0.01065933958502674,0.004616251492728075,5.0
0.4601998996384695,-0.36188410311582075,-0.24462251995783832,0.09553457946173587,0.00017134027106418132,-0.007719684030507493,5.0
0.4649768381345313,-0.36188410311582075,-0.2650265070883293,0.0780060146131547,-0.008993081182268095,-0.009481960853679165,5.0
0.4506460226463492,-0.3665390053337023,-0.27668587728251876,0.06330463469567478,-0.014824985830083084,-8.315273468931316e-05,5.0
0.4506460226463492,-0.34791939646217596,-0.2504522305665499,0.06613182307503139,-0.01732437319606131,-0.0012580037635565842,5.0
0.4410924801268848,-0.34791939646217596,-0.2533670858709057,0.05878113397835528,-0.009409645902037625,-0.0006705783050971021,5.0
0.43631554163082387,-0.3572292008979393,-0.2417076646534823,0.054257632398971925,-0.01649124407406857,-0.013593939510688765,5.0
0.4410924801268848,-0.3572292008979393,-0.2533670858709057,0.054257632398971925,-0.01607467919552588,0.013427634265206757,5.0
0.4458690841502874,-0.34791939646217596,-0.26211165178397333,0.04747238110747671,-0.016907808952611257,0.0222390165898922,5.0
0.4506460226463492,-0.3572292008979393,-0.24462251995783832,0.04294887995912528,-0.015241550073533141,0.022826442496144926,5.0
0.4506460226463492,-0.37119382606960993,-0.2533670858709057,0.045210630479422004,-0.013575291829547654,0.03163782392524392,5.0
0.4649768381345313,-0.3758487282874914,-0.23879286037236047,0.03446731546760332,-0.01649124407406857,0.004616251492728075,5.0
0.4506460226463492,-0.38050363050537317,-0.2504522305665499,0.027682063529560222,0.0014210336365069792,0.025176144329982848,5.0
0.4601998996384695,-0.3944683371590177,-0.2796007325868745,0.029943813888219973,-0.005243999815754437,0.008728229701944446,5.0
0.4410924801268848,-0.38050363050537317,-0.27668587728251876,0.019200498391490375,0.0022541627584997206,0.016364761109710933,5.0
0.4410924801268848,-0.3665390053337023,-0.26211165178397333,0.018635060370793523,-0.013991856708090344,0.0222390165898922,5.0
0.4410924801268848,-0.38515853272325473,-0.2504522305665499,0.020896812453580972,-0.021906583684567712,0.019301888849801573,5.0
0.4410924801268848,-0.3944683371590177,-0.26211165178397333,0.03446731546760332,-0.018157502318054054,0.02811327207007348,5.0
0.43631554163082387,-0.38050363050537317,-0.2796007325868745,0.03672906582626308,-0.009826210463033997,-0.004195131279750607,5.0
0.4458690841502874,-0.3944683371590177,-0.2796007325868745,0.029378375867523114,-0.021490018806025028,0.0287006979763262,5.0
0.4458690841502874,-0.3944683371590177,-0.285430443195586,0.023724000832937575,-0.033153827784108685,0.03986178303043603,5.0
0.4554229611424097,-0.41774276676645156,-0.2650265070883293,0.03672906582626308,-0.01190903358556217,0.0298755479976587,5.0
0.4601998996384695,-0.3944683371590177,-0.2591967964796176,0.057650258799025404,-0.021073455197667606,0.004616251492728075,5.0
0.4506460226463492,-0.3898134349411362,-0.2796007325868745,0.05199588204031218,-0.025655665051081373,-0.011244237676850842,5.0
0.4410924801268848,-0.3898134349411362,-0.2796007325868745,0.049168694091987486,-0.01190903358556217,-0.011244237676850842,5.0
0.4601998996384695,-0.403778141594781,-0.28834529849994217,0.049168694091987486,-0.007326822819202741,-8.315273468931316e-05,5.0
0.4649768381345313,-0.41308786454857005,-0.2796007325868745,0.054257632398971925,-0.0014949186080139374,-0.014768790427607729,5.0
0.4506460226463492,-0.3898134349411362,-0.2650265070883293,0.0508650068609823,-0.00649369361782342,-0.017705918167698367,5.0
0.4267616646387031,-0.3898134349411362,-0.2737710219781629,0.07517882450967041,-0.015658114952075825,-0.008894535843012918,5.0
0.42198472614264215,-0.39912323937689953,-0.2708561666738069,0.07122076181304776,-0.015241550073533141,-0.00595740810292228,5.0
0.4315386031347633,-0.3898134349411362,-0.2591967964796176,0.08026776324768677,-0.008576516621271724,0.02811327207007348,5.0
0.4315386031347633,-0.3944683371590177,-0.26211165178397333,0.07574426253036727,-0.01065933958502674,-0.004782556738210088,5.0
0.4315386031347633,-0.3944683371590177,-0.26211165178397333,0.08479126396500627,-0.021073455197667606,-0.005369982196669568,5.0
0.4601998996384695,-0.3944683371590177,-0.2533670858709057,0.06217376037840875,-0.022323148563110407,-0.011831662687517093,5.0
0.4601998996384695,-0.3944683371590177,-0.2533670858709057,0.06726269911642511,-0.013575291829547654,0.0016791238086115922,5.0
0.4506460226463492,-0.3944683371590177,-0.26794131136945115,0.0644355107370685,-0.012325597829012224,0.008140804691278194,5.0
0.4506460226463492,-0.3944683371590177,-0.26794131136945115,0.044645192835878075,-0.005660564376750808,0.011665357442035082,5.0
0.4458690841502874,-0.38050363050537317,-0.2562819411752617,0.04068712938494957,-0.012742162707554908,0.013427634265206757,5.0
0.4458690841502874,-0.3758487282874914,-0.2912601027810639,0.05256132006100903,-0.008993081182268095,0.026938420257568048,5.0
0.4458690841502874,-0.3758487282874914,-0.2912601027810639,0.04294887995912528,-0.0006617894860211947,0.01460248518212572,5.0
0.4315386031347633,-0.38050363050537317,-0.27668587728251876,0.04181800456427944,-0.017740937439511367,0.01812703882846907,5.0
0.43631554163082387,-0.37119382606960993,-0.2796007325868745,0.044079755138455155,-0.030654441053223097,0.01049050652511612,5.0
0.43631554163082387,-0.37119382606960993,-0.2796007325868745,0.04634150576650986,-0.01982376056203954,0.01460248518212572,5.0
0.4601998996384695,-0.39912323937689953,-0.26794131136945115,0.05256132006100903,-0.01899063207513943,0.012252783348287794,5.0
0.4601998996384695,-0.39912323937689953,-0.2737710219781629,0.0508650068609823,-0.007326822819202741,-0.0006705783050971021,5.0
0.4410924801268848,-0.403778141594781,-0.2708561666738069,0.048037818697141646,0.0035038567590351495,0.009315655608197155,5.0
0.4315386031347633,-0.3944683371590177,-0.2796007325868745,0.06952444947508488,0.009335760612984351,-0.004195131279750607,5.0
0.4410924801268848,-0.38050363050537317,-0.28251558789123055,0.05312675721964205,0.0018375985150496654,-0.017705918167698367,5.0
0.43631554163082387,-0.38050363050537317,-0.27668587728251876,0.054257632398971925,-0.0014949186080139374,-0.012419088593769804,5.0
0.4506460226463492,-0.3898134349411362,-0.2650265070883293,0.05482307041966879,0.0010044693930569228,-0.0012580037635565842,5.0
0.4410924801268848,-0.3665390053337023,-0.29417495808542,0.03955625420561969,-0.020656890319124918,0.015189911088378432,5.0
0.4506460226463492,-0.3758487282874914,-0.28251558789123055,0.036163627805566215,-0.01107590414602311,0.008728229701944446,5.0
0.4649768381345313,-0.403778141594781,-0.26211165178397333,0.0508650068609823,-0.007326822819202741,0.0216515906836395,5.0
0.4410924801268848,-0.3898134349411362,-0.285430443195586,0.06104288433701503,-0.005660564376750808,0.01460248518212572,5.0
0.4267616646387031,-0.3944683371590177,-0.27668587728251876,0.06104288433701503,-0.012325597829012224,0.0016791238086115922,5.0
0.4506460226463492,-0.38050363050537317,-0.26794131136945115,0.05991200915768515,0.0030872925155850956,-0.004782556738210088,5.0
0.4458690841502874,-0.3944683371590177,-0.285430443195586,0.06839357343369115,-0.0006617894860211947,0.002853974893453016,5.0
0.4554229611424097,-0.3758487282874914,-0.28251558789123055,0.053692195240338914,-0.006077129017133759,-0.01006938675993188,5.0
0.4506460226463492,-0.3665390053337023,-0.2796007325868745,0.05595394559899866,-0.011492468707019482,-0.006544833113588531,5.0
0.4410924801268848,-0.3898134349411362,-0.26211165178397333,0.0508650068609823,-0.003994305973992166,-0.007132259019841241,5.0
0.4649768381345313,-0.403778141594781,-0.2533670858709057,0.04747238110747671,-0.0019114828514639926,-0.004782556738210088,5.0
0.4554229611424097,-0.403778141594781,-0.2591967964796176,0.04238344215394438,-0.0006617894860211947,-0.006544833113588531,5.0
0.4506460226463492,-0.41308786454857005,-0.2708561666738069,0.049168694091987486,0.0030872925155850956,0.007553378785025483,5.0
0.4649768381345313,-0.41308786454857005,-0.2708561666738069,0.049168694091987486,0.007669502368998866,-0.011831662687517093,5.0
0.4410924801268848,-0.3944683371590177,-0.26211165178397333,0.04973413168165242,-0.012325597829012224,-0.011831662687517093,5.0
0.43631554163082387,-0.3898134349411362,-0.2562819411752617,0.044079755138455155,-0.014824985830083084,0.003441400351912498,5.0
0.4410924801268848,-0.3944683371590177,-0.2650265070883293,0.06556638505433454,-0.014824985830083084,0.011077932431368833,5.0
0.4506460226463492,-0.41308786454857005,-0.26794131136945115,0.06330463469567478,-0.007326822819202741,0.008728229701944446,5.0
0.4410924801268848,-0.41774276676645156,-0.2737710219781629,0.056519383619695523,-0.01065933958502674,-0.0024328549043721613,5.0
0.4601998996384695,-0.39912323937689953,-0.29417495808542,0.05934657199905214,-0.010242775024030367,-0.00595740810292228,5.0
0.4649768381345313,-0.38515853272325473,-0.285430443195586,0.057650258799025404,0.010168890370069726,-0.011831662687517093,5.0
0.4601998996384695,-0.38050363050537317,-0.29708981338977575,0.07461338821310123,0.006836373882098758,0.007553378785025483,5.0
0.4506460226463492,-0.3665390053337023,-0.3000046686941317,0.057650258799025404,0.008086067247541547,-0.006544833113588531,5.0
0.4315386031347633,-0.38050363050537317,-0.285430443195586,0.06104288433701503,0.005170115638113268,-0.018293344073951084,5.0
0.4315386031347633,-0.37119382606960993,-0.2796007325868745,0.06217376037840875,-0.006077129017133759,0.0022665493230452274,5.0
0.4267616646387031,-0.38515853272325473,-0.2650265070883293,0.06104288433701503,-0.005243999815754437,-0.004782556738210088,5.0
0.4315386031347633,-0.3898134349411362,-0.2737710219781629,0.06726269911642511,-0.015658114952075825,-0.0006705783050971021,5.0
0.43631554163082387,-0.37119382606960993,-0.28251558789123055,0.06669726109572825,-0.00649369361782342,-0.011831662687517093,5.0
0.4554229611424097,-0.37119382606960993,-0.2796007325868745,0.06613182307503139,0.0010044693930569228,0.006965953326566002,5.0
0.4506460226463492,-0.3665390053337023,-0.3000046686941317,0.06895901145438801,-0.003161176851999422,0.004028825810371979,5.0
0.4506460226463492,-0.37119382606960993,-0.3000046686941317,0.06613182307503139,0.013917971736583377,-0.004782556738210088,5.0
0.4649768381345313,-0.3665390053337023,-0.2708561666738069,0.057650258799025404,0.008502632126084243,0.012252783348287794,5.0
0.4410924801268848,-0.3944683371590177,-0.29417495808542,0.051430444450647234,0.01641735973765424,0.000504272779744322,5.0
0.4410924801268848,-0.38050363050537317,-0.2796007325868745,0.049168694091987486,0.011002020127155105,0.002853974893453016,5.0
0.4458690841502874,-0.36188410311582075,-0.28251558789123055,0.041252566974614505,0.006003244125013379,-0.004782556738210088,5.0
0.4410924801268848,-0.38050363050537317,-0.2737710219781629,0.044645192835878075,-0.005243999815754437,0.008728229701944446,5.0
0.4506460226463492,-0.38050363050537317,-0.2708561666738069,0.036163627805566215,-0.011492468707019482,0.005203676951187556,5.0
0.4554229611424097,-0.37119382606960993,-0.2708561666738069,0.057650258799025404,-0.01107590414602311,0.009315655608197155,5.0
0.4649768381345313,-0.38050363050537317,-0.28834529849994217,0.06330463469567478,0.009335760612984351,-0.009481960853679165,5.0
0.4554229611424097,-0.38515853272325473,-0.26794131136945115,0.05199588204031218,0.0018375985150496654,-0.011244237676850842,5.0
0.4410924801268848,-0.3898134349411362,-0.2796007325868745,0.044645192835878075,0.0047535507595705805,-0.004782556738210088,5.0
0.4506460226463492,-0.38515853272325473,-0.2650265070883293,0.05595394559899866,0.013501406858040696,-0.00595740810292228,5.0
0.43631554163082387,-0.3944683371590177,-0.2708561666738069,0.0508650068609823,0.005586679246470692,-0.015943642240113153,5.0
0.43631554163082387,-0.37119382606960993,-0.2708561666738069,0.06104288433701503,-0.009826210463033997,0.01460248518212572,5.0
0.4410924801268848,-0.38050363050537317,-0.2562819411752617,0.06104288433701503,-0.013575291829547654,0.004616251492728075,5.0
0.43631554163082387,-0.403778141594781,-0.24462251995783832,0.06330463469567478,-0.022323148563110407,-0.0006705783050971021,5.0
0.42198472614264215,-0.3944683371590177,-0.2504522305665499,0.08139863928908049,-0.030654441053223097,-0.012419088593769804,5.0
0.4506460226463492,-0.3944683371590177,-0.2650265070883293,0.0859221400064,-0.023572841928553197,-0.0012580037635565842,5.0
0.4649768381345313,-0.41308786454857005,-0.2708561666738069,0.08761845406849059,-0.021490018806025028,-0.012419088593769804,5.0
0.4697537766305918,-0.3898134349411362,-0.28251558789123055,0.08648757802709686,0.0014210336365069792,-0.021230471814041717,5.0
0.4840845921187739,-0.34791939646217596,-0.285430443195586,0.06782813541299429,-0.0027446122910030507,-0.028867003221808206,5.0
0.4601998996384695,-0.34791939646217596,-0.26211165178397333,0.06047744631631817,0.004336985881027894,-0.013006514500022515,5.0
0.43631554163082387,-0.33860959202641294,-0.26794131136945115,0.05595394559899866,0.0047535507595705805,-0.02064304590778901,5.0
0.42198472614264215,-0.34791939646217596,-0.285430443195586,0.05482307041966879,-0.007743387419892402,0.000504272779744322,5.0
0.4315386031347633,-0.3665390053337023,-0.2591967964796176,0.0644355107370685,-0.012742162707554908,0.0016791238086115922,5.0
0.4458690841502874,-0.38050363050537317,-0.2533670858709057,0.07291707587513835,-0.0010783537294712512,-0.006544833113588531,5.0
0.4458690841502874,-0.3758487282874914,-0.2504522305665499,0.06217376037840875,-0.0027446122910030507,-0.009481960853679165,5.0
0.4506460226463492,-0.3665390053337023,-0.2796007325868745,0.06839357343369115,-0.008159952060275352,0.007553378785025483,5.0
0.4649768381345313,-0.36188410311582075,-0.26211165178397333,0.07008988749578174,-0.00232804773000668,0.01049050652511612,5.0
0.4601998996384695,-0.3758487282874914,-0.26211165178397333,0.06556638505433454,0.0022541627584997206,-0.010656811770598133,5.0
0.4506460226463492,-0.38515853272325473,-0.2591967964796176,0.06047744631631817,0.0072529387606414435,0.005203676951187556,5.0
0.4649768381345313,-0.38050363050537317,-0.2650265070883293,0.07404795019240437,0.006836373882098758,0.005203676951187556,5.0
0.4649768381345313,-0.38050363050537317,-0.2650265070883293,0.05991200915768515,0.0176670543732823,-0.0024328549043721613,5.0
0.4697537766305918,-0.36188410311582075,-0.26211165178397333,0.05708482077832854,0.012668278371140589,-0.003020280362831642,5.0
0.4697537766305918,-0.34791939646217596,-0.26794131136945115,0.05256132006100903,0.020583005982710588,-0.004195131279750607,5.0
0.4840845921187739,-0.37119382606960993,-0.2533670858709057,0.054257632398971925,0.0176670543732823,-0.0006705783050971021,5.0
0.4649768381345313,-0.3525742986800574,-0.2591967964796176,0.04634150576650986,0.005170115638113268,-0.0036077058212911233,5.0
0.4458690841502874,-0.3572292008979393,-0.2650265070883293,0.0508650068609823,0.01058545524861241,-0.011831662687517093,5.0
0.4554229611424097,-0.33860959202641294,-0.2533670858709057,0.05538850844036565,0.021832698077968116,-0.0024328549043721613,5.0
0.4506460226463492,-0.3432644942442944,-0.2562819411752617,0.05312675721964205,0.015584229980568862,0.0016791238086115922,5.0
0.4506460226463492,-0.36188410311582075,-0.24462251995783832,0.045210630479422004,0.012668278371140589,0.00637852786810652,5.0
0.4458690841502874,-0.37119382606960993,-0.24462251995783832,0.05199588204031218,0.0047535507595705805,0.007553378785025483,5.0
0.4410924801268848,-0.3665390053337023,-0.2591967964796176,0.0508650068609823,0.006003244125013379,0.011665357442035082,5.0
0.4506460226463492,-0.34791939646217596,-0.2591967964796176,0.05029956927131736,-0.014408420951540395,-8.315273468931316e-05,5.0
0.4601998996384695,-0.3665390053337023,-0.2708561666738069,0.045210630479422004,-0.009826210463033997,0.012840208358954048,5.0
0.4649768381345313,-0.3525742986800574,-0.24462251995783832,0.05595394559899866,-0.004410870534988537,0.002853974893453016,5.0
0.4506460226463492,-0.33860959202641294,-0.2591967964796176,0.05029956927131736,0.009752325491527032,0.005203676951187556,5.0
0.4506460226463492,-0.3525742986800574,-0.2708561666738069,0.06104288433701503,0.011835148614055211,0.008728229701944446,5.0
0.4601998996384695,-0.3572292008979393,-0.2533670858709057,0.04973413168165242,0.01641735973765424,0.009903080618863408,5.0
0.4697537766305918,-0.3572292008979393,-0.2591967964796176,0.04012169179528463,0.015584229980568862,0.015189911088378432,5.0
0.4697537766305918,-0.3572292008979393,-0.2475373752621942,0.04068712938494957,0.013917971736583377,0.011077932431368833,5.0
0.4506460226463492,-0.3525742986800574,-0.2504522305665499,0.02824750155025708,0.012251713492597894,0.004616251492728075,5.0
0.4506460226463492,-0.36188410311582075,-0.2591967964796176,0.016373311736261453,0.012251713492597894,-0.011831662687517093,5.0
0.4554229611424097,-0.36188410311582075,-0.2504522305665499,0.0248548751502036,0.010168890370069726,0.000504272779744322,5.0
0.4649768381345313,-0.38515853272325473,-0.26794131136945115,0.017504186053527496,0.013084843249683271,0.016952187015963644,5.0
0.474530715126652,-0.38050363050537317,-0.2562819411752617,0.024289437129506746,0.006003244125013379,0.005791102409647037,5.0
0.4649768381345313,-0.3758487282874914,-0.23879286037236047,0.03503275262623634,-0.003161176851999422,-0.004782556738210088,5.0
0.4410924801268848,-0.37119382606960993,-0.23879286037236047,0.032205564246879724,-0.006077129017133759,0.004616251492728075,5.0
0.4506460226463492,-0.38050363050537317,-0.24462251995783832,0.03785994100559295,-0.031071005931765774,0.029288123882578905,5.0
0.4410924801268848,-0.3665390053337023,-0.2533670858709057,0.04351431754879022,-0.029821311296137715,0.029288123882578905,5.0
0.4506460226463492,-0.3665390053337023,-0.2650265070883293,0.04181800456427944,-0.01940719568349685,0.03340010164400205,5.0
0.474530715126652,-0.3758487282874914,-0.2708561666738069,0.04351431754879022,-0.01982376056203954,0.01049050652511612,5.0
0.4649768381345313,-0.39912323937689953,-0.29417495808542,0.04860325628680658,0.013084843249683271,-0.007132259019841241,5.0
0.4649768381345313,-0.39912323937689953,-0.285430443195586,0.04068712938494957,0.022665827835053488,-0.0018454292220160652,5.0
0.4649768381345313,-0.3898134349411362,-0.26211165178397333,0.0508650068609823,0.026414909201567156,-0.014768790427607729,5.0
0.4649768381345313,-0.3898134349411362,-0.24462251995783832,0.05538850844036565,0.04307749164142202,-0.026517301387970284,5.0
0.4697537766305918,-0.3758487282874914,-0.2562819411752617,0.05595394559899866,0.018916746468539847,-0.04002808648474512,5.0
0.4649768381345313,-0.36188410311582075,-0.2650265070883293,0.049168694091987486,0.006836373882098758,-0.003020280362831642,5.0
0.4697537766305918,-0.3572292008979393,-0.2737710219781629,0.028812939570953943,0.016000794859111555,-0.008894535843012918,5.0
0.4601998996384695,-0.37119382606960993,-0.2708561666738069,0.0355981906469332,0.003920421002485206,-0.00595740810292228,5.0
0.4458690841502874,-0.36188410311582075,-0.2591967964796176,0.0355981906469332,0.009752325491527032,-0.010656811770598133,5.0
0.4506460226463492,-0.3665390053337023,-0.2533670858709057,0.04012169179528463,0.013917971736583377,0.002853974893453016,5.0
0.4410924801268848,-0.36188410311582075,-0.2533670858709057,0.05878113397835528,0.0022541627584997206,0.004616251492728075,5.0
0.4649768381345313,-0.3665390053337023,-0.2591967964796176,0.04634150576650986,-0.003994305973992166,-0.006544833113588531,5.0
0.49363846911089543,-0.37119382606960993,-0.2417076646534823,0.06104288433701503,-0.013575291829547654,0.005203676951187556,5.0
0.474530715126652,-0.36188410311582075,-0.2562819411752617,0.051430444450647234,-0.008159952060275352,0.015777336099044678,5.0
0.4697537766305918,-0.37119382606960993,-0.2504522305665499,0.053692195240338914,-0.014824985830083084,0.02106416656855971,5.0
0.4554229611424097,-0.3572292008979393,-0.26211165178397333,0.057650258799025404,-0.01649124407406857,0.019301888849801573,5.0
0.4601998996384695,-0.3572292008979393,-0.23004829445929298,0.06613182307503139,-0.016907808952611257,0.03222524983149662,5.0
0.4697537766305918,-0.37119382606960993,-0.23296314976364874,0.06273919667497792,-0.018157502318054054,0.03163782392524392,5.0
0.4697537766305918,-0.36188410311582075,-0.2504522305665499,0.07630970055106413,-0.008576516621271724,0.019301888849801573,5.0
0.4840845921187739,-0.3665390053337023,-0.2591967964796176,0.06500094875776537,-0.018157502318054054,0.020476740662307,5.0
0.4649768381345313,-0.37119382606960993,-0.2504522305665499,0.06556638505433454,-0.011492468707019482,0.005791102409647037,5.0
0.474530715126652,-0.38050363050537317,-0.2562819411752617,0.05595394559899866,0.005586679246470692,0.006965953326566002,5.0
0.479307653622713,-0.34791939646217596,-0.2533670858709057,0.05934657199905214,0.007669502368998866,0.006965953326566002,5.0
0.4649768381345313,-0.36188410311582075,-0.2708561666738069,0.06669726109572825,0.02391552247068155,-0.0018454292220160652,5.0
0.4506460226463492,-0.36188410311582075,-0.28834529849994217,0.05538850844036565,0.023082392713596186,0.003441400351912498,5.0
0.4506460226463492,-0.36188410311582075,-0.28834529849994217,0.05595394559899866,0.0072529387606414435,-0.006544833113588531,5.0
0.4410924801268848,-0.36188410311582075,-0.2650265070883293,0.05538850844036565,0.01058545524861241,0.0016791238086115922,5.0
0.4410924801268848,-0.36188410311582075,-0.2650265070883293,0.05991200915768515,-0.013991856708090344,0.0022665493230452274,5.0
0.4458690841502874,-0.36188410311582075,-0.2504522305665499,0.05934657199905214,-0.016907808952611257,0.026350996142488276,5.0
0.4554229611424097,-0.34791939646217596,-0.2591967964796176,0.07235163785444149,-0.04023542563859332,0.019301888849801573,5.0
0.4697537766305918,-0.3572292008979393,-0.2562819411752617,0.07235163785444149,-0.021073455197667606,0.016952187015963644,5.0
0.4697537766305918,-0.3572292008979393,-0.2562819411752617,0.08366039137186794,-0.013575291829547654,0.013427634265206757,5.0
0.474530715126652,-0.3665390053337023,-0.24462251995783832,0.07291707587513835,-0.003994305973992166,-0.0018454292220160652,5.0
0.474530715126652,-0.3665390053337023,-0.24462251995783832,0.07404795019240437,-0.008159952060275352,-0.00595740810292228,5.0
0.479307653622713,-0.34791939646217596,-0.23004829445929298,0.0644355107370685,-0.00232804773000668,0.002853974893453016,5.0
0.4840845921187739,-0.34791939646217596,-0.2562819411752617,0.05538850844036565,0.008086067247541547,0.009903080618863408,5.0
0.4840845921187739,-0.3665390053337023,-0.2504522305665499,0.05029956927131736,0.007669502368998866,0.00637852786810652,5.0
0.4601998996384695,-0.37119382606960993,-0.26211165178397333,0.04747238110747671,0.0035038567590351495,-0.003020280362831642,5.0
0.4649768381345313,-0.38050363050537317,-0.26794131136945115,0.05934657199905214,0.0176670543732823,-0.021230471814041717,5.0
0.4649768381345313,-0.38515853272325473,-0.2796007325868745,0.051430444450647234,0.02433208734922425,-0.012419088593769804,5.0
0.4697537766305918,-0.38515853272325473,-0.2358780050680045,0.06839357343369115,0.026414909201567156,-0.025929875481717563,5.0
0.4506460226463492,-0.38050363050537317,-0.24462251995783832,0.05991200915768515,-0.009826210463033997,-0.006544833113588531,5.0
0.4410924801268848,-0.36188410311582075,-0.2650265070883293,0.06613182307503139,-0.012325597829012224,0.011665357442035082,5.0
0.4458690841502874,-0.36188410311582075,-0.2591967964796176,0.07348251217170751,-0.030654441053223097,0.0216515906836395,5.0
0.43631554163082387,-0.37119382606960993,-0.2562819411752617,0.06160832235771189,-0.03273726290556601,0.025763570236235555,5.0
0.4172077876465812,-0.38050363050537317,-0.26211165178397333,0.07404795019240437,-0.04690046115490578,0.01812703882846907,5.0
0.4315386031347633,-0.37119382606960993,-0.2591967964796176,0.06217376037840875,-0.03357039266265137,0.011077932431368833,5.0
0.474530715126652,-0.34791939646217596,-0.26211165178397333,0.07008988749578174,-0.010242775024030367,-0.0018454292220160652,5.0
0.4649768381345313,-0.37119382606960993,-0.2591967964796176,0.06669726109572825,-0.0006617894860211947,0.003441400351912498,5.0
0.4554229611424097,-0.37119382606960993,-0.2591967964796176,0.0644355107370685,-0.008576516621271724,-8.315273468931316e-05,5.0
0.4506460226463492,-0.3572292008979393,-0.2475373752621942,0.07687513857176098,0.006836373882098758,-0.011831662687517093,5.0
0.4649768381345313,-0.36188410311582075,-0.2475373752621942,0.07630970055106413,0.00017134027106418132,-0.018293344073951084,5.0
0.4506460226463492,-0.37119382606960993,-0.23879286037236047,0.06895901145438801,-0.004410870534988537,-0.030041853243140706,5.0
0.4601998996384695,-0.3665390053337023,-0.2591967964796176,0.08366039137186794,0.006003244125013379,-0.017705918167698367,5.0
0.4601998996384695,-0.34791939646217596,-0.23296314976364874,0.09440370686859753,0.0035038567590351495,-0.020055620001536285,5.0
0.4697537766305918,-0.33395468980853116,-0.24462251995783832,0.0842258293925648,-0.01649124407406857,-0.018880769980203792,5.0
0.4649768381345313,-0.33860959202641294,-0.24462251995783832,0.07291707587513835,-0.01899063207513943,0.00637852786810652,5.0
0.4601998996384695,-0.3572292008979393,-0.2562819411752617,0.08535670198570314,-0.018157502318054054,-0.0024328549043721613,5.0
0.4601998996384695,-0.34791939646217596,-0.2504522305665499,0.07857145263385157,-0.014824985830083084,-0.008307109936760204,5.0
0.4697537766305918,-0.34791939646217596,-0.2533670858709057,0.06952444947508488,-0.004410870534988537,0.004028825810371979,5.0
0.474530715126652,-0.3758487282874914,-0.2591967964796176,0.05934657199905214,0.009752325491527032,-0.014768790427607729,5.0
0.49363846911089543,-0.37119382606960993,-0.2591967964796176,0.06839357343369115,0.011418583735512515,-0.008307109936760204,5.0
0.4840845921187739,-0.3292998690726239,-0.27668587728251876,0.056519383619695523,-0.0019114828514639926,-0.019468194095283584,5.0
0.4601998996384695,-0.33860959202641294,-0.26794131136945115,0.051430444450647234,-0.015241550073533141,-0.0024328549043721613,5.0
0.4410924801268848,-0.3292998690726239,-0.26211165178397333,0.04860325628680658,-0.01982376056203954,0.011665357442035082,5.0
0.4458690841502874,-0.3572292008979393,-0.2650265070883293,0.044645192835878075,-0.018574067196596742,0.004616251492728075,5.0
0.4410924801268848,-0.36188410311582075,-0.2650265070883293,0.03955625420561969,-0.01732437319606131,0.004028825810371979,5.0
0.4649768381345313,-0.3525742986800574,-0.26211165178397333,0.041252566974614505,-0.008993081182268095,0.009903080618863408,5.0
0.4601998996384695,-0.37119382606960993,-0.2591967964796176,0.05199588204031218,-0.023156277050010513,0.02341386840239763,5.0
0.4649768381345313,-0.38050363050537317,-0.2475373752621942,0.0508650068609823,-0.03565321451499428,0.020476740662307,5.0
0.4697537766305918,-0.36188410311582075,-0.26211165178397333,0.06217376037840875,-0.04606733139782041,0.0375120794054252,5.0
0.4506460226463492,-0.3572292008979393,-0.2650265070883293,0.06782813541299429,-0.03357039266265137,0.024001292517477426,5.0
0.4506460226463492,-0.3665390053337023,-0.2591967964796176,0.0887493301098843,-0.059813962228246975,0.02341386840239763,5.0
0.4458690841502874,-0.37119382606960993,-0.2708561666738069,0.08818389208918744,-0.05648144319990548,0.029288123882578905,5.0
0.4649768381345313,-0.38050363050537317,-0.2737710219781629,0.09666545550312959,-0.04106855539567869,0.0016791238086115922,5.0
0.4649768381345313,-0.3944683371590177,-0.2912601027810639,0.10231983226184281,-0.020656890319124918,-0.01006938675993188,5.0
0.4697537766305918,-0.3665390053337023,-0.2708561666738069,0.10231983226184281,0.00017134027106418132,-0.008307109936760204,5.0
0.4697537766305918,-0.36188410311582075,-0.2591967964796176,0.10005808362731075,0.024748652227766937,-0.04707719377743181,5.0
0.4649768381345313,-0.3292998690726239,-0.26211165178397333,0.07461338821310123,0.005170115638113268,-0.017118492261445656,5.0
0.474530715126652,-0.31068026020109757,-0.2504522305665499,0.0780060146131547,0.005586679246470692,-0.02064304590778901,5.0
0.4888615306148341,-0.315335162418979,-0.2417076646534823,0.048037818697141646,-0.0035777414129957944,-0.0012580037635565842,5.0
0.4888615306148341,-0.315335162418979,-0.2417076646534823,0.03729450384695994,-0.004410870534988537,0.0216515906836395,5.0
0.4888615306148341,-0.3432644942442944,-0.2475373752621942,0.01241524559138344,-0.0014949186080139374,0.007553378785025483,5.0
0.474530715126652,-0.34791939646217596,-0.2504522305665499,0.006760872280925594,0.02724803895865252,0.004028825810371979,5.0
0.474530715126652,-0.3572292008979393,-0.23004829445929298,-0.0039824432158040044,0.01974987622562521,0.015189911088378432,5.0
0.4649768381345313,-0.34791939646217596,-0.22713343915493708,-0.006244195298591441,0.029330860810995448,0.0016791238086115922,5.0
0.4601998996384695,-0.36188410311582075,-0.2650265070883293,0.005629996239531873,0.013084843249683271,0.018714462943548858,5.0
0.4601998996384695,-0.36188410311582075,-0.2650265070883293,-0.002286132601968809,-0.005660564376750808,0.0222390165898922,5.0
0.4649768381345313,-0.3665390053337023,-0.24462251995783832,-0.0005898185398782143,-0.013991856708090344,0.02341386840239763,5.0
0.4506460226463492,-0.3758487282874914,-0.2358780050680045,0.018635060370793523,-0.007743387419892402,0.03398752755025475,5.0
0.4506460226463492,-0.3758487282874914,-0.2358780050680045,0.012980683612080294,-0.012325597829012224,0.04279890897935374,5.0
0.4649768381345313,-0.36188410311582075,-0.2562819411752617,0.031074689929613694,0.0010044693930569228,0.014015059275873008,5.0
0.49363846911089543,-0.36188410311582075,-0.27668587728251876,0.019765936412187247,0.013084843249683271,0.01812703882846907,5.0
0.4840845921187739,-0.36188410311582075,-0.285430443195586,0.022027686770846995,0.01850018158999715,0.007553378785025483,5.0
0.4649768381345313,-0.36188410311582075,-0.2562819411752617,0.0248548751502036,0.02433208734922425,-0.003020280362831642,5.0
0.4601998996384695,-0.36188410311582075,-0.2562819411752617,0.029378375867523114,0.02599834432302446,0.002853974893453016,5.0
0.4554229611424097,-0.3572292008979393,-0.2504522305665499,0.01806962407422435,0.0010044693930569228,0.005203676951187556,5.0
0.4410924801268848,-0.3572292008979393,-0.2562819411752617,0.010718934977548219,-0.0014949186080139374,0.01812703882846907,5.0
0.4410924801268848,-0.34791939646217596,-0.285430443195586,0.011284372998245093,0.004336985881027894,0.007553378785025483,5.0
0.4410924801268848,-0.37119382606960993,-0.2796007325868745,0.003933682177441291,-0.01190903358556217,0.027525846163820773,5.0
0.4649768381345313,-0.3572292008979393,-0.2650265070883293,0.00845718289476079,-0.007743387419892402,0.04162405716684832,5.0
0.474530715126652,-0.3525742986800574,-0.26211165178397333,0.0011064955222123676,-0.014408420951540395,0.055134845845969,5.0
0.4506460226463492,-0.3525742986800574,-0.2708561666738069,-0.010202257995214086,-0.01940719568349685,0.0451486126043646,5.0
0.4506460226463492,-0.32464496685474237,-0.2591967964796176,-0.002286132601968809,-0.034403522419736744,0.05572227175222172,5.0
0.43631554163082387,-0.3525742986800574,-0.2650265070883293,0.011849811018941947,-0.03232069802702331,0.06042167541989756,5.0
0.4458690841502874,-0.34791939646217596,-0.2708561666738069,0.027682063529560222,-0.014408420951540395,0.045736038510617305,5.0
0.4506460226463492,-0.38050363050537317,-0.2533670858709057,0.029378375867523114,-0.021906583684567712,0.04984801627204044,5.0
0.4697537766305918,-0.3898134349411362,-0.2737710219781629,0.029378375867523114,-0.016907808952611257,0.029288123882578905,5.0
0.4697537766305918,-0.38515853272325473,-0.2708561666738069,0.041252566974614505,-0.012325597829012224,0.03222524983149662,5.0
0.4697537766305918,-0.38515853272325473,-0.2737710219781629,0.04690694341005379,-0.00232804773000668,0.02106416656855971,5.0
0.474530715126652,-0.37119382606960993,-0.2591967964796176,0.06330463469567478,-0.004827435254758066,-0.0006705783050971021,5.0
0.4458690841502874,-0.36188410311582075,-0.2562819411752617,0.06273919667497792,-0.0010783537294712512,-0.011244237676850842,5.0
0.4554229611424097,-0.33860959202641294,-0.2796007325868745,0.048037818697141646,0.008502632126084243,0.013427634265206757,5.0
0.4601998996384695,-0.34791939646217596,-0.27668587728251876,0.04860325628680658,0.006419809003556066,0.01812703882846907,5.0
0.4506460226463492,-0.3525742986800574,-0.2358780050680045,0.05256132006100903,0.003920421002485206,0.016952187015963644,5.0
0.4554229611424097,-0.37119382606960993,-0.2417076646534823,0.06387007271637164,-0.025239100172538675,0.014015059275873008,5.0
0.4458690841502874,-0.3525742986800574,-0.2533670858709057,0.06330463469567478,-0.04106855539567869,0.03986178303043603,5.0
0.4458690841502874,-0.36188410311582075,-0.26794131136945115,0.06613182307503139,-0.03398695754119407,0.019889314756054283,5.0
0.4506460226463492,-0.3665390053337023,-0.2591967964796176,0.06387007271637164,-0.04606733139782041,0.04162405716684832,5.0
0.4649768381345313,-0.36188410311582075,-0.2650265070883293,0.06273919667497792,-0.03190413314848063,0.026938420257568048,5.0
0.4888615306148341,-0.3432644942442944,-0.2504522305665499,0.06895901145438801,-0.01982376056203954,0.012252783348287794,5.0
0.474530715126652,-0.3525742986800574,-0.2504522305665499,0.06613182307503139,-0.01065933958502674,0.004616251492728075,5.0
0.4506460226463492,-0.3525742986800574,-0.2650265070883293,0.06782813541299429,-0.025239100172538675,0.018714462943548858,5.0
0.4506460226463492,-0.3525742986800574,-0.26794131136945115,0.07574426253036727,-0.03232069802702331,0.02811327207007348,5.0
0.4649768381345313,-0.3572292008979393,-0.26211165178397333,0.06952444947508488,-0.025239100172538675,0.015777336099044678,5.0
0.4649768381345313,-0.37119382606960993,-0.2504522305665499,0.07744057659245784,-0.034403522419736744,0.015189911088378432,5.0
0.474530715126652,-0.3898134349411362,-0.2708561666738069,0.06782813541299429,-0.026488794808166752,0.008140804691278194,5.0
0.4554229611424097,-0.37119382606960993,-0.28251558789123055,0.07913689065454843,-0.00649369361782342,0.012252783348287794,5.0
0.4554229611424097,-0.36188410311582075,-0.2591967964796176,0.08252951533047422,-0.016907808952611257,0.00637852786810652,5.0
0.4458690841502874,-0.36188410311582075,-0.2650265070883293,0.08026776324768677,-0.024822536564181267,0.0222390165898922,5.0
0.4554229611424097,-0.34791939646217596,-0.2708561666738069,0.0644355107370685,-0.03357039266265137,0.0216515906836395,5.0
0.4554229611424097,-0.36188410311582075,-0.2796007325868745,0.07348251217170751,-0.03940229588150795,0.0222390165898922,5.0
0.4506460226463492,-0.36188410311582075,-0.2796007325868745,0.06613182307503139,-0.02690535968670943,0.026350996142488276,5.0
0.4506460226463492,-0.3665390053337023,-0.2650265070883293,0.07687513857176098,-0.030654441053223097,0.011665357442035082,5.0
0.4506460226463492,-0.38050363050537317,-0.2708561666738069,0.07744057659245784,-0.01607467919552588,0.026938420257568048,5.0
0.4697537766305918,-0.3758487282874914,-0.29417495808542,0.06782813541299429,-0.013158726951004967,0.012252783348287794,5.0
0.4697537766305918,-0.36188410311582075,-0.2708561666738069,0.07517882450967041,-0.004827435254758066,-0.0024328549043721613,5.0
0.4649768381345313,-0.3665390053337023,-0.2708561666738069,0.06726269911642511,-0.006077129017133759,-0.007132259019841241,5.0
0.4554229611424097,-0.38515853272325473,-0.2796007325868745,0.056519383619695523,-0.0006617894860211947,0.01049050652511612,5.0
0.474530715126652,-0.37119382606960993,-0.2533670858709057,0.0644355107370685,-0.005660564376750808,0.009903080618863408,5.0
0.4554229611424097,-0.3572292008979393,-0.2591967964796176,0.05934657199905214,0.005586679246470692,-0.0012580037635565842,5.0
0.4506460226463492,-0.37119382606960993,-0.2591967964796176,0.06330463469567478,-0.013991856708090344,0.008140804691278194,5.0
0.4410924801268848,-0.34791939646217596,-0.2796007325868745,0.06047744631631817,-0.01607467919552588,0.03105039981016412,5.0
0.4554229611424097,-0.3572292008979393,-0.2650265070883293,0.05934657199905214,-0.022323148563110407,0.02341386840239763,5.0
0.4649768381345313,-0.37119382606960993,-0.2796007325868745,0.056519383619695523,-0.037736038907707714,0.025176144329982848,5.0
0.4506460226463492,-0.3898134349411362,-0.27668587728251876,0.06387007271637164,-0.03482008729827944,0.02106416656855971,5.0
0.4506460226463492,-0.38050363050537317,-0.2708561666738069,0.054257632398971925,-0.02690535968670943,0.0216515906836395,5.0
0.43631554163082387,-0.37119382606960993,-0.2737710219781629,0.05991200915768515,-0.015658114952075825,0.016952187015963644,5.0
0.42198472614264215,-0.37119382606960993,-0.28251558789123055,0.057650258799025404,-0.029404746417595027,0.01753961292221636,5.0
0.4315386031347633,-0.38050363050537317,-0.26211165178397333,0.056519383619695523,-0.01649124407406857,0.026350996142488276,5.0
0.4458690841502874,-0.38050363050537317,-0.27668587728251876,0.05878113397835528,-0.005243999815754437,0.0222390165898922,5.0
0.4267616646387031,-0.37119382606960993,-0.2912601027810639,0.05538850844036565,-0.021490018806025028,0.03222524983149662,5.0
0.4410924801268848,-0.36188410311582075,-0.2708561666738069,0.04294887995912528,-0.03190413314848063,0.026938420257568048,5.0
0.4458690841502874,-0.38050363050537317,-0.2796007325868745,0.03729450384695994,-0.033153827784108685,0.03222524983149662,5.0
0.4458690841502874,-0.38050363050537317,-0.2796007325868745,0.05312675721964205,-0.023572841928553197,0.035749805269012884,5.0
0.4315386031347633,-0.38050363050537317,-0.2708561666738069,0.049168694091987486,-0.028155053052152233,0.020476740662307,5.0
0.4410924801268848,-0.3944683371590177,-0.28251558789123055,0.032771002267576586,-0.035236652176822134,0.024001292517477426,5.0
0.4410924801268848,-0.3944683371590177,-0.28251558789123055,0.048037818697141646,-0.014408420951540395,0.026350996142488276,5.0
0.4410924801268848,-0.3944683371590177,-0.28834529849994217,0.05595394559899866,-0.013991856708090344,0.029288123882578905,5.0
0.4554229611424097,-0.3898134349411362,-0.2796007325868745,0.045210630479422004,0.00017134027106418132,0.026938420257568048,5.0
0.4554229611424097,-0.3898134349411362,-0.2796007325868745,0.04351431754879022,-0.008576516621271724,0.0216515906836395,5.0
0.412430849150521,-0.403778141594781,-0.2912601027810639,0.04973413168165242,-0.005243999815754437,0.0287006979763262,5.0
0.43631554163082387,-0.3944683371590177,-0.28251558789123055,0.05878113397835528,-0.01649124407406857,0.019889314756054283,5.0
0.4410924801268848,-0.3944683371590177,-0.26794131136945115,0.05934657199905214,-0.021906583684567712,0.015777336099044678,5.0
0.4410924801268848,-0.39912323937689953,-0.285430443195586,0.06782813541299429,-0.009409645902037625,0.019889314756054283,5.0
0.4315386031347633,-0.403778141594781,-0.285430443195586,0.07630970055106413,-0.013158726951004967,0.03222524983149662,5.0
0.43631554163082387,-0.4084329623306886,-0.2912601027810639,0.07235163785444149,-0.01982376056203954,0.029288123882578905,5.0
0.43631554163082387,-0.3944683371590177,-0.29417495808542,0.0842258293925648,-0.020240325440582227,0.015777336099044678,5.0
0.4410924801268848,-0.3944683371590177,-0.29708981338977575,0.09496914144103902,-0.004410870534988537,0.015189911088378432,5.0
0.4506460226463492,-0.38515853272325473,-0.28834529849994217,0.08366039137186794,-0.01732437319606131,0.004028825810371979,5.0
0.4506460226463492,-0.38515853272325473,-0.29708981338977575,0.08083320126838364,-0.007326822819202741,0.01460248518212572,5.0
0.4410924801268848,-0.3665390053337023,-0.29708981338977575,0.08818389208918744,-0.01732437319606131,0.00637852786810652,5.0
0.4410924801268848,-0.37119382606960993,-0.29417495808542,0.07574426253036727,-0.012325597829012224,0.008728229701944446,5.0
0.4410924801268848,-0.3944683371590177,-0.2796007325868745,0.06669726109572825,-0.014408420951540395,-0.00595740810292228,5.0
0.4410924801268848,-0.3898134349411362,-0.29417495808542,0.06273919667497792,-0.0035777414129957944,0.012840208358954048,5.0
0.4410924801268848,-0.3898134349411362,-0.285430443195586,0.0644355107370685,-0.01190903358556217,-0.0024328549043721613,5.0
0.4410924801268848,-0.37119382606960993,-0.29708981338977575,0.07008988749578174,0.0010044693930569228,0.011665357442035082,5.0
0.4554229611424097,-0.38050363050537317,-0.2912601027810639,0.06330463469567478,0.0035038567590351495,0.009315655608197155,5.0
0.4458690841502874,-0.3944683371590177,-0.28251558789123055,0.056519383619695523,-0.0035777414129957944,0.00637852786810652,5.0
0.4649768381345313,-0.41774276676645156,-0.28251558789123055,0.06952444947508488,-0.005243999815754437,0.009315655608197155,5.0
0.4601998996384695,-0.41308786454857005,-0.285430443195586,0.06782813541299429,-0.0010783537294712512,0.004028825810371979,5.0
0.4506460226463492,-0.41308786454857005,-0.28834529849994217,0.07065532379235089,-0.00232804773000668,0.004616251492728075,5.0
0.43631554163082387,-0.39912323937689953,-0.2796007325868745,0.08083320126838364,-0.0035777414129957944,0.005791102409647037,5.0
0.4506460226463492,-0.39912323937689953,-0.27668587728251876,0.07178619983374462,-0.003161176851999422,0.01460248518212572,5.0
0.43631554163082387,-0.39912323937689953,-0.28251558789123055,0.07857145263385157,-0.004827435254758066,-0.013006514500022515,5.0
0.4267616646387031,-0.39912323937689953,-0.285430443195586,0.07178619983374462,0.0072529387606414435,-0.0012580037635565842,5.0
0.4315386031347633,-0.3944683371590177,-0.27668587728251876,0.09270739280650694,0.008502632126084243,0.0016791238086115922,5.0
0.4172077876465812,-0.403778141594781,-0.2796007325868745,0.08705301604779372,0.01516766510202618,0.002853974893453016,5.0
0.4506460226463492,-0.403778141594781,-0.3000046686941317,0.07970232522698992,0.02391552247068155,-0.004195131279750607,5.0
0.4649768381345313,-0.403778141594781,-0.314578894192677,0.08931476813058116,0.022665827835053488,-0.02181789592912151,5.0
0.4458690841502874,-0.403778141594781,-0.285430443195586,0.07970232522698992,0.031830250082251564,-0.02181789592912151,5.0
0.43631554163082387,-0.41308786454857005,-0.2650265070883293,0.0780060146131547,0.011002020127155105,-0.014181364521355018,5.0
0.4315386031347633,-0.39912323937689953,-0.2650265070883293,0.08139863928908049,0.0035038567590351495,0.0022665493230452274,5.0
0.4315386031347633,-0.38050363050537317,-0.2650265070883293,0.07913689065454843,-0.020656890319124918,0.02341386840239763,5.0
0.4315386031347633,-0.38050363050537317,-0.27668587728251876,0.08366039137186794,-0.02898818153905234,0.03986178303043603,5.0
0.4649768381345313,-0.39912323937689953,-0.27668587728251876,0.0780060146131547,-0.013575291829547654,0.0216515906836395,5.0
0.4601998996384695,-0.4084329623306886,-0.29417495808542,0.0842258293925648,0.0014210336365069792,0.01812703882846907,5.0
0.4697537766305918,-0.4084329623306886,-0.2796007325868745,0.07744057659245784,0.014334536615126072,-0.004195131279750607,5.0
0.4697537766305918,-0.403778141594781,-0.285430443195586,0.06839357343369115,0.03807871817965082,-0.029454427336888002,5.0
0.4649768381345313,-0.38050363050537317,-0.2796007325868745,0.06330463469567478,0.07057075838301621,-0.03532868281706928,5.0
0.474530715126652,-0.39912323937689953,-0.2504522305665499,0.053692195240338914,0.04224436696507769,-0.05295144925761308,5.0
0.4649768381345313,-0.4270525712022147,-0.2708561666738069,0.009022620915457644,0.02391552247068155,-0.04296521601600868,5.0
0.4506460226463492,-0.4084329623306886,-0.2737710219781629,0.002802806136047563,-0.0010783537294712512,-0.0664622379367338,5.0
0.4649768381345313,-0.3898134349411362,-0.2650265070883293,-0.019249262878108495,-0.004410870534988537,-0.05412630107011852,5.0
0.479307653622713,-0.41774276676645156,-0.2796007325868745,0.011284372998245093,0.03974497769382156,-0.0946586599427889,5.0
0.4554229611424097,-0.403778141594781,-0.28251558789123055,0.026551187488166497,0.031413685203708866,-0.09524608584904161,5.0
0.35033064870173164,-0.38050363050537317,-0.2504522305665499,0.03729450384695994,-0.015241550073533141,-0.05236402335136038,5.0
0.36466146418991335,-0.36188410311582075,-0.22713343915493708,0.06500094875776537,-0.040651990517136,0.015777336099044678,5.0
0.35988452569385243,-0.3572292008979393,-0.23296314976364874,0.09383826884790067,-0.05148266973813428,0.05219771631470546,5.0
0.412430849150521,-0.36188410311582075,-0.22130372854622557,0.10005808362731075,-0.03690290915062235,0.07804444186044139,5.0
0.4410924801268848,-0.3572292008979393,-0.2591967964796176,0.10797420902055604,-0.012325597829012224,0.07863186776669409,5.0
0.4888615306148341,-0.38515853272325473,-0.3000046686941317,0.10345070830323654,-0.037736038907707714,0.03633722759291977,5.0
0.5318539770793804,-0.403778141594781,-0.30291952399848726,0.09666545550312959,-0.039818860760050624,-0.00595740810292228,5.0
0.536630915575441,-0.41308786454857005,-0.30583437930284324,0.08988020270302265,0.03641245866548007,-0.05882570473779436,5.0
0.5318539770793804,-0.3898134349411362,-0.3000046686941317,0.09610001748243273,0.10306279858638158,-0.08173529716992091,5.0
0.4888615306148341,-0.3432644942442944,-0.2591967964796176,0.09101107874441637,0.10306279858638158,-0.11228142280098685,5.0
0.4458690841502874,-0.315335162418979,-0.2067295030476799,0.06217376037840875,0.05890694686456203,-0.09583351175529431,5.0
0.4410924801268848,-0.315335162418979,-0.21547406896074775,0.025985751191597326,-0.013575291829547654,-0.031216705055646127,5.0
0.4601998996384695,-0.3199900646368605,-0.28251558789123055,-0.009636819974517237,-0.05689800807844818,0.019889314756054283,5.0
0.4554229611424097,-0.33860959202641294,-0.285430443195586,-0.013594882671139875,-0.04565076651927772,0.055134845845969,5.0
0.4315386031347633,-0.33860959202641294,-0.2796007325868745,-0.010767696015910959,0.012251713492597894,0.05924682360739214,5.0
0.4172077876465812,-0.33395468980853116,-0.27668587728251876,-0.021511008064385165,0.03766215330110812,0.04162405716684832,5.0
0.42198472614264215,-0.33860959202641294,-0.26794131136945115,-0.014725758712533584,0.06848793399030279,0.02341386840239763,5.0
0.4267616646387031,-0.38050363050537317,-0.2737710219781629,-0.005113319257197733,0.06973762862593083,0.025176144329982848,5.0
0.4267616646387031,-0.38050363050537317,-0.2737710219781629,0.0248548751502036,0.016833924616196934,0.0298755479976587,5.0
0.4649768381345313,-0.4084329623306886,-0.29708981338977575,0.057650258799025404,-0.013158726951004967,-0.005369982196669568,5.0
0.4649768381345313,-0.4084329623306886,-0.29708981338977575,0.05991200915768515,-0.018574067196596742,-0.017705918167698367,5.0
0.42198472614264215,-0.4503270008096486,-0.30291952399848726,0.1085396470412529,0.012668278371140589,-0.04120293829725055,5.0
0.39810003366233887,-0.44101727785585937,-0.285430443195586,0.14585852882120268,0.0072529387606414435,-0.04355264192226139,5.0
0.37899227967809546,-0.41308786454857005,-0.2737710219781629,0.18035022049766813,0.008086067247541547,-8.315273468931316e-05,5.0
0.40765391065446044,-0.37119382606960993,-0.22130372854622557,0.21540736398785199,-0.0035777414129957944,0.0375120794054252,5.0
0.4410924801268848,-0.37119382606960993,-0.20381464774332436,0.22162717531900666,-0.07439372281575893,0.0375120794054252,5.0
0.4315386031347633,-0.37119382606960993,-0.2183888732418696,0.18996267374602552,-0.10896858741183776,0.04279890897935374,5.0
0.4601998996384695,-0.37119382606960993,-0.23004829445929298,0.19787879224276006,-0.12938025121820626,0.08098157139170495,5.0
0.5414078540715027,-0.37119382606960993,-0.2504522305665499,0.19335528807718516,-0.03856916866479309,0.09742948243739752,5.0
0.5844003005360485,-0.3898134349411362,-0.2650265070883293,0.16451796971117755,0.05599099779550426,0.05572227175222172,5.0
0.5461847925675629,-0.41774276676645156,-0.28251558789123055,0.11758664847589191,0.08681677340395784,-0.017705918167698367,5.0
0.5461847925675629,-0.41774276676645156,-0.28251558789123055,0.11532489639310449,0.0884830329181286,-0.044140067828514096,5.0
0.498415407606956,-0.38515853272325473,-0.22713343915493708,0.1011889562204491,0.10181309887001247,-0.06469996021797564,5.0
0.498415407606956,-0.38515853272325473,-0.22713343915493708,0.09214195478581008,0.09514807097481158,-0.07468619345958005,5.0
0.43631554163082387,-0.3572292008979393,-0.21547406896074775,0.07630970055106413,0.047243140426848886,-0.05118917153885495,5.0
