acc_x,acc_y,acc_z,gyro_x,gyro_y,gyro_z,activity
-1.4885304361636789,0.18999120668851344,4.777670906533446,0.028501418976991686,-0.18804917600913768,0.2836501302151044,0.0
-1.4805013679793952,0.18399059174436028,4.701455682669146,-0.06245301668654563,-0.23578702859814957,0.2528387084848558,0.0
-1.5045885725322456,0.18999120668851344,4.6862125311664755,-0.10015434085808726,-0.1424812185925917,0.24105787336515677,0.0
-1.4604287677913041,0.18399059174436028,4.655726228161136,-0.14775226166367691,-0.21408800629804084,0.2310894761181704,0.0
-1.4564142336991623,0.16898904781908355,4.564267319145115,-0.09497040880246257,-0.17141325420735773,0.23924543549244423,0.0
-1.4564142336991623,0.18399059174436028,4.617618349404461,-0.051613887792435975,-0.1518841270797146,0.18849720821528965,0.0
-1.4363416335110712,0.17798997680020712,4.625239925155796,-0.019096498236143112,-0.19745208449626084,0.16040444329411002,0.0
-1.4082399651386965,0.16898904781908355,4.6862125311664755,0.013420891320149767,-0.12295209146494869,0.1241557079457235,0.0
-1.420283497142504,0.21099335242815573,4.7624282886798275,0.08693847370612781,-0.055685111748293804,0.06434529683147236,0.0
-1.4363416335110712,0.2139936664651261,4.739563561425823,0.11851333531330484,0.10778087447785058,0.05347067788489638,0.0
-1.4724723700677291,0.22299458231646205,4.663347803912471,0.0515934888066319,0.05353331211113006,0.163123100103179,0.0
-1.4925449702558204,0.2349958122047684,4.6709693796638065,0.03745548335097804,-0.012287067148076232,0.2029967001440576,0.0
-1.4363416335110712,0.21099335242815573,4.617618349404461,-0.006372299073982385,-0.04700550459263656,0.23380812187430622,0.0
-1.4162689630503627,0.20199243657681978,4.609996773653125,0.012007096522512091,0.03617409118336704,0.15677956754868475,0.0
-1.444370631422737,0.21999428140927935,4.747185137177157,0.1420766662435391,0.11501388338154206,0.17037284054109642,0.0
-1.444370631422737,0.21999428140927935,4.747185137177157,0.2056976505584872,0.2712468607039949,0.261900897848419,0.0
-1.4483851655148787,0.23199551129758564,4.63286150090713,0.2179505771241983,0.28571288733330924,0.29452475745138024,0.0
-1.4483851655148787,0.23199551129758564,4.63286150090713,0.03415662115925323,0.19168377599628555,0.2791190465862559,0.0
-1.4082399651386965,0.2379961262417388,4.564267319145115,-0.07093581564899214,0.15913523372419106,0.28002525446967913,0.0
-1.444370631422737,0.24399674118589199,4.60237519790179,-0.07659101352030787,0.1519022292314652,0.36067868454072605,0.0
-1.464443301883446,0.26199858601835146,4.709077258420482,0.07704187563509783,0.2068730951351343,0.462175139095035,0.0
-1.4523996996070203,0.24699704209307471,4.823400361041457,0.12982371668611684,0.18662066667602556,0.5464534449115068,0.0
-1.4242980312346458,0.2289951972606152,4.731941985674487,0.05300728360426951,0.07740224005974813,0.5337664019083848,0.0
-1.3680946944898966,0.20499273748400254,4.731941985674487,-0.06056795216642233,-0.08172394203719689,0.5527969885189344,0.0
-1.4042254310465545,0.21999428140927935,4.724320409923152,-0.07988988002297849,-0.3081171264569959,0.5201731068101068,0.0
-1.420283497142504,0.22599489635343248,4.747185137177157,0.10013394546473804,-0.20323849514798645,0.5147358152978351,0.0
-1.4363416335110712,0.21999428140927935,4.617618349404461,0.2085252401537624,-0.10269967182777137,0.5165482310646815,0.0
-1.4363416335110712,0.21999428140927935,4.617618349404461,0.23067476479050347,0.08680515130372464,0.5283290661843805,0.0
-1.4363416335110712,0.2169939673723089,4.541402591891109,0.15998479499151172,-0.00722395782781619,0.5546094042857808,0.0
-1.3921818287701295,0.24999735613004515,4.831021936792792,0.08222580522090978,-0.14754431909092033,0.5636716157552102,0.0
-1.3921818287701295,0.24999735613004515,4.831021936792792,0.11144432683755015,-0.07232103355007394,0.5029549801781361,0.0
-1.400210896954413,0.27099951499947506,4.815778785290121,0.21983564451828552,0.07378573588358775,0.49661143657070894,0.0
-1.4242980312346458,0.27399981590665773,4.6862125311664755,0.3173877959433808,0.06799932909145698,0.5310477340463826,0.0
-1.4122544289582204,0.2559979710741983,4.503295246783486,0.3230430211173533,0.020984772044518343,0.581795950270604,0.0
-1.420283497142504,0.24399674118589199,4.43470106502147,0.21889309932538642,0.06076632101482155,0.7295095595261522,0.0
-1.4042254310465545,0.26199858601835146,4.564267319145115,0.18354810293003496,0.029664383611141286,0.7802577757503737,0.0
-1.3721092285820382,0.2649989000553219,4.6785909554151415,0.13029500077842188,-0.04845210725556802,0.7168225165230301,0.0
-1.3199203556568129,0.2649989000553219,4.777670906533446,0.07939820412977909,-0.0180734689778706,0.536485069770387,0.0
-1.3038622895608636,0.2649989000553219,4.747185137177157,0.04735208142200799,-0.004330752501953336,0.46761247481903906,0.0
-1.4323270994189292,0.2920016607391173,4.6862125311664755,0.027558885279948094,0.15407213322586236,0.5654840315220565,0.0
-1.4242980312346458,0.2920016607391173,4.625239925155796,0.004466826946163388,0.3001788963187609,0.571827575129484,0.0
-1.3881672946779877,0.27099951499947506,4.63286150090713,-0.11193600416773149,0.13020320252039075,0.51111093955241,0.0
-1.380138226493704,0.24099642714892155,4.5947536221504555,-0.11476360382188032,0.0050721559851696135,0.5917643696234567,0.0
-1.3761237626741798,0.24399674118589199,4.747185137177157,0.01954735460300533,-0.10269967182777137,0.5763586587583323,0.0
-1.3680946944898966,0.2289951972606152,4.777670906533446,0.1496169128281768,-0.10414627449070278,0.6524810052005308,0.0
-1.396196362862271,0.24099642714892155,4.6709693796638065,0.16658251937496146,0.028941082279675553,0.6506685452219517,0.0
-1.4082399651386965,0.22299458231646205,4.564267319145115,0.09117986959489616,-0.05351521657582802,0.7014168056579058,0.0
-1.3761237626741798,0.22599489635343248,4.609996773653125,0.05112221621018235,-0.11788899096662003,0.6841986348142025,0.0
-1.3560510922134712,0.24099642714892155,4.655726228161136,0.20664017275967508,-0.1352482052779345,0.6633556324368065,0.0
-1.3359784920253799,0.2529976701670156,4.63286150090713,0.3687558766843288,0.036897392514832775,0.5573280721477827,0.0
-1.3399930261175217,0.2559979710741983,4.564267319145115,0.40033071529979486,0.20325658847780567,0.509298479573831,0.0
-1.3078768236530052,0.24099642714892155,4.518537864637104,0.32445682741084647,0.047746905870370004,0.44676942822991067,0.0
-1.283789619100155,0.2349958122047684,4.579510470647785,0.31456022933981664,-0.397806420983294,0.4839243935675865,0.0
-1.3399930261175217,0.27099951499947506,4.808157209538788,0.46583676700883,-0.397806420983294,0.51111093955241,0.0
-1.384152760585846,0.3400065802923427,4.8386435125441265,0.4865724853520781,-0.12873850211667442,0.5654840315220565,0.0
-1.3560510922134712,0.3550081242176195,4.7624282886798275,0.40174452159328783,0.1533488318943967,0.5582342800312059,0.0
-1.315905821564671,0.31600412051572996,4.495673671032151,0.19532976839515218,-0.08895695535185408,0.51111093955241,0.0
-1.2998477554687218,0.3010025765904532,4.312755853000109,0.030857758967528414,-0.2213210019688354,0.5355788176752311,0.0
-1.3199203556568129,0.289001346702147,4.411836337767465,-0.01202750125624395,-0.24374335206620404,0.5555156563809366,0.0
-1.3600656263056128,0.3070032046643941,4.503295246783486,-0.018153964539099524,0.001455649327841016,0.4522067639539147,0.0
-1.3399930261175217,0.31600412051572996,4.541402591891109,0.00917949543138134,0.06727602831136197,0.3643035602861511,0.0
-1.263716948639446,0.29800228881305807,4.541402591891109,0.10484660245410041,-0.09040355801478552,0.21840241100918192,0.0
-1.283789619100155,0.289001346702147,4.60237519790179,0.10390405726120143,0.042683798755592826,0.1440925134926294,0.0
-1.2797750850080127,0.30400289062742375,4.495673671032151,-0.002130903185213981,0.11573718471300777,-0.011777041321026097,0.0
-1.2556880210003976,0.3130038064787596,4.510916822534821,-0.09921180752028916,0.10344107090002194,-0.1567719744248723,0.0
-1.2075136118946965,0.3070032046643941,4.655726228161136,-0.19110878298804332,0.06148962124354585,-0.3334845564850233,0.0
-1.1673684115185141,0.2920016607391173,4.6709693796638065,-0.2603849579893975,-0.09040355801478552,-0.3434529537320099,0.0
-1.2436444187239721,0.31900443455270056,4.617618349404461,-0.20713184434192888,0.06221292257501157,-0.1649279448520792,0.0
-1.3279494238410965,0.3580084382545899,4.503295246783486,-0.18026965121996977,0.1258633989425621,-0.10874240395678679,0.0
-1.4162689630503627,0.4060133578078153,4.3508637317567835,-0.07894734632593489,0.3037954117980209,0.255557376346858,0.0
-1.3199203556568129,0.3850112120681728,4.1908111746277985,-0.1515223907039235,0.40433421747437326,0.23018324612888094,0.0
-1.235615350539689,0.37300998217986664,4.167946447373794,-0.1666029241086932,0.23435851926503742,0.3615849145300155,0.0
-1.235615350539689,0.3400065802923427,4.381350034762124,-0.2170284424129588,-0.038325897436979305,0.3905838762816851,0.0
-1.3640801603977546,0.21099335242815573,3.954542593160937,-0.41873052712587655,-2.1503643914517183,1.8813131313002474,0.0
-1.2075136118946965,0.3820108980312025,4.533781016139774,-0.4437076413578929,-2.619063442515149,1.6910072651947516,0.0
-1.1111650747737645,0.3700096681428961,4.60237519790179,-0.07659101352030787,-0.24085014674034108,0.8156002811094706,0.0
-1.103136006589481,0.3340059784779773,4.122216992865783,-0.10486700575085038,0.541761382233546,0.6334504185899811,0.0
-1.2436444187239721,0.31900443455270056,4.114595417114447,-0.3437991384464054,0.20904299912953142,0.8110691974806223,0.0
-1.2075136118946965,0.3400065802923427,4.396593186264795,-0.2891322300012992,0.0065187586481010576,1.1744627588479106,0.0
-1.1834265478870811,0.3310056644410067,4.457565792275475,-0.23635036595856912,0.03400418939445275,1.3176452844746105,0.0
-1.119194142958048,0.289001346702147,4.061244653679627,-0.48800669063137525,-0.1909423813350006,1.4889204755460914,0.0
-1.119194142958048,0.289001346702147,4.061244653679627,-0.6406970345938818,-0.2683355796921757,1.5016075627609466,0.0
-1.071019733852347,0.14798689551454744,4.129838568617118,-0.7099732210910914,-0.16490355104609758,1.490732979736403,0.0
-1.1753974797027975,0.18099027770738987,4.221297477633139,-0.5766047891783397,-0.37610739868318527,1.750817604464937,0.0
-1.283789619100155,0.22599489635343248,4.305134277248773,-0.5200528133391463,-0.7117189694691999,2.2891113652843296,0.0
-1.179412013794939,0.1539875104587006,4.2670263984920975,-0.5266505607143069,-1.4574421922918546,3.127363339820203,0.0
-1.179412013794939,0.1539875104587006,4.2670263984920975,-0.15529252549209788,-2.3326360799670005,3.618533760160799,0.0
-0.8622645232419163,0.06397828014181511,4.43470106502147,0.08788100740317142,-2.4273887043618436,3.0113673159665946,0.0
-0.7418286410228987,-0.06203464722549495,4.289891125746103,0.04829461511905158,-2.3774808507371894,2.661567093909315,0.0
-1.0027727948311724,0.024974279312066753,4.000272047668948,0.0515934888066319,-1.9738789018618084,2.440449717650105,0.0
-1.0027727948311724,0.024974279312066753,4.000272047668948,-0.0681082159948433,-1.0661363925171858,2.8201552861894066,0.0
-1.2556880210003976,0.14198628057039425,4.282269549994768,0.3023072567906834,-0.642282112223942,2.6534110903233086,0.0
-0.9867147990078401,0.015973356895837,4.244162204887145,0.41352616406669396,-0.4578404050291545,1.8314711229594491,0.0
-0.7257706451995667,-0.07703617802098404,4.091730689860443,0.31503146744869964,-0.770306333208266,1.6529460919736523,0.0
-0.9545985262707064,0.01297304942376042,4.061244653679627,0.759435812460437,-0.20685499298338372,1.861376292594542,0.0
-1.151310275149947,0.1329853581541645,4.381350034762124,1.2995072415031828,0.3435769585628412,1.9574354777424456,0.0
-1.0469326698447314,0.09098105026264543,4.289891125746103,1.50403690431552,0.44773226207459094,1.8795006271099357,0.0
-0.7578867773914658,-0.05903433318852452,3.9316781327314576,1.3725535627885668,-1.0625198946817884,1.746286609259554,0.0
-0.4848990213067669,-0.11604018172287345,3.9697857446636067,1.6157271416672585,-1.2324956458227125,1.4327349678095984,0.0
-0.5411023580515165,-0.08603710700210762,4.244162204887145,1.8320384929364233,-0.6010539804400529,1.4272976320855943,0.0
-0.7257706451995667,0.015973356895837,3.9774073204149416,1.6491870706685225,-0.07810744420179969,1.789784941357727,0.0
-0.6294219675333997,0.13598566562624112,3.3753041701820985,0.9191951878904093,0.11429058205007633,3.459945214186847,0.0
-0.29220180651966793,0.01897366436791358,3.1314142797884275,0.20381258316439999,-0.18804917600913768,3.5940655725558477,0.0
-0.39256501827797674,0.042976125785749705,3.657301939332446,0.07845567043273548,0.5779264311629692,3.9203043012206598,0.0
-0.6053347629805493,-0.020030336051528926,3.901191829726117,-0.24247682924142472,0.7493486967475107,4.775774446600234,0.0
-0.5330732898672329,0.024974279312066753,3.2686023764879333,-0.7250537602437889,-2.451257604190555,4.774868282928544,0.0
-0.6615382402705338,-0.03203156593983528,2.6131481959957443,-0.060096685317900536,-5.523839754719747,4.545595079930259,0.0
-0.5130007599517592,-0.07103556307683087,2.5597974325609245,1.5865085395796295,-8.564596046773115,3.229765847516869,0.0
-0.30825994288823505,0.033975203369519966,2.849416510638081,2.6605249343822646,-8.790266415067673,3.2814203600479797,0.0
-0.15169339438517696,0.003972127007530656,3.8707055267207764,3.59834523870174,-6.579135276942946,3.7997771053147376,0.0
0.049032888586205595,0.000971816253007159,4.510916822534821,3.346217767886896,-3.6656795957748374,4.452254562644359,0.0
0.32202064467090424,0.06697858802419757,3.924056556980122,0.9531263550005565,-4.990043742619166,4.773962119256854,0.0
0.19355583481283883,0.024974279312066753,3.085684825280417,-0.32589100969843265,-8.01199421769829,5.22616502585773,0.0
-0.16775153075374377,-0.17004572935003973,3.146657431291098,0.4592390196336693,-8.775076884202472,4.797523789496252,0.0
-0.19585326939873615,-0.1460432564436393,3.154279007042433,1.316472825058256,-6.8858149709089576,4.081611338209682,0.0
0.08516369541548122,-0.014029721107375765,2.5826618929904037,1.1793342583573303,-5.242475757327869,3.604034080332168,0.0
0.3902674431468443,-0.09803833689041394,2.033909773016907,1.0883798772991065,-5.8015869013989745,3.3484803623855517,0.0
0.4103401136075528,-0.317060802046686,1.637588634421059,0.5417107008812002,-9.282110685285303,3.2306720111885596,0.0
0.1052360847857201,-0.4310724728558087,1.8662353733120607,0.23208857108399666,-8.250683780589014,4.240199530489774,0.0
-0.01921419098020403,-0.22405125071763055,1.6223454829183894,-0.16613165726017143,-5.680795605509994,4.495752894742529,0.0
0.20559943708926404,-0.2570546526051545,1.4546712166258065,0.39467553610924416,-4.550276533088007,2.6479737545993043,0.0
0.23771542873592813,-0.28405740015916214,1.2412674958252123,-1.5238504994433844,-7.860824424682511,1.2161487636027026,0.0
0.25778809919663626,-0.4460740430406607,1.5613730103199717,-0.7382492090106881,-3.05810683022089,1.9193743045213465,0.0
0.23771542873592813,-0.3650657215999114,0.6086780425870286,-0.7910310960451292,-2.300811068396587,2.7159400974554964,0.0
0.2136285052735473,-0.45507493263242127,0.03706106194726313,-0.10203940681519251,-2.81869429241016,2.4495118849078024,0.0
0.36618023859399357,-0.4100703271161664,-0.4507187396857455,0.4889288138467592,-4.233470955714868,1.0566544076509203,0.0
0.5709211962027535,-0.46407587474333256,-0.34401690430024784,0.9601953864680223,-2.9365922771101007,0.4694248905858854,0.0
1.1329548447407167,-0.6590958669932045,1.294618392672295,-1.2990564023801037,0.665445848160664,2.016339653340941,0.0
0.663255199231542,-0.6800980127328465,-0.4278540603767722,-2.0304620914517097,-3.463878691912598,1.8912814622296348,0.0
0.663255199231542,-0.6800980127328465,-0.4278540603767722,-1.478137643876409,-3.761155477391489,1.3992048782173474,0.0
0.31800611057876266,-0.6410940352905327,-0.5193127755280987,-0.7735942283977505,-2.0556119082077777,0.40689583924196526,0.0
0.2256721075499722,-0.6680968091041155,-0.6336361699883987,-0.16895925260337444,-1.1919907006851813,-0.2211134746944385,0.0
0.27786076965734535,-0.7281029322860718,-0.6260146109135963,0.068559083857561,-1.0169519372652425,-0.6053500384391228,0.0
0.27786076965734535,-0.7281029322860718,-0.6260146109135963,0.2716749633681164,-0.4802627198387976,-1.0068047730275103,0.0
0.22968664164211414,-0.5960894297742775,-0.8241751635349872,0.5407681326965903,-0.6213063824333674,-2.056205527622809,0.0
0.22968664164211414,-0.5960894297742775,-0.8241751635349872,0.9493562661958042,0.465091494029768,-1.7798089841457272,0.0
0.26180263328877823,-0.5600857138497835,-1.0299572752311803,0.6840332086637938,1.0733874815177993,-1.2433277275166466,0.0
0.5990229348477462,-0.5540850857758423,-1.167145371930686,-0.3207070686167652,-0.09835986383897703,-0.5817883681997249,0.0
0.5990229348477462,-0.5540850857758423,-1.167145371930686,-1.144481014015221,-0.982233473354888,-0.5147282332269559,0.0
0.7957345431817501,-0.5090804802595876,-2.066489309404283,0.6911021481644155,0.5106594514463141,1.226117182955555,0.0
0.5267613211891924,-0.3260617178980221,-2.089354036658288,0.622297245759511,1.950751493735627,0.2220272867546072,0.0
0.6552261310472594,-0.4760770783720637,-1.3348196382232693,0.15291578651575705,2.075159216884554,-0.7041278472372958,0.0
0.7636182704446157,-0.48207770644600445,-1.0223356994798454,-0.2966724765859369,1.0987030369410309,-1.8477753270019193,0.0
0.6552261310472594,-0.46707618878030294,-0.8775260603820699,-0.1920513166850869,0.5793730161820378,-1.6275642912613306,0.0
0.6953714719686757,-0.32906203193499245,-1.0299572752311803,-0.0261654952160423,0.6459167033891583,-2.2682607366243217,0.0
0.5026741166363439,-0.3230614038610517,-1.0604435115303894,-0.03559082643855043,0.7551351073992366,-2.3090405777074228,0.0
0.5026741166363439,-0.3230614038610517,-1.0604435115303894,-0.07470594756320262,0.6893147479893756,-1.507943435874029,0.0
0.3581514515001802,-0.4760770783720637,-0.7632026909365692,-0.09167154297337722,0.5012565429591912,-0.7285957253601173,0.0
0.3581514515001802,-0.4760770783720637,-0.7632026909365692,0.11521446162572448,1.3829602749464993,-3.0032038629449054,0.0
0.3581514515001802,-0.4760770783720637,-0.7632026909365692,0.11521446162572448,1.3829602749464993,-3.0032038629449054,0.0
0.3581514515001802,-0.4760770783720637,-0.7632026909365692,0.11521446162572448,1.3829602749464993,-3.0032038629449054,0.0
0.3581514515001802,-0.4760770783720637,-0.7632026909365692,0.11521446162572448,1.3829602749464993,-3.0032038629449054,0.0
0.3581514515001802,-0.4760770783720637,-0.7632026909365692,-0.1326717311328711,0.28860609265917214,0.41414559073281565,0.0
0.3581514515001802,-0.4760770783720637,-0.7632026909365692,-0.025222961518998697,-1.5782333470299335,-0.7231584338478455,0.0
0.3581514515001802,-0.4760770783720637,-0.7632026909365692,-0.025222961518998697,-1.5782333470299335,-0.7231584338478455,0.0
0.3581514515001802,-0.4760770783720637,-0.7632026909365692,-0.025222961518998697,-1.5782333470299335,-0.7231584338478455,0.0
0.3581514515001802,-0.4760770783720637,-0.7632026909365692,-0.025222961518998697,-1.5782333470299335,-0.7231584338478455,0.0
0.3581514515001802,-0.4760770783720637,-0.7632026909365692,-0.025222961518998697,-1.5782333470299335,-0.7231584338478455,0.0
0.3581514515001802,-0.4760770783720637,-0.7632026909365692,-0.025222961518998697,-1.5782333470299335,-0.7231584338478455,0.0
0.3581514515001802,-0.4760770783720637,-0.7632026909365692,0.0006966979059167689,-1.9832818103489314,-0.9669311840395649,0.0
0.7034005401529622,-0.30505957215837987,-1.0604435115303894,0.04263942443264554,-1.5312188045943187,0.40689583924196526,0.0
0.49063079545038984,-0.26005494038254956,-1.197631608229895,0.07091541235224229,-0.4976219517939749,0.8645361257785782,0.0
0.20961397118140535,-0.14004264149948611,-1.2586040808283128,0.068559083857561,0.6560429043858156,1.6194159139579365,0.0
0.20961397118140535,-0.23905279464290732,-1.197631608229895,-0.03653336013559402,1.6107999914537787,2.058025658095733,0.0
0.22165757345783055,-0.3380629477863283,-1.083308172078263,0.09400747068602697,2.124343672136497,2.4205128789444,0.0
0.4946453295425308,-0.3980691234874353,-0.686987100188547,0.028972691573441255,1.2592758090193812,2.2546750235969233,0.0
0.7074150742451032,-0.43707310092974944,-0.40498938158894054,0.04546701402792083,0.09548476066486473,1.6076350788382374,0.0
0.9241993530398165,-0.5060801662226171,-0.6107714927639919,-0.12466020045592834,-0.3356025594088305,0.32533617918162894,0.0
0.6672697333236862,-0.5030798521856468,-0.9003907542830094,-0.1991203136649861,0.03617409118336704,0.0933442862154749,0.0
0.5147177189127687,-0.46707618878030294,-1.0070926146833061,-0.15859139343175044,0.5598439066982575,0.04531471298415606,0.0
0.5147177189127687,-0.4940789625938861,-0.8622829422324654,-0.18639611450282537,-0.24735984990160131,-0.1667403716718587,0.0
0.6311389264944077,-0.46707618878030294,-0.8546613998341961,-0.3470980121339858,-0.4216753560997313,-0.6280055007950979,0.0
0.6271246734927356,-0.44007341496671976,-1.0528219357790538,-0.16141898877495348,0.3500866617241014,-0.9361197623093163,0.0
0.4504854545289697,-0.46107556070636224,-0.9918494631806364,-0.038889688630275254,0.7008875692928271,-0.47122972428185256,0.0
0.10925061887786172,-0.43707310092974944,-0.580285256464783,-0.3536957365174354,0.6097516544597351,0.34164809793017636,0.0
0.15341049389142125,-0.37406663745124746,-0.5193127755280987,-0.831088726438132,-0.33632585191836484,0.06162664554886998,0.0
0.3260351787630462,-0.5570853998128129,-0.4507187396857455,-0.07329214845461916,0.01375176755179254,-0.23289430981413753,0.0
0.3822383749625607,-0.5300826259992298,-0.8165535877836522,0.05960501948357466,0.045577001875972856,-0.608068706301125,0.0
0.36618023859399357,-0.5150811083335283,-0.8317967059332565,0.053949817301313124,0.6328972970666381,-0.7802501494677615,0.0
0.1574250279835629,-0.3770669514882178,-0.9080123300343445,-0.03417702589298505,1.0032272964752815,-2.117828371083306,0.0
0.1734831643521294,-0.41307064115313685,-0.48882653922888986,-0.011084967559200349,0.8122758861192341,-2.356163918186219,0.0
0.6752988015079688,-0.41307064115313685,-0.4583402987605477,0.20381258316439999,0.03328088806298702,-1.7852463198697315,0.0
0.37420930677827746,-0.33206234597196277,-0.38974626239705285,0.10531786355469448,-0.5641656037133699,-1.8060893222471275,0.0
0.3902674431468443,-0.25405433856818394,-0.5726636973899808,-0.001188369488170412,-0.2712287850180384,-1.1835173882464607,0.0
0.6833278696922521,-0.3200610898240811,-0.7098517607364209,-0.009671167013634963,-0.046282203261170864,-1.1228007084576543,0.0
0.562892128018467,-0.3230614038610517,-0.717473336487756,-0.0016596363366921964,0.12730999719452787,-1.046678362015456,0.0
0.6552261310472594,-0.2900580282331031,-0.7936889272357783,0.0002254310573949844,0.4831740184944797,-0.6696915497616222,0.0
0.2939189060259122,-0.3140604880097157,-0.3287737861506434,-0.023337894124911517,-0.16128703556683763,-0.3452653916047222,0.0
0.6752988015079688,-0.2420531086798777,-0.6641224062876075,-0.07423468071468081,-0.7008694759630083,-0.3316721186123106,0.0
0.49063079545038984,-0.23905279464290732,-0.3668815836092212,0.12086966380798597,-1.0169519372652425,-0.4322623431773304,0.0
0.562892128018467,-0.23905279464290732,-0.9918494631806364,-0.021924093579346132,-0.47736951451293463,-0.33529699435773597,0.0
0.5267613211891924,-0.28105711238176706,-1.3119549776753952,-0.46397209860054694,0.9084748838067922,-0.480291935751282,0.0
0.5388049234656198,-0.1280414116111798,-0.4507187396857455,-0.26745395496929664,0.9880379773364328,0.013597071972146992,0.0
0.43041278406826283,-0.21205002082932417,-0.4583402987605477,0.04782335401845751,0.6459167033891583,0.09425050515183123,0.0
0.4263982499761212,-0.19704847690404742,-0.4583402987605477,-0.038418427529681214,0.3580429675482928,0.055283115757609025,0.0
0.4223837158839764,-0.20004879094101777,-0.2906659866074991,-0.08083241228304014,-0.31535012212779046,-0.061619046898591,0.0
0.44647092043682807,-0.21805064890326512,-0.5040696573784943,-0.08271747895863635,-0.3768306911927196,0.01540950880864715,0.0
0.4986595825442029,-0.20904970679235382,-0.717473336487756,-0.1307866666127478,-0.11861228347615438,0.05437689682125269,0.0
0.4986595825442029,-0.20004879094101777,-0.7250948788860254,-0.09921180752028916,-0.07883073671133402,0.12324948900936718,0.0
0.482601727266104,-0.23605248060593675,-0.7555811151852343,-0.05679782025221184,0.010858562225929685,0.08700075918744724,0.0
0.4625290568053965,-0.2420531086798777,-0.6946086425868163,-0.0681082159948433,0.15117892789999948,0.013597071972146992,0.0
0.4585145227132523,-0.22705156475460095,-0.7784458090861738,-0.05255642148947956,0.40722742280023616,-0.03443250091376768,0.0
0.46654359089753816,-0.21505033486629455,-0.6641224062876075,-0.022395360427867918,0.4716011971910283,-0.03986980900543901,0.0
0.3260351787630462,-0.21205002082932417,-0.7860673514844432,-0.020039031933186693,0.616984685418255,0.20571536800605972,0.0
0.5669066621106118,-0.2510540245312135,-0.5879068155395852,0.03651294965393445,0.20325658847780567,0.02447169264574378,0.0
0.4263982499761212,-0.22405125071763055,-0.6641224062876075,-0.07329214845461916,0.14539251724827376,-0.08608694160081191,0.0
0.4103401136075528,-0.18504724701574102,-0.6260146109135963,-0.1109934704706879,0.17143134753717684,0.04440849404779976,0.0
0.5187322530049098,-0.317060802046686,-0.7403379970356299,-0.0657518846261982,0.3066886171238837,0.0933442862154749,0.0
0.4946453295425308,-0.26905588249346063,-0.6565008472128053,-0.07093581564899214,0.36093617287415575,0.12687436475479247,0.0
0.44647092043682807,-0.20304910497798836,-0.40498938158894054,0.06007628058416868,0.0658294264754866,0.05437689682125269,0.0
0.49063079545038984,-0.21805064890326512,-0.6031499336891898,-0.026636762064564085,0.11646048604447347,-0.0009024209928334694,0.0
0.4344273181604045,-0.20304910497798836,-0.4430971806109433,-0.010142433862156757,0.03545078985190134,0.029002783182675452,0.0
0.5468339916499024,-0.2660555684564903,-0.6336361699883987,-0.05821161792381335,-0.1540540398960432,0.00725354373520476,0.0
0.4866162613582482,-0.24505342271684802,-0.7632026909365692,-0.2127870465241904,0.21410609962786006,0.10693755920788656,0.0
0.4866162613582482,-0.24505342271684802,-0.7632026909365692,-0.18969498244247793,0.5511642907206689,1.0974341603105566,0.0
0.12932328933857085,-0.1880475610527116,-0.6260146109135963,-0.11523486923342018,0.51644586209804,1.455390474377306,0.0
0.482601727266104,-0.30505957215837987,-0.5345558936777032,-0.14586719426958974,0.1815575661776969,1.1146523311542595,0.0
0.6311389264944077,-0.34406357586026926,-0.46596185783534994,-0.10863713766506086,-0.13235499995207164,0.6017327889763092,0.0
0.3621659855923215,-0.30505957215837987,-0.7022302183381516,-0.17885585067440438,0.02170807337598406,1.0376238210403705,0.0
0.4103401136075528,-0.29905894408443895,-0.6565008472128053,-0.14209706235537925,0.32332452128180117,1.2832089427872038,0.0
0.4103401136075528,-0.29905894408443895,-0.6565008472128053,-0.10769460540499921,0.6958244864383616,2.011808481288627,0.0
0.44647092043682807,-0.3710663234142769,-0.686987100188547,-0.029935624256288897,0.8238487074226856,1.540574899653736,0.0
0.049032888586205595,-0.3110601739727453,-0.34401690430024784,-0.09591294191573224,0.6625526075470758,1.4282038841807496,0.0
0.7355168128900952,-0.4940789625938861,-0.26017975030829016,-0.10015434085808726,0.33996044308358137,0.1975593865259197,0.0
0.5428194575577608,-0.45807524666939187,-0.2906659866074991,0.015305958714236926,-0.010117163153679078,-0.22836322618528906,0.0
0.7395313469822368,-0.42507189730101846,-0.6260146109135963,-0.09544167533664456,0.0021789506593067505,-0.48210435151812836,0.0
0.25778809919663626,-0.3830675533025833,-0.4126109411848845,-0.29337362589006766,0.46436820152023367,-0.9352135102141604,0.0
0.25778809919663626,-0.3830675533025833,-0.4126109411848845,-0.14539592742106794,0.6770186694641155,-0.7150024744735719,0.0
0.49063079545038984,-0.34406357586026926,-0.5421774610907718,-0.00495849852841701,0.729819622551456,0.10965621601695552,0.0
0.5428194575577608,-0.3920684954134946,-0.2906659866074991,0.07280047974632949,0.5562274088628602,0.08428210237837827,0.0
0.5428194575577608,-0.3920684954134946,-0.2906659866074991,-0.022395360427867918,0.5027031279782599,-0.08427450372809928,0.0
0.4424563863446871,-0.3350626337493579,-0.4278540603767722,-0.19346511148272452,0.964892405304981,0.07250126173221269,0.0
0.4263982499761212,-0.3350626337493579,-0.3821247028011089,-0.1991203136649861,1.3185864299802563,0.17581015415923432,0.0
0.5307758552813365,-0.34706386363766434,-0.26017975030829016,-0.10580953944789397,1.0914700412702365,-0.08699316053716824,0.0
0.4143546476996944,-0.35306449171160503,-0.06964076509996803,-0.006372299073982385,0.8650768392065747,-0.18486473934605197,0.0
0.3260351787630462,-0.3680660356368818,-0.13061323769838584,-0.042659823418449615,1.0502419094863473,0.03353387510122377,0.0
0.3059625083023371,-0.3110601739727453,-0.17634259214719925,-0.21985604350408955,1.0820671327831133,-0.5881319118071521,0.0
0.8198217477346011,-0.4100703271161664,-0.19920726937160593,-0.18592484765430356,1.024203026265856,-1.014054524518361,0.0
0.6431825287708345,-0.3680660356368818,0.014196401399389423,-0.09544167533664456,0.6300040917407752,-1.0684276164880075,0.0
0.5669066621106118,-0.3590650935259707,0.06754729824647208,-0.04831502272674728,0.42530994726494764,-0.8128740753883219,0.0
0.5428194575577608,-0.27505648430782637,-0.008668292501550177,-0.130315399764226,0.5909458374854893,-0.37063949971683313,0.0
0.5307758552813365,-0.2780567983447967,-0.008668292501550177,-0.16801671890633085,0.4875138088394111,-0.18667717721876462,0.0
0.4504854545289697,-0.28105711238176706,0.15138446474582926,-0.13502806537548007,0.10561097268893625,-0.29270471540192206,0.0
0.4625290568053965,-0.26005494038254956,0.09041199214741161,-0.07800481406587324,0.17649445685743687,-0.09061803628259352,0.0
0.4544999886211107,-0.2510540245312135,0.06754729824647208,-0.15387872494653249,0.2806497868349806,-0.13864760675067908,0.0
0.4424563863446871,-0.27205617027085577,0.05992575584820265,-0.17461445478563598,0.3037954117980209,-0.09424291202801881,0.0
0.4544999886211107,-0.2900580282331031,0.021817943797658695,-0.16471785671460604,0.2647371575427348,-0.09605534990073145,0.0
0.47055812498967914,-0.3230614038610517,0.07516887399780717,-0.13738439674412517,0.15913523372419106,-0.13411651206889746,0.0
0.4504854545289697,-0.30505957215837987,0.15138446474582926,-0.16000518822938808,0.371062373870813,-0.042588465814507995,0.0
0.4625290568053965,-0.2420531086798777,0.052304180096867645,-0.19158004408863735,0.41373712596149614,-0.07883719563642792,0.0
0.44647092043682807,-0.27505648430782637,0.12851980419795556,-0.12560273415297193,0.11646048604447347,-0.1758025610354219,0.0
0.4424563863446871,-0.2960586300474685,0.1742491586467688,-0.0657518846261982,-0.25603946587918985,-0.23017566405800172,0.0
0.4344273181604045,-0.29305834227007344,0.16662758289543386,0.11568572272631852,-0.4556704922128259,0.00634732531695468,0.0
0.41836918179183535,-0.24805371049424313,0.14376292234756008,-0.009199900165113156,-0.2039617876575208,3.7972527145279466e-06,0.0
0.482601727266104,-0.24505342271684802,-0.06964076509996803,-0.12136133539023965,0.12658669586306218,0.10512512133517392,0.0
0.5066886507284855,-0.26005494038254956,-0.06964076509996803,-0.10015434085808726,0.19168377599628555,0.16584175691224792,0.0
0.4866162613582482,-0.27505648430782637,0.052304180096867645,0.06478894906938672,0.016644968466689742,0.14590495136534204,0.0
0.44647092043682807,-0.29905894408443895,0.13614134659622498,0.17600785634539726,-0.21553460896097226,0.1087499970805992,0.0
0.3822383749625607,-0.30205925812140927,0.14376292234756008,0.20993904644725553,-0.37104428054099375,0.1449987324289857,0.0
0.43041278406826283,-0.2960586300474685,0.029439519548993782,-0.10109687383663989,-0.31390350182099624,0.2791190465862559,0.0
0.4946453295425308,-0.25405433856818394,-0.08488388324957251,-0.22598250678694515,-0.33777243693743353,0.2193086409984714,0.0
0.5267613211891924,-0.26905588249346063,-0.04677607119902847,-0.13502806537548007,-0.503408327157975,0.24558895699400524,0.0
0.47055812498967914,-0.30205925812140927,0.052304180096867645,0.03604168855334041,-0.9800636311140105,0.10965621601695552,0.0
0.43041278406826283,-0.33206234597196277,0.07516887399780717,0.21229537494193682,-1.1485927266604148,-0.03533871708689071,0.0
0.41836918179183535,-0.28705771419613246,-0.16109947399759475,0.3828938476524161,-0.6198597974142986,0.11509352963509342,0.0
0.4866162613582482,-0.30205925812140927,-0.3363953452254457,0.20711143386026923,-0.03615599344258217,0.16040444329411002,0.0
0.4866162613582482,-0.30205925812140927,-0.3363953452254457,0.010122029128424932,0.3942080164777159,-0.019933006221766407,0.0
0.5187322530049098,-0.28105711238176706,-0.2906659866074991,-0.10156813996667072,0.5952856631181462,-0.06886879838944156,0.0
0.4745726590818208,-0.2630552544195199,-0.10774854379744633,-0.07470594756320262,0.5099361589367797,0.019034381790839144,0.0
0.4745726590818208,-0.2570546526051545,-0.12299167862358364,-0.23305150376684433,0.4231400344486193,0.04259605893832041,0.0
0.44647092043682807,-0.3110601739727453,-0.11537011954878142,-0.30704035874927194,0.4491788823813849,0.0697826104496103,0.0
0.4344273181604045,-0.27505648430782637,-0.6183930518387941,-0.40977645125603473,0.9627224924886523,0.1395614188108478,0.0
0.49063079545038984,-0.2900580282331031,0.06754729824647208,-0.2995000891729232,0.7847904884551251,-0.11599214439470419,0.0
0.5147177189127687,-0.2960586300474685,0.029439519548993782,-0.1901662492909997,0.642300205553761,-0.042588465814507995,0.0
0.43041278406826283,-0.2900580282331031,0.10565511029701603,-0.2698102949598334,0.0643828249152966,-0.0099646048299301,0.0
0.4504854545289697,-0.2960586300474685,-0.0010467167502151648,-0.18262598546257874,-0.013010368479541966,0.038064967019772085,0.0
0.46654359089753816,-0.2960586300474685,0.014196401399389423,-0.16943051945189624,0.13743621142408224,0.08971941047004961,0.0
0.4585145227132523,-0.33206234597196277,0.12089822844662056,-0.006372299073982385,0.18879057067042274,0.030815221055388094,0.0
0.4544999886211107,-0.3230614038610517,0.14376292234756008,-0.09544167533664456,0.11356728071861064,-0.010870822384669777,0.0
0.46654359089753816,-0.3110601739727453,0.052304180096867645,-0.08884394367847387,0.1424993163333766,0.0027224519893585264,0.0
0.47055812498967914,-0.3200610898240811,0.052304180096867645,-0.06952201654040868,0.1938536799906827,0.048033369793225054,0.0
0.4544999886211107,-0.308059859935775,0.05992575584820265,-0.06151048586346592,0.188067269338957,0.009972198730901877,0.0
0.4585145227132523,-0.308059859935775,0.04468263769859822,-0.05962541846937874,0.173601251531574,0.03715874808341576,0.0
0.4585145227132523,-0.2900580282331031,0.029439519548993782,-0.07046454880047033,0.21844590761665436,0.08609454025109092,0.0
0.4585145227132523,-0.2900580282331031,0.029439519548993782,-0.07800481406587324,0.2669070703590634,0.08700075918744724,0.0
0.43844185225254545,-0.2900580282331031,0.029439519548993782,-0.10109687383663989,0.19530028265361415,0.01540950880864715,0.0
0.43041278406826283,-0.317060802046686,0.10565511029701603,-0.10722333855647741,0.1005478677796419,-0.037151154959603354,0.0
0.4504854545289697,-0.33206234597196277,0.06754729824647208,-0.08271747895863635,0.12007698829083636,-0.06796257945308525,0.0
0.4504854545289697,-0.33206234597196277,0.06754729824647208,-0.0676369491463215,0.143945918996308,-0.07521232541746922,0.0
0.5588775939263261,-0.3770669514882178,0.06754729824647208,-0.08837267754844305,0.1316498051833222,-0.1903020529641899,0.0
0.4745726590818208,-0.2900580282331031,0.06754729824647208,-0.020039031933186693,0.26546046769613196,-0.28726742388965043,0.0
0.4745726590818208,-0.2900580282331031,0.06754729824647208,-0.03700462698411583,0.20542649247220285,-0.3189850535033221,0.0
0.41836918179183535,-0.2900580282331031,0.16662758289543386,-0.03794716068115941,0.10705757535186769,-0.11508593651128103,0.0
0.4263982499761212,-0.22405125071763055,0.16662758289543386,-0.03464829274150685,-0.03543269211111645,0.21840241100918192,0.0
0.4263982499761212,-0.22405125071763055,0.16662758289543386,-0.07187834790905379,-0.06219482373148525,0.33892945217404047,0.0
0.4585145227132523,-0.23305219282854164,0.10565511029701603,-0.10722333855647741,-0.019520071640802036,0.2628071057318422,0.0
0.4625290568053965,-0.308059859935775,0.029439519548993782,-0.09025774350554829,0.09548476066486473,0.018128163545291145,0.0
0.4625290568053965,-0.308059859935775,0.029439519548993782,-0.051613887792435975,0.0925915575444847,0.05075202383906071,0.0
0.44647092043682807,-0.28405740015916214,0.09041199214741161,-0.07988988002297849,0.06944593085841101,0.06887639151325398,0.0
0.4544999886211107,-0.28405740015916214,0.12089822844662056,-0.09025774350554829,0.07523233771946311,0.030815221055388094,0.0
0.47055812498967914,-0.29305834227007344,0.029439519548993782,-0.10580953944789397,0.11935369137033637,-0.08789937947352454,0.0
0.4625290568053965,-0.2900580282331031,0.03706106194726313,-0.18403978600814414,0.3544264697128955,-0.3534213509789961,0.0
0.49063079545038984,-0.28105711238176706,-0.03153295304942404,0.01954735460300533,0.812999213916494,-0.12596055269462372,0.0
0.47858719317396176,-0.30505957215837987,0.10565511029701603,-0.047843755878225494,0.45279538021678223,-0.18939584508076673,0.0
0.5307758552813365,-0.28705771419613246,0.28095095234093465,-0.09497040880246257,-0.24880643492066978,-0.24376893705041336,0.0
0.2939189060259122,-0.21205002082932417,0.501976182186732,0.0030530321485257557,-1.0480539033401999,0.4204890901285106,0.0
0.3701947726861355,-0.18204695923834588,0.22760005549385198,-0.15812012658322866,-1.041544164891214,0.7394779346672722,0.0
0.4585145227132523,-0.19704847690404742,0.12089822844662056,-0.19158004408863735,-1.0632432224790485,0.7711956084926767,0.0
0.550848525742044,-0.3230614038610517,-0.07726230749823743,-0.2797068930308632,-0.6466219378565989,0.3262423870650521,0.0
0.5829647984791777,-0.3380629477863283,-0.21445038752121037,-0.03794716068115941,-0.03977250009991076,0.08246966450566563,0.0
0.4946453295425308,-0.33206234597196277,-0.13823479677318806,-0.16377532301756245,-0.10776277232609999,-0.12777299056733638,0.0
0.3902674431468443,-0.3110601739727453,0.12089822844662056,-0.016740163993534136,-0.6835102440078309,-0.08608694160081191,0.0
0.4946453295425308,-0.32906203193499245,-0.13061323769838584,0.14773184543408957,-0.5272772975621378,3.7972527145279466e-06,0.0
0.5026741166363439,-0.3110601739727453,0.06754729824647208,0.25612316311482497,-1.2418985543098355,0.10784377814424286,0.0
0.46654359089753816,-0.34706386363766434,-0.10774854379744633,0.23538742177986602,-1.1131509349528006,0.06525151576782871,0.0
0.4344273181604045,-0.317060802046686,-0.15347791492279259,0.23585870587217106,-0.8773548949774668,-0.03171384410469872,0.0
0.43041278406826283,-0.308059859935775,-0.16109947399759475,0.16705378047555552,-1.2064568331776722,-0.051650649651604624,0.0
0.41836918179183535,-0.30205925812140927,-0.2830444275326969,0.06714527756406787,-1.0480539033401999,0.05437689682125269,0.0
0.40632557951541176,-0.28705771419613246,-0.15347791492279259,0.10578912465528853,-1.432849894090432,0.20752780587877237,0.0
0.43844185225254545,-0.28105711238176706,-0.26017975030829016,0.10626040874759358,-1.5854663427007278,0.3896776683982619,0.0
0.47858719317396176,-0.29305834227007344,-0.5497990201655741,0.08128327152386632,-1.3069955153469854,0.3588662466680133,0.0
0.482601727266104,-0.3110601739727453,-0.6107714927639919,-0.03087815795333249,-1.0140587672271049,0.24287031123786942,0.0
0.46654359089753816,-0.3140604880097157,-0.6336361699883987,-0.07800481406587324,-0.8238306140928663,0.17490393522287798,0.0
0.4986595825442029,-0.3230614038610517,-0.7098517607364209,-0.08884394367847387,-0.4976219517939749,0.07068882938596661,0.0
0.46654359089753816,-0.35006417767463466,-0.6183930518387941,-0.0685794828433651,-0.4202287357929371,-0.02808897112250672,0.0
0.4585145227132523,-0.35006417767463466,-0.679365524437212,0.041225618139152403,-0.2639957540595186,-0.07521232541746922,0.0
0.47858719317396176,-0.36206540756294103,-0.7327164546373603,0.03981182334151477,0.08752845263519037,-0.11417971757492473,0.0
0.49063079545038984,-0.3680660356368818,-0.7784458090861738,0.05347854470486357,0.4737711100073566,-0.20117668020046575,0.0
0.4946453295425308,-0.34706386363766434,-0.7022302183381516,0.015777231310686472,0.5822662215079005,-0.21114507744745212,0.0
0.4585145227132523,-0.29905894408443895,-0.6107714927639919,-0.03559082643855043,0.3240478314351982,-0.16220928804301027,0.0
0.4585145227132523,-0.29905894408443895,-0.6107714927639919,-0.10957967136210445,0.3833584876837989,-0.028995190058863037,0.0
0.482601727266104,-0.317060802046686,-0.7327164546373603,-0.014855096599446957,0.5272953556042316,0.1477173892380547,0.0
0.4585145227132523,-0.2900580282331031,-0.717473336487756,0.003524293249119798,1.0270962668794443,0.19302830289707124,0.0
0.5388049234656198,-0.35306449171160503,-0.7250948788860254,-0.1025106736637143,1.241916577064204,-0.16583415273550237,0.0
0.3942819772389856,-0.30205925812140927,-0.20682882844640818,0.008236961734337729,0.307411909633418,0.009972198730901877,0.0
0.43041278406826283,-0.308059859935775,-0.40498938158894054,-0.012498768104765733,0.25316435388314606,-0.0743061064811129,0.0
0.46654359089753816,-0.29905894408443895,-0.5421774610907718,-0.038889688630275254,0.43760606107793343,-0.027182752186150388,0.0
0.4946453295425308,-0.30505957215837987,-0.5726636973899808,-0.08978647701627199,0.6372370874115698,-0.09786778777344408,0.0
0.4344273181604045,-0.19704847690404742,-0.3668815836092212,-0.08366001193718897,0.8469943500295886,0.3878652526314156,0.0
0.4223837158839764,-0.26005494038254956,-0.2754228684578946,-0.08177494598008372,0.5280186834014914,0.25193250060143263,0.0
0.4745726590818208,-0.3110601739727453,-0.34401690430024784,-0.1109934704706879,0.0231546760389155,0.23018324612888094,0.0
0.4745726590818208,-0.35306449171160503,-0.4964480983036921,-0.18780991504839073,0.24448473790555747,0.03444009403758009,0.0
0.4585145227132523,-0.3410632618232988,-0.4507187396857455,-0.15953392138086628,0.43398956324253635,-0.11236727970221207,0.0
0.5066886507284855,-0.3260617178980221,-0.5345558936777032,-0.2061893106448853,0.9229409457238322,-0.1758025610354219,0.0
0.43844185225254545,-0.32906203193499245,0.09041199214741161,-0.04548742450958038,0.08608184997225893,-0.08608694160081191,0.0
0.46654359089753816,-0.2900580282331031,-0.3287737861506434,-0.07093581564899214,0.17649445685743687,-0.07611854435382555,0.0
0.43041278406826283,-0.28105711238176706,-0.4278540603767722,-0.03936095547879706,0.17649445685743687,0.26008845997570634,0.0
0.47055812498967914,-0.2960586300474685,-0.4812049801540876,-0.042659823418449615,0.4578584983589737,0.27186929509540536,0.0
0.4986595825442029,-0.32906203193499245,-0.2906659866074991,-0.04737248902970369,0.3804652823579359,-0.006339731847738108,0.0
0.4544999886211107,-0.30205925812140927,-0.3592600224498523,-0.09779800805246024,0.43977597389426204,-0.009058385893573781,0.0
0.4103401136075528,-0.28105711238176706,-0.11537011954878142,-0.16990178630041802,1.0560283201380734,0.35342895515574163,0.0
0.3902674431468443,-0.2900580282331031,-0.15347791492279259,-0.11240727101625328,0.24520803041509182,0.4667062227238835,0.0
0.5227467870970514,-0.35606480574857563,-0.2906659866074991,-0.1312579305873057,0.36889249634220994,0.2039029301333471,0.0
0.4946453295425308,-0.3590650935259707,-0.31353066383190575,-0.1515223907039235,0.4274798600812762,-0.14136626355974802,0.0
0.37822384087041877,-0.3140604880097157,-0.3363953452254457,-0.1543499917950543,0.22712552359424298,-0.021745444094479052,0.0
0.4103401136075528,-0.30205925812140927,-0.2678013093830924,-0.29148855849598043,0.6321740045571037,0.18487233246986437,0.0
0.4585145227132523,-0.3200610898240811,-0.26017975030829016,-0.1543499917950543,0.7233098841024704,0.212965097391044,0.0
0.4866162613582482,-0.34406357586026926,-0.13061323769838584,-0.10580953944789397,0.5699701076949147,0.17490393522287798,0.0
0.4866162613582482,-0.34406357586026926,-0.13061323769838584,-0.058682884772335145,0.08825175286391466,0.07521991854128164,0.0
0.40632557951541176,-0.3680660356368818,0.021817943797658695,-0.0445448908125368,-0.028199687618390666,0.014503290563099151,0.0
0.3902674431468443,-0.3590650935259707,-0.02391141065115469,-0.05632655340369005,0.01375176755179254,-0.038963590069082704,0.0
0.44647092043682807,-0.34406357586026926,-0.2220719465960126,-0.14068326180981386,0.3544264697128955,-0.017214352175930734,0.0
0.5066886507284855,-0.317060802046686,-0.2906659866074991,-0.14398212687550255,0.5338050587654916,-0.09061803628259352,0.0
0.5307758552813365,-0.3410632618232988,-0.16872103307239697,-0.11052220505914805,0.34719345639823845,-0.1250543337582674,0.0
0.4344273181604045,-0.317060802046686,-0.03915452880075913,-0.09779800805246024,0.16926145236471105,-0.0018086399291897901,0.0
0.4223837158839764,-0.3230614038610517,-0.05439764695036356,-0.10109687383663989,0.09620806199633043,3.7972527145279466e-06,0.0
0.43041278406826283,-0.3260617178980221,-0.03915452880075913,-0.12890159921866062,0.16636824703884823,-0.030807625168342376,0.0
0.47055812498967914,-0.30505957215837987,-0.13823479677318806,-0.20194791475611684,0.49691671732653403,-0.03986980900543901,0.0
0.43844185225254545,-0.3230614038610517,-0.0010467167502151648,-0.1779133169773608,0.1670915483703139,0.02175303721829146,0.0
0.4103401136075528,-0.33206234597196277,0.029439519548993782,-0.0676369491463215,-0.2162579014705066,0.03534631297393641,0.0
0.41836918179183535,-0.35006417767463466,0.04468263769859822,0.025202556785266894,-0.3406656422632965,0.08971941047004961,0.0
0.4504854545289697,-0.35306449171160503,-0.03153295304942404,0.07562808083746017,-0.2567627583887242,0.05618933193073206,0.0
0.5829647984791777,-0.3410632618232988,-0.321152222906708,-0.059154151620856944,0.6466399958986927,-0.08699316053716824,0.0
0.5829647984791777,-0.3110601739727453,-0.3668815836092212,-0.18403978600814414,1.4306980746039228,-0.13864760675067908,0.0
0.5066886507284855,-0.34706386363766434,-0.12299167862358364,-0.31646567272799686,1.401766091920745,-0.3778892512076835,0.0
0.4143546476996944,-0.3680660356368818,0.18949224344330795,-0.30704035874927194,0.7558584351964965,-0.43588721892275545,0.0
0.3902674431468443,-0.37406663745124746,0.2580862917930605,-0.27169536235392044,0.20180998581487425,-0.5156344411103791,0.0
0.4263982499761212,-0.308059859935775,-0.02391141065115469,-0.2820632215255445,0.5345283865627514,-0.3452653916047222,0.0
0.4143546476996944,-0.2660555684564903,0.15138446474582926,-0.19582145147326127,0.4781109003522882,-0.049838211778891986,0.0
0.40632557951541176,-0.3110601739727453,0.265707867544396,-0.21467211391827756,0.03545078985190134,-0.05527551987056331,0.0
0.44647092043682807,-0.34706386363766434,0.021817943797658695,-0.12513146730445013,-0.12584529679081155,-0.1395538256870354,0.0
0.4866162613582482,-0.3200610898240811,-0.06964076509996803,-0.297615021778836,0.2112128943019972,-0.036244936023247014,0.0
0.2899043719337703,-0.2060494190149587,0.265707867544396,-0.22268364459522036,-0.40431612414455403,0.5328601940249617,0.0
0.3461078492237547,-0.23305219282854164,0.28095095234093465,-0.10203940681519251,-0.5793549228522186,0.6343566264734042,0.0
0.5267613211891924,-0.3650657215999114,-0.12299167862358364,-0.16000518822938808,0.045577001875972856,0.11237487282602449,0.0
0.554863059834185,-0.3680660356368818,-0.12299167862358364,-0.15717759288618507,0.6791885117049931,-0.29270471540192206,0.0
0.41836918179183535,-0.38906818137652427,0.2580862917930605,0.06950160605874911,0.3486400590611699,-0.3842327948151111,0.0
0.3621659855923215,-0.3140604880097157,0.21235697069731274,-0.03087815795333249,0.09114495708703611,-0.2510186885412639,0.0
0.3621659855923215,-0.3140604880097157,0.21235697069731274,-0.04595869135810218,0.16202843905005387,0.11599974857144976,0.0
0.4023110454232702,-0.26905588249346063,0.09803356789874676,-0.0685794828433651,0.2112128943019972,0.17490393522287798,0.0
0.4103401136075528,-0.2960586300474685,0.10565511029701603,-0.038418427529681214,0.1475624212426709,0.028096565627935777,0.0
0.4263982499761212,-0.33206234597196277,0.08279041639607651,-0.10580953944789397,0.24376142775216036,-0.3497964752335707,0.0
0.43041278406826283,-0.30505957215837987,0.15138446474582926,-0.16801671890633085,-0.02096667430373347,-0.29723582113663694,0.0
0.4223837158839764,-0.2900580282331031,0.18187073439810425,-0.04218855656992782,-0.007947259159281924,0.08609454025109092,0.0
0.4585145227132523,-0.26005494038254956,0.27332944329573094,-0.04171728972140604,-0.06581133038881386,0.44223834460106215,0.0
0.4344273181604045,-0.3110601739727453,0.08279041639607651,-0.06433808408063281,0.027494479616744134,0.3561476009118775,0.0
0.5066886507284855,-0.35306449171160503,0.07516887399780717,0.016719765007730064,0.24086824007016025,-0.5319463598589266,0.0
0.46654359089753816,-0.2960586300474685,0.014196401399389423,-0.18403978600814414,-0.669044252666242,-0.11780458226741682,0.0
0.3701947726861355,-0.19704847690404742,-0.07726230749823743,-0.05962541846937874,0.35153326438703286,0.5636716157552102,0.0
0.37420930677827746,-0.3260617178980221,0.18949224344330795,-0.11806246888756901,-0.702316060982077,0.2764003787242538,0.0
0.3099770423944787,-0.27505648430782637,0.3800312369898962,-0.18121218491701335,-0.549699612371781,0.40689583924196526,0.0
0.687342403784393,-0.3200610898240811,-0.02391141065115469,-0.2099594454330596,0.43181965042620785,-0.26008085579896084,0.0
0.6471970628629762,-0.3800672655251882,-0.10774854379744633,-0.20194791475611684,0.7609215180509621,-0.48754168724213276,0.0
0.4263982499761212,-0.3260617178980221,0.12089822844662056,0.04923714881609517,0.12080028962230212,-0.1993642423277531,0.0
0.28588983784162864,-0.3110601739727453,0.3190587643914786,0.14490425583881428,-0.36742778270559645,0.0697826104496103,0.0
0.4263982499761212,-0.2420531086798777,0.10565511029701603,0.046409547724964376,-0.14754431909092033,0.1875909892789333,0.0
0.43041278406826283,-0.27205617027085577,0.09041199214741161,0.0393405507450652,-0.20613170047384938,0.45855026334960963,0.0
0.4866162613582482,-0.32906203193499245,0.07516887399780717,0.06337514277589357,-0.08317054470012833,0.18668477034257702,0.0
0.4986595825442029,-0.32906203193499245,0.16662758289543386,-0.18592484765430356,-0.210471490818781,-0.029901408995219373,0.0
0.37420930677827746,-0.26005494038254956,0.21997847974251653,0.04829461511905158,-0.4853258379809891,0.351616517283029,0.0
0.4344273181604045,-0.2900580282331031,0.06754729824647208,-0.1062808055779248,-0.3703209880314594,0.1948407407697839,0.0
0.5428194575577608,-0.3380629477863283,-0.09250542564784185,-0.11193600416773149,0.16492164437591678,0.03897118595612841,0.0
0.49063079545038984,-0.3590650935259707,-0.07726230749823743,-0.1006256069881181,0.317538128273938,-0.05980661455234493,0.0
0.49063079545038984,-0.3260617178980221,-0.03915452880075913,-0.27169536235392044,0.43760606107793343,-0.2029891180731784,0.0
0.41836918179183535,-0.34706386363766434,-0.06964076509996803,-0.2401205007467435,0.5142759492817114,0.06887639151325398,0.0
0.4023110454232702,-0.3200610898240811,0.11327668604835105,-0.1727293873915488,-0.13235499995207164,0.047127150856868714,0.0
0.43041278406826283,-0.3200610898240811,0.052304180096867645,-0.2481320314236863,-0.0875103526889226,0.14681117030169835,0.0
0.4263982499761212,-0.3110601739727453,-0.03153295304942404,-0.14775226166367691,-0.024583180961062077,-0.011777041321026097,0.0
0.4745726590818208,-0.3110601739727453,-0.06964076509996803,-0.2179709761100024,0.14466921591680804,-0.0851807226644556,0.0
0.482601727266104,-0.3110601739727453,-0.11537011954878142,-0.22456870049345196,0.2820963718540493,-0.13139786631276165,0.0
0.35413691740803827,-0.26905588249346063,-0.3592600224498523,-0.022395360427867918,0.2459313405684889,0.1395614188108478,0.0
0.4223837158839764,-0.3410632618232988,-0.008668292501550177,0.00917949543138134,0.1424993163333766,-0.04621333603346669,0.0
0.20559943708926404,-0.3380629477863283,-0.02391141065115469,-0.09261407613155259,0.8484409350486573,-0.17670877997177822,0.0
0.33406424694732945,-0.27505648430782637,0.22760005549385198,0.12228347010147911,-0.00939386182221336,0.047127150856868714,0.0
0.46654359089753816,-0.2960586300474685,0.029439519548993782,-0.10533827259937217,-0.010117163153679078,0.12324948900936718,0.0
0.4223837158839764,-0.29905894408443895,0.12851980419795556,-0.16094772192643167,-0.03109288412232213,0.004534888825858683,0.0
0.47055812498967914,-0.2630552544195199,0.029439519548993782,-0.24341936293846828,-0.12222879895541434,0.18124746777737225,0.0
0.44647092043682807,-0.3110601739727453,0.12089822844662056,-0.1736719210885924,-0.4303549720773199,0.07068882938596661,0.0
0.4103401136075528,-0.30205925812140927,0.10565511029701603,-0.44700651504547334,-0.011563765816610514,-0.10330509033864886,0.0
0.3902674431468443,-0.3230614038610517,0.15138446474582926,-0.641639602778492,-0.3196899124727218,-0.27639279665337463,0.0
0.482601727266104,-0.3230614038610517,-0.07726230749823743,-0.4432363802572989,-0.26761225189491583,-0.04440090368722061,0.0
0.5066886507284855,-0.3590650935259707,-0.03915452880075913,-0.07140708249751393,0.17504785419450541,0.00634732531695468,0.0
0.43844185225254545,-0.3680660356368818,0.006574825648054259,0.16139857829329385,0.1461158185797395,0.03987740489248473,0.0
0.4103401136075528,-0.3110601739727453,0.10565511029701603,0.028501418976991686,-0.13018510477960588,0.17309149735016538,0.0
0.4344273181604045,-0.33206234597196277,0.029439519548993782,-0.2566148346970785,-0.32692294343124195,0.06525151576782871,0.0
0.4585145227132523,-0.3380629477863283,-0.04677607119902847,-0.21985604350408955,-0.19889868715919226,0.025377910200483456,0.0
0.4585145227132523,-0.3680660356368818,-0.13823479677318806,-0.0685794828433651,-0.12512200428127726,0.0788447942867069,0.0
0.5428194575577608,-0.3770669514882178,-0.2830444275326969,-0.032763225347419656,0.3066886171238837,0.023565473709387462,0.0
0.5347903893734776,-0.35306449171160503,-0.13061323769838584,-0.2306951752721631,0.4057808377811674,-0.21567616107630058,0.0
0.5347903893734776,-0.35306449171160503,-0.13061323769838584,-0.45077664983364757,0.09476146153888186,-0.032620063041055025,0.0
0.3581514515001802,-0.28405740015916214,0.10565511029701603,-0.41354658604420913,-0.5301704676002752,0.14046763774720408,0.0
0.3581514515001802,-0.28405740015916214,0.10565511029701603,-0.09355660919991658,-0.16490355104609758,0.13865519987449149,0.0
0.4745726590818208,-0.3380629477863283,-0.14585635584799034,0.06337514277589357,0.1533488318943967,0.02084681828193514,0.0
0.4946453295425308,-0.30205925812140927,-0.10012700139917698,-0.016740163993534136,0.15407213322586236,-0.07249366860840027,0.0
0.4424563863446871,-0.27205617027085577,0.06754729824647208,-0.20383298215020404,-0.06219482373148525,-0.0009024209928334694,0.0
0.4424563863446871,-0.27205617027085577,0.06754729824647208,-0.1006256069881181,-0.1829860578669464,0.09425050515183123,0.0
0.4585145227132523,-0.3770669514882178,-0.1839641512220015,0.10908799834286889,0.019538173792552595,0.15859200542139737,0.0
0.5107031848206265,-0.44307372900369035,-0.25255818289522153,0.3791237128642416,0.40650413029070176,-0.005433512911381785,0.0
0.5107031848206265,-0.44307372900369035,-0.25255818289522153,0.7924245033528182,1.0495185816890875,-0.17852121784449088,0.0
0.5227467870970514,-0.43707310092974944,-0.20682882844640818,0.5492509244741269,1.0053972092916101,-0.30539178051091054,0.0
0.41836918179183535,-0.34406357586026926,0.04468263769859822,0.1378352703547706,0.3327274474127868,-0.31807884561989896,0.0
0.3420933151316134,-0.23605248060593675,0.22760005549385198,-0.06386681723211102,-0.23651032110768397,-0.017214352175930734,0.0
0.36618023859399357,-0.30205925812140927,0.24284320699652184,-0.4592594416111844,-0.12584529679081155,0.41414559073281565,0.0
0.6471970628629762,-0.317060802046686,0.14376292234756008,0.10814547614168081,0.4093973356165647,0.1286868026275051,0.0
0.6271246734927356,-0.30505957215837987,-0.13823479677318806,-0.03370575904446326,1.0459020838536905,-0.233800539803427,0.0
0.46654359089753816,-0.308059859935775,0.05992575584820265,-0.19864904106853656,0.5518875832302033,-0.1250543337582674,0.0
0.28187530374948666,-0.3110601739727453,0.19711381919464288,-0.04313109026697142,0.09114495708703611,0.012690853726598993,0.0
0.3822383749625607,-0.29905894408443895,0.16662758289543386,-0.06952201654040868,0.11501388338154206,0.0027224519893585264,0.0
0.4504854545289697,-0.3110601739727453,0.09041199214741161,-0.08695887772136864,0.24448473790555747,-0.06977501179933132,0.0
0.4504854545289697,-0.3110601739727453,0.10565511029701603,-0.0794186131744567,0.17577115552597114,-0.07158744967204393,0.0
0.44647092043682807,-0.308059859935775,0.12851980419795556,-0.05821161792381335,0.13309640343528795,-0.036244936023247014,0.0
0.4504854545289697,-0.3110601739727453,0.09041199214741161,-0.05632655340369005,0.14900902390560233,-0.051650649651604624,0.0
0.4504854545289697,-0.3110601739727453,0.10565511029701603,-0.030406891104810683,0.17577115552597114,-0.05436930093420701,0.0
0.4544999886211107,-0.317060802046686,0.10565511029701603,-0.013441296053881571,0.19168377599628555,-0.06433770370765995,0.0
0.4504854545289697,-0.3200610898240811,0.06754729824647208,-0.021452826730824336,0.1851740640130941,-0.030807625168342376,0.0
0.4544999886211107,-0.3110601739727453,0.15138446474582926,-0.02428042782195511,0.173601251531574,-0.04349468475086431,0.0
0.44647092043682807,-0.3200610898240811,0.14376292234756008,-0.016268897145012343,0.15913523372419106,-0.038963590069082704,0.0
0.4544999886211107,-0.3260617178980221,0.21235697069731274,-0.020981565630230285,0.16058183638712248,-0.03805737113272639,0.0
0.44647092043682807,-0.32906203193499245,0.15900604049716482,0.003995565845569346,0.20759639646659997,-0.015401914303218092,0.0
0.4504854545289697,-0.32906203193499245,0.2352216312451869,0.03745548335097804,0.17649445685743687,-0.0027148574839294666,0.0
0.44647092043682807,-0.3380629477863283,0.16662758289543386,0.05253601100782,0.17577115552597114,-0.026276533249794082,0.0
0.44647092043682807,-0.3260617178980221,0.1742491586467688,0.06808781126111145,0.17721775818890262,-0.04077602794179534,0.0
0.44647092043682807,-0.3200610898240811,0.2047353949459778,0.06714527756406787,0.14105271367044517,0.013597071972146992,0.0
0.43844185225254545,-0.3230614038610517,0.18187073439810425,0.07845567043273548,0.14466921591680804,0.029002783182675452,0.0
0.44647092043682807,-0.34406357586026926,0.2047353949459778,0.1128581331310432,0.15045562656853376,0.02628412913683978,5.0
0.44647092043682807,-0.3410632618232988,0.18187073439810425,0.1383065314553647,0.1388828140870137,0.06525151576782871,5.0
0.43041278406826283,-0.34706386363766434,0.2352216312451869,0.21559424862951704,0.10199446823709049,0.12596814581843613,5.0
0.4223837158839764,-0.35606480574857563,0.24284320699652184,0.2900543532166832,0.07523233771946311,0.1395614188108478,5.0
0.43041278406826283,-0.34706386363766434,0.265707867544396,0.3791237128642416,0.02026147512401833,0.1558733486123284,5.0
0.4344273181604045,-0.3410632618232988,0.25046471604172554,0.45217003414962564,0.01736826979815545,0.18849720821528965,5.0
0.43844185225254545,-0.3200610898240811,0.22760005549385198,0.49835417380890606,-0.014456971142473369,0.1558733486123284,5.0
0.44647092043682807,-0.29905894408443895,0.16662758289543386,0.518618608059849,-0.02385987962959634,0.14228007561991676,5.0
0.44647092043682807,-0.28105711238176706,0.22760005549385198,0.4941127549284268,0.013028466220326839,0.0933442862154749,5.0
0.4585145227132523,-0.2630552544195199,0.21997847974251653,0.4724345143839906,0.008688658231532516,0.08156344556930932,5.0
0.44647092043682807,-0.26005494038254956,0.21997847974251653,0.42907798731169644,0.030387684942606998,0.05075202383906071,5.0
0.44647092043682807,-0.2570546526051545,0.2352216312451869,0.4059858944903452,0.06293622335510657,-0.008152168338834103,5.0
0.44647092043682807,-0.23005187879157132,0.21235697069731274,0.3682845925920238,0.08752845263519037,-0.06796257945308525,5.0
0.4544999886211107,-0.22105093668066023,0.29619410384360456,0.2985371679859311,0.0708925325564437,-0.04349468475086431,5.0
0.44647092043682807,-0.20904970679235382,0.25046471604172554,0.24716908724498304,0.030387684942606998,-0.051650649651604624,5.0
0.4625290568053965,-0.20004879094101777,0.24284320699652184,0.19721483578923935,0.06655272753126697,-0.02808897112250672,5.0
0.4625290568053965,-0.19104787508968193,0.265707867544396,0.12699612709084165,0.07595563849955812,-0.06343148477130364,5.0
0.4344273181604045,-0.1880475610527116,0.265707867544396,0.09353620958543293,0.019538173792552595,-0.029901408995219373,5.0
0.43844185225254545,-0.18504724701574102,0.2885725280922696,0.05536361209895076,-0.03977250009991076,0.04078362106560776,5.0
0.4585145227132523,-0.16704541531306916,0.25046471604172554,-0.04124602287288423,-0.011563765816610514,0.03534631297393641,5.0
0.4585145227132523,-0.19104787508968193,0.27332944329573094,-0.12089006854171784,0.001455649327841016,0.0018162337438105277,5.0
0.4544999886211107,-0.20904970679235382,0.21235697069731274,-0.2010053810590732,0.0007323479963753148,-0.03533871708689071,5.0
0.4625290568053965,-0.22405125071763055,0.18187073439810425,-0.2679252275657462,0.0231546760389155,-0.042588465814507995,5.0
0.4745726590818208,-0.25405433856818394,0.19711381919464288,-0.3042127461622856,0.10995077847224771,-0.06343148477130364,5.0
0.44647092043682807,-0.29905894408443895,0.19711381919464288,-0.28394828891963175,0.08535854974353463,-0.05074443071524829,5.0
0.4344273181604045,-0.317060802046686,0.25046471604172554,-0.25378723360594785,0.024601278701846942,-0.053463081997850666,5.0
0.4143546476996944,-0.317060802046686,0.28095095234093465,-0.18074091806849157,-0.003607455581453297,-0.048025773906179334,5.0
0.43041278406826283,-0.30505957215837987,0.25046471604172554,-0.14162579550685744,-0.03977250009991076,-0.0099646048299301,5.0
0.4103401136075528,-0.2900580282331031,0.31143718864014375,-0.11806246888756901,-0.046282203261170864,0.048939585966348044,5.0
0.4103401136075528,-0.28705771419613246,0.34192349164548347,-0.09120027648410091,-0.08027733937426546,0.08700075918744724,5.0
0.4143546476996944,-0.27505648430782637,0.3724097279446925,-0.1317291974358275,-0.07810744420179969,0.10512512133517392,5.0
0.4585145227132523,-0.2570546526051545,0.22760005549385198,-0.18451105285666594,-0.0477288059241023,0.087906972597337,5.0
0.46654359089753816,-0.28105711238176706,0.2047353949459778,-0.23258023117039478,0.06944593085841101,0.08971941047004961,5.0
0.4544999886211107,-0.30205925812140927,0.2047353949459778,-0.2754654971420949,0.09620806199633043,0.04078362106560776,5.0
0.4585145227132523,-0.29305834227007344,0.18949224344330795,-0.29054601330308133,0.09620806199633043,0.00634732531695468,5.0
0.4585145227132523,-0.29305834227007344,0.18949224344330795,-0.3060978135563728,0.11718378737593922,-0.015401914303218092,5.0
0.4585145227132523,-0.3140604880097157,0.2047353949459778,-0.29997135027351723,0.15479543455732808,-0.10602374714771783,5.0
0.4585145227132523,-0.2960586300474685,0.21235697069731274,-0.285833356313719,0.14973232523706806,-0.1404600446233917,5.0
0.4585145227132523,-0.2960586300474685,0.21235697069731274,-0.2693390223633838,0.12947990118892502,-0.07793098222653819,5.0
0.4223837158839764,-0.30205925812140927,0.15138446474582926,-0.23258023117039478,0.06365952413520158,-0.058900395615988616,5.0
0.4263982499761212,-0.2900580282331031,0.15138446474582926,-0.18545358080578175,0.02170807337598406,-0.05255686858796094,5.0
0.4263982499761212,-0.2900580282331031,0.15138446474582926,-0.16801671890633085,0.03545078985190134,-0.032620063041055025,5.0
0.4263982499761212,-0.2900580282331031,0.15138446474582926,-0.18686738135134714,0.06655272753126697,-0.05527551987056331,5.0
0.43844185225254545,-0.2960586300474685,0.265707867544396,-0.19817777996794247,0.0021789506593067505,0.004534888825858683,5.0
0.4424563863446871,-0.30205925812140927,0.265707867544396,-0.14586719426958974,-0.04555890192970513,0.051658242775417036,5.0
0.4424563863446871,-0.30205925812140927,0.265707867544396,-0.12418893360740653,-0.014456971142473369,0.07431369960492533,5.0
0.4585145227132523,-0.29305834227007344,0.22760005549385198,-0.11806246888756901,0.027494479616744134,0.03353387510122377,5.0
0.44647092043682807,-0.2780567983447967,0.21235697069731274,-0.08743014456989043,0.031834287605538435,0.06162664554886998,5.0
0.44647092043682807,-0.2780567983447967,0.21235697069731274,-0.04878628957526908,0.024601278701846942,0.12234327007301088,5.0
0.4504854545289697,-0.27205617027085577,0.21235697069731274,-0.04972882039834878,0.01375176755179254,0.1359365430654225,5.0
0.4424563863446871,-0.2420531086798777,0.1742491586467688,-0.0657518846261982,-0.00722395782781619,0.10693755920788656,5.0
0.4424563863446871,-0.2420531086798777,0.1742491586467688,-0.08554507789429422,-0.03109288412232213,0.10512512133517392,5.0
0.43844185225254545,-0.19104787508968193,0.15900604049716482,-0.1322004642843493,-0.0564084130797595,0.11871839432758557,5.0
0.44647092043682807,-0.16104480036891616,0.14376292234756008,-0.20430424325079807,-0.03977250009991076,0.1277805836911488,5.0
0.4625290568053965,-0.13104171251836255,0.13614134659622498,-0.3353163466688686,0.011581863557395395,0.08518832131473458,5.0
0.44647092043682807,-0.08603710700210762,0.21235697069731274,-0.4455927087519802,0.01809157112962116,0.09515672408818757,5.0
0.43844185225254545,-0.08903740790929036,0.15900604049716482,-0.6232602129299252,0.047746905870370004,0.11690595645487294,5.0
0.4544999886211107,-0.11904048263005623,0.13614134659622498,-0.8254335472475814,0.14177601500191084,0.10240646452610495,5.0
0.4625290568053965,-0.1940481891266523,0.1742491586467688,-0.9602157854538264,0.2198925102795858,0.03897118595612841,5.0
0.4745726590818208,-0.29305834227007344,0.05992575584820265,-0.966813486845565,0.29294590064796644,0.003628670234906524,5.0
0.4625290568053965,-0.38906818137652427,0.05992575584820265,-0.8895257466797016,0.3037954117980209,-0.02083922515812274,5.0
0.46654359089753816,-0.44907435707763105,0.052304180096867645,-0.7151571621727588,0.3023488091350894,-0.04349468475086431,5.0
0.44647092043682807,-0.5240820504444397,0.14376292234756008,-0.39328212880155516,0.23146531393917455,-0.0824620713818532,5.0
0.4263982499761212,-0.6020900053290679,0.16662758289543386,-0.08884394367847387,0.1352663074296851,-0.09605534990073145,5.0
0.41836918179183535,-0.6020900053290679,0.19711381919464288,0.21323789714312494,0.013028466220326839,-0.07702476329018189,5.0
0.4023110454232702,-0.6080906334030085,0.2047353949459778,0.5624464192244484,-0.11282589046829139,0.05890798873980102,5.0
0.4103401136075528,-0.5810878595894254,0.13614134659622498,0.8207004452889929,-0.2451899370852727,0.1785288109683033,5.0
0.4143546476996944,-0.5570853998128129,0.09041199214741161,1.042195783623248,-0.22421420729469807,0.18215368671372859,5.0
0.43844185225254545,-0.4940789625938861,0.052304180096867645,1.102989086376077,-0.08389385485352542,0.03534631297393641,5.0
0.4263982499761212,-0.3770669514882178,0.014196401399389423,1.052563573819739,-0.043388997935307975,-0.025370317076671044,5.0
0.43041278406826283,-0.3200610898240811,0.08279041639607651,1.0139197497202292,-0.06436472772588242,0.06797017257689766,5.0
0.46654359089753816,-0.27205617027085577,0.021817943797658695,0.9540689231851667,-0.06291812506295098,0.21477753526375662,5.0
0.5107031848206265,-0.2420531086798777,0.029439519548993782,0.9154250071188129,0.015921667135224006,0.2927123195786676,5.0
0.5026741166363439,-0.2060494190149587,-0.02391141065115469,0.8942180046832598,0.057873116791700104,0.26643198147726743,5.0
0.44647092043682807,-0.20304910497798836,0.12089822844662056,0.8141027438972542,-0.022413276966664925,0.2120588895076208,5.0
0.4143546476996944,-0.18204695923834588,0.1742491586467688,0.7405851845029873,-0.07521423887593681,0.1948407407697839,5.0
0.4263982499761212,-0.17604633116440518,0.12089822844662056,0.6274811868411784,-0.0477288059241023,0.15315469180325944,5.0
0.4544999886211107,-0.1550441854247629,0.07516887399780717,0.5143772351627918,0.018814872461086894,0.13774898093813515,5.0
0.46654359089753816,-0.17004572935003973,0.08279041639607651,0.40928479116963656,0.057149816562975804,0.10421890239881759,5.0
0.4866162613582482,-0.1880475610527116,0.09041199214741161,0.2919394206107703,0.0831886468518789,0.09787537537078994,5.0
0.46654359089753816,-0.19704847690404742,0.14376292234756008,0.2335023543857788,0.183004160018697,3.7972527145279466e-06,5.0
0.4223837158839764,-0.18204695923834588,0.19711381919464288,0.23020350368990944,0.1519022292314652,0.013597071972146992,5.0
0.4424563863446871,-0.17304601712743484,0.21997847974251653,0.1750653111524981,0.1258633989425621,0.01631572705419515,5.0
0.4585145227132523,-0.16104480036891616,0.16662758289543386,0.05724867949303791,0.143945918996308,0.030815221055388094,5.0
0.4544999886211107,-0.15804448633194557,0.19711381919464288,-0.0261654952160423,0.13671291009261652,0.04168984000196407,5.0
0.43844185225254545,-0.16104480036891616,0.19711381919464288,-0.13644186304708159,0.14466921591680804,0.049845804902704384,5.0
0.43041278406826283,-0.16704541531306916,0.22760005549385198,-0.24530443033255553,0.183004160018697,-0.006339731847738108,5.0
0.44647092043682807,-0.16104480036891616,0.265707867544396,-0.33296001817418736,0.14973232523706806,-0.02808897112250672,5.0
0.44647092043682807,-0.16104480036891616,0.265707867544396,-0.4569031131165033,0.16275174038151963,-0.07974341457278426,5.0
0.44647092043682807,-0.1550441854247629,0.22760005549385198,-0.5789611176730209,0.16781484970177962,-0.08699316053716824,5.0
0.43041278406826283,-0.16104480036891616,0.22760005549385198,-0.707145654487527,0.143945918996308,-0.11689836333106052,5.0
0.43041278406826283,-0.16104480036891616,0.22760005549385198,-0.788674767550448,0.09114495708703611,-0.10602374714771783,5.0
0.4745726590818208,-0.20904970679235382,0.1742491586467688,-0.8782153882986006,0.13092650385185647,-0.16402172591572292,5.0
0.4625290568053965,-0.24505342271684802,0.15900604049716482,-0.9060200921258922,0.2481012357409547,-0.22292591256715114,5.0
0.4625290568053965,-0.24505342271684802,0.15900604049716482,-0.8914108830489218,0.2264022134408459,-0.19845801233846364,5.0
0.43844185225254545,-0.27205617027085577,0.14376292234756008,-0.8970660162560503,0.1895138720018884,-0.16855280954457136,5.0
0.46654359089753816,-0.2960586300474685,0.12089822844662056,-0.8570083858630473,0.15479543455732808,-0.10874240395678679,5.0
0.46654359089753816,-0.2960586300474685,0.12089822844662056,-0.8456979814985244,0.1396061154184794,-0.20752020170202684,5.0
0.4866162613582482,-0.32906203193499245,0.05992575584820265,-0.7811344979740993,0.2350818294184345,-0.22383212045057432,5.0
0.43041278406826283,-0.3410632618232988,0.1742491586467688,-0.7457894785870369,0.15985853505565673,-0.2791114424095104,5.0
0.43041278406826283,-0.3410632618232988,0.1742491586467688,-0.6562488578388843,0.1555187358887938,-0.20117668020046575,5.0
0.4103401136075528,-0.3110601739727453,0.19711381919464288,-0.6180762718482576,0.0831886468518789,-0.12686677163098004,5.0
0.4143546476996944,-0.29905894408443895,0.16662758289543386,-0.599696881999691,0.07233913432339772,-0.04621333603346669,5.0
0.43041278406826283,-0.3110601739727453,0.1742491586467688,-0.5539840264327156,0.07450903693936811,-0.019933006221766407,5.0
0.43844185225254545,-0.3350626337493579,0.24284320699652184,-0.5148688722574788,0.05353331211113006,0.005441107071406681,5.0
0.44647092043682807,-0.35306449171160503,0.25046471604172554,-0.4804664210550265,0.04847020720183572,-0.005433512911381785,5.0
0.43844185225254545,-0.35006417767463466,0.25046471604172554,-0.43192597589277587,0.0397905956352128,0.03444009403758009,5.0
0.4544999886211107,-0.3680660356368818,0.28095095234093465,-0.33861519736473794,0.045577001875972856,0.027190346691579454,5.0
0.4344273181604045,-0.3800672655251882,0.21235697069731274,-0.2731091571515581,0.042683798755592826,0.02084681828193514,5.0
0.43041278406826283,-0.3800672655251882,0.21997847974251653,-0.1991203136649861,0.04630030320743856,0.027190346691579454,5.0
0.41836918179183535,-0.35306449171160503,0.21235697069731274,-0.1543499917950543,0.001455649327841016,0.0933442862154749,5.0
0.4504854545289697,-0.35606480574857563,0.265707867544396,-0.11240727101625328,-0.012287067148076232,0.10331268346246128,5.0
0.44647092043682807,-0.34706386363766434,0.25046471604172554,-0.0784760794774131,-0.0021608529185218775,0.12687436475479247,5.0
0.4544999886211107,-0.3380629477863283,0.19711381919464288,-0.060096685317900536,0.007965356900066806,0.1640293190395353,5.0
0.44647092043682807,-0.34706386363766434,0.22760005549385198,-0.025694228367520493,-0.006500656496350489,0.18034124884101593,5.0
0.4544999886211107,-0.36206540756294103,0.2047353949459778,-0.0016596363366921964,-0.018796770309336335,0.148623608174411,5.0
0.4585145227132523,-0.3590650935259707,0.25046471604172554,0.005409360643206979,0.003625553322238194,0.087906972597337,5.0
0.44647092043682807,-0.3410632618232988,0.21235697069731274,0.0515934888066319,0.03328088806298702,0.07521991854128164,5.0
0.43844185225254545,-0.3380629477863283,0.2047353949459778,0.09023733589785254,0.030387684942606998,0.11599974857144976,5.0
0.4424563863446871,-0.33206234597196277,0.16662758289543386,0.13029500077842188,0.022431374707449787,0.1332178973092867,5.0
0.4585145227132523,-0.34406357586026926,0.1742491586467688,0.14254792734413313,0.06510612569539159,0.1449987324289857,5.0
0.4625290568053965,-0.33206234597196277,0.15138446474582926,0.15762844350511956,0.0925915575444847,0.12234327007301088,5.0
0.44647092043682807,-0.3230614038610517,0.18949224344330795,0.21606550973011107,0.08101874396022317,0.0996878132435026,5.0
0.4263982499761212,-0.30205925812140927,0.21997847974251653,0.2499966998319694,0.052810010779664344,0.10150025111621519,5.0
0.4424563863446871,-0.2900580282331031,0.15900604049716482,0.24622656504379495,0.031834287605538435,0.1277805836911488,5.0
0.4424563863446871,-0.2960586300474685,0.12089822844662056,0.23632996697276515,0.05931971945463154,0.13503032412906618,5.0
0.4625290568053965,-0.2900580282331031,0.09041199214741161,0.24387023654911383,0.07450903693936811,0.11146865388966816,5.0
0.4585145227132523,-0.308059859935775,0.10565511029701603,0.24575530394320091,0.06799932909145698,0.11237487282602449,5.0
0.4585145227132523,-0.30505957215837987,0.14376292234756008,0.25847949160950623,0.042683798755592826,0.09787537537078994,5.0
0.4424563863446871,-0.29905894408443895,0.14376292234756008,0.2655485000852609,0.027494479616744134,0.0770323564139943,5.0
0.44647092043682807,-0.27505648430782637,0.18187073439810425,0.23491616067927196,0.031834287605538435,0.11237487282602449,5.0
0.4544999886211107,-0.28105711238176706,0.13614134659622498,0.2226632341135607,0.005795457316635348,0.12959302156386143,5.0
0.4585145227132523,-0.28405740015916214,0.10565511029701603,0.21842183822479236,0.03472749072591846,0.10603134027153022,5.0
0.4585145227132523,-0.28705771419613246,0.10565511029701603,0.21653677083070516,0.036897392514832775,0.1277805836911488,5.0
0.4585145227132523,-0.2900580282331031,0.052304180096867645,0.19532976839515218,0.027494479616744134,0.13503032412906618,5.0
0.4504854545289697,-0.28705771419613246,0.052304180096867645,0.172708982657817,0.01809157112962116,0.11418731069873712,5.0
0.4504854545289697,-0.28705771419613246,0.052304180096867645,0.15008819692048186,-0.00939386182221336,0.0888131915336933,5.0
0.46654359089753816,-0.2900580282331031,0.10565511029701603,0.12982371668611684,0.0007323479963753148,0.11418731069873712,5.0
0.4585145227132523,-0.2900580282331031,0.06754729824647208,0.0968350717771578,0.024601278701846942,0.13865519987449149,5.0
0.4424563863446871,-0.29905894408443895,0.052304180096867645,0.08128327152386632,0.012305164888861105,0.11962461326394189,5.0
0.44647092043682807,-0.28105711238176706,0.06754729824647208,0.03227155376516605,0.001455649327841016,0.11509352963509342,5.0
0.4504854545289697,-0.28105711238176706,0.12089822844662056,0.0006966979059167689,-0.010117163153679078,0.11237487282602449,5.0
0.47055812498967914,-0.2900580282331031,0.06754729824647208,-0.03464829274150685,0.015921667135224006,0.11962461326394189,5.0
0.4544999886211107,-0.30205925812140927,0.12089822844662056,-0.05208515464095777,0.04196049962960995,0.10331268346246128,5.0
0.4424563863446871,-0.3200610898240811,0.13614134659622498,-0.04313109026697142,0.030387684942606998,0.07612613747763795,5.0
0.44647092043682807,-0.3110601739727453,0.10565511029701603,-0.05397021916108107,0.007242059979566759,0.04078362106560776,5.0
0.44647092043682807,-0.3230614038610517,0.07516887399780717,-0.08507381176426339,0.013028466220326839,0.06797017257689766,5.0
0.4544999886211107,-0.3260617178980221,0.029439519548993782,-0.09685547489428487,0.040513896966678516,0.06343907789511606,5.0
0.44647092043682807,-0.3410632618232988,0.10565511029701603,-0.09497040880246257,0.057149816562975804,0.04440849404779976,5.0
0.43041278406826283,-0.32906203193499245,0.09041199214741161,-0.11382107012483673,0.047746905870370004,0.02628412913683978,5.0
0.44647092043682807,-0.3230614038610517,0.09803356789874676,-0.10486700575085038,0.05425661344259578,0.03172143861012777,5.0
0.44647092043682807,-0.3230614038610517,0.09803356789874676,-0.1298441329157042,0.06365952413520158,0.013597071972146992,5.0
0.43844185225254545,-0.29905894408443895,0.12851980419795556,-0.14021199496129208,0.04123719829814424,0.048033369793225054,5.0
0.4424563863446871,-0.3110601739727453,0.12089822844662056,-0.17461445478563598,0.052810010779664344,0.04531471298415606,5.0
0.4424563863446871,-0.3110601739727453,0.12089822844662056,-0.18121218491701335,0.05425661344259578,0.05890798873980102,5.0
0.44647092043682807,-0.32906203193499245,0.12089822844662056,-0.19440764517976813,0.09403816020741615,0.023565473709387462,5.0
0.4585145227132523,-0.3410632618232988,0.11327668604835105,-0.18592484765430356,0.0824653466231546,0.03715874808341576,5.0
0.4585145227132523,-0.3410632618232988,0.11327668604835105,-0.1764995164317954,0.07740224005974813,0.011784635481050994,5.0
0.43844185225254545,-0.33206234597196277,0.13614134659622498,-0.17037305314893983,0.07450903693936811,0.0018162337438105277,5.0
0.44647092043682807,-0.32906203193499245,0.15138446474582926,-0.1741431879371142,0.06148962124354585,3.7972527145279466e-06,5.0
0.44647092043682807,-0.32906203193499245,0.15138446474582926,-0.15670632603766327,0.05570321500278579,0.009972198730901877,5.0
0.43844185225254545,-0.3260617178980221,0.15138446474582926,-0.15105112385540173,0.057873116791700104,0.02265925477303114,5.0
0.4585145227132523,-0.3110601739727453,0.07516887399780717,-0.16000518822938808,0.07812554083984315,0.004534888825858683,5.0
0.4585145227132523,-0.3110601739727453,0.07516887399780717,-0.1486947953607205,0.07450903693936811,0.011784635481050994,5.0
0.44647092043682807,-0.32906203193499245,0.12851980419795556,-0.15576379234061968,0.06799932909145698,0.0009100154982625266,5.0
0.43844185225254545,-0.33206234597196277,0.13614134659622498,-0.14115452865833567,0.07450903693936811,0.0081597620671038,5.0
0.44647092043682807,-0.3350626337493579,0.12851980419795556,-0.14303959317845896,0.05642651523151009,0.030815221055388094,5.0
0.43844185225254545,-0.3380629477863283,0.15138446474582926,-0.13832693044116876,0.04847020720183572,0.03897118595612841,5.0
0.43844185225254545,-0.3380629477863283,0.15138446474582926,-0.11193600416773149,0.05425661344259578,0.03172143861012777,5.0
0.43041278406826283,-0.3590650935259707,0.07516887399780717,-0.10156813996667072,0.05425661344259578,0.038064967019772085,5.0
0.44647092043682807,-0.35306449171160503,0.11327668604835105,-0.08318874508866718,0.0397905956352128,0.02628412913683978,5.0
0.44647092043682807,-0.3590650935259707,0.11327668604835105,-0.05679782025221184,0.0491935063278186,0.04078362106560776,5.0
0.43844185225254545,-0.35306449171160503,0.14376292234756008,-0.05255642148947956,0.06076632101482155,0.005441107071406681,5.0
0.43844185225254545,-0.35006417767463466,0.12089822844662056,-0.016740163993534136,0.05136341032221575,0.032627656164867444,5.0
0.43844185225254545,-0.35006417767463466,0.12089822844662056,-0.009199900165113156,0.047746905870370004,0.013597071972146992,5.0
0.4344273181604045,-0.34706386363766434,0.09803356789874676,0.002110498451482165,0.05425661344259578,0.028096565627935777,5.0
0.4504854545289697,-0.34706386363766434,0.15138446474582926,0.0072944280372941595,0.050640108990750034,0.030815221055388094,5.0
0.4504854545289697,-0.34706386363766434,0.15138446474582926,0.00917949543138134,0.06872263000939466,0.05437689682125269,5.0
0.4585145227132523,-0.3590650935259707,0.13614134659622498,0.011535823926062564,0.08391194818334462,0.03534631297393641,5.0
0.4544999886211107,-0.35606480574857563,0.14376292234756008,0.038398017048021635,0.09186825621301899,0.005441107071406681,5.0
0.4544999886211107,-0.34706386363766434,0.15900604049716482,0.021903694593542057,0.049916807659284315,0.04078362106560776,5.0
0.44647092043682807,-0.3380629477863283,0.15138446474582926,0.028972691573441255,0.040513896966678516,0.06072042661251367,5.0
0.44647092043682807,-0.32906203193499245,0.15900604049716482,0.03132902006812246,0.06365952413520158,0.04350227787467672,5.0
0.44647092043682807,-0.33206234597196277,0.12089822844662056,0.026616351582904506,0.07595563849955812,0.029909002119031775,5.0
0.4504854545289697,-0.35006417767463466,0.12089822844662056,0.012949630219555702,0.09186825621301899,0.04078362106560776,5.0
0.4585145227132523,-0.34706386363766434,0.13614134659622498,0.027558885279948094,0.08752845263519037,0.01540950880864715,5.0
0.43844185225254545,-0.3380629477863283,0.12089822844662056,0.03886928964447118,0.09620806199633043,0.04078362106560776,5.0
0.4544999886211107,-0.33206234597196277,0.15900604049716482,0.03557041595689084,0.06944593085841101,0.03625252914705944,5.0
0.4424563863446871,-0.3380629477863283,0.15900604049716482,0.03557041595689084,0.08752845263519037,0.018128163545291145,5.0
0.4424563863446871,-0.3380629477863283,0.13614134659622498,0.025202556785266894,0.09548476066486473,0.03534631297393641,5.0
0.43844185225254545,-0.3350626337493579,0.10565511029701603,0.03651294965393445,0.11501388338154206,0.03897118595612841,5.0
0.44647092043682807,-0.3260617178980221,0.12089822844662056,0.04028308444210881,0.10199446823709049,0.02084681828193514,5.0
0.4424563863446871,-0.33206234597196277,0.13614134659622498,0.04546701402792083,0.12080028962230212,0.011784635481050994,5.0
0.43041278406826283,-0.3230614038610517,0.14376292234756008,0.038398017048021635,0.11646048604447347,-0.017214352175930734,5.0
0.4344273181604045,-0.317060802046686,0.15900604049716482,0.036984222250384,0.12224689228523355,0.01722194529974315,5.0
0.4424563863446871,-0.3140604880097157,0.16662758289543386,0.030857758967528414,0.1352663074296851,0.047127150856868714,5.0
0.4544999886211107,-0.32906203193499245,0.18187073439810425,0.03509915485629682,0.11790708870740492,0.029002783182675452,5.0
0.4344273181604045,-0.3260617178980221,0.15900604049716482,0.03557041595689084,0.11212068246664486,0.003628670234906524,5.0
0.43844185225254545,-0.317060802046686,0.21997847974251653,0.006351894340250569,0.09837796378524476,0.00725354373520476,5.0
0.4344273181604045,-0.3230614038610517,0.18187073439810425,-0.006843565922504191,0.08969835442410468,-0.004527293975025464,5.0
0.4424563863446871,-0.32906203193499245,0.10565511029701603,-0.0016596363366921964,0.13092650385185647,-0.018120568349053765,5.0
0.43844185225254545,-0.3200610898240811,0.15900604049716482,-0.010142433862156757,0.14105271367044517,0.010878417062800915,5.0
0.43844185225254545,-0.3140604880097157,0.1742491586467688,-0.02899309630717306,0.12297019361669925,-0.009058385893573781,5.0
0.4585145227132523,-0.3200610898240811,0.12089822844662056,-0.035119559590028646,0.1316498051833222,-0.030807625168342376,5.0
0.4504854545289697,-0.3200610898240811,0.18187073439810425,-0.03794716068115941,0.1584119323927253,-0.041682246878151655,5.0
0.4504854545289697,-0.3230614038610517,0.1742491586467688,-0.050200087246870584,0.1388828140870137,-0.033526281977411365,5.0
0.4585145227132523,-0.30205925812140927,0.18949224344330795,-0.0784760794774131,0.1475624212426709,-0.012683260257382417,5.0
0.44647092043682807,-0.308059859935775,0.12851980419795556,-0.0784760794774131,0.15479543455732808,-0.02083922515812274,5.0
0.43041278406826283,-0.30205925812140927,0.18949224344330795,-0.08601634474281601,0.16564494570738247,-0.01630813323957441,5.0
0.43041278406826283,-0.30505957215837987,0.19711381919464288,-0.10486700575085038,0.1519022292314652,-0.025370317076671044,5.0
0.43844185225254545,-0.30205925812140927,0.16662758289543386,-0.11476360382188032,0.15117892789999948,-0.017214352175930734,5.0
0.43844185225254545,-0.2960586300474685,0.19711381919464288,-0.12371766675888474,0.16202843905005387,-0.019026787285410088,5.0
0.43844185225254545,-0.2780567983447967,0.21235697069731274,-0.13597059619855978,0.1424993163333766,-0.012683260257382417,5.0
0.41836918179183535,-0.30505957215837987,0.24284320699652184,-0.135499329350038,0.12007698829083636,0.032627656164867444,5.0
0.4344273181604045,-0.30205925812140927,0.22760005549385198,-0.13408553167843648,0.11212068246664486,0.01722194529974315,5.0
0.44647092043682807,-0.33206234597196277,0.19711381919464288,-0.13597059619855978,0.11573718471300777,0.02447169264574378,5.0
0.3942819772389856,-0.33206234597196277,0.21235697069731274,-0.1298441329157042,0.09837796378524476,-0.003621076420285785,5.0
0.43041278406826283,-0.317060802046686,0.22760005549385198,-0.1326717311328711,0.09620806199633043,-0.005433512911381785,5.0
0.44647092043682807,-0.3110601739727453,0.24284320699652184,-0.1491660622092423,0.10271776956855622,0.003628670234906524,5.0
0.43844185225254545,-0.308059859935775,0.25046471604172554,-0.16141898877495348,0.11284398379811056,-0.029901408995219373,5.0
0.4344273181604045,-0.3230614038610517,0.24284320699652184,-0.14822352851219872,0.08680515130372464,-0.009058385893573781,5.0
0.43041278406826283,-0.317060802046686,0.22760005549385198,-0.14492466057254613,0.10199446823709049,-0.007245949402477779,5.0
0.43041278406826283,-0.3230614038610517,0.29619410384360456,-0.14162579550685744,0.09765466465926188,-0.018120568349053765,5.0
0.43041278406826283,-0.30205925812140927,0.3266803401428136,-0.13974073098673415,0.11139738113517916,-0.0099646048299301,5.0
0.44647092043682807,-0.3110601739727453,0.29619410384360456,-0.14539592742106794,0.1005478677796419,0.0009100154982625266,5.0
0.4424563863446871,-0.3200610898240811,0.24284320699652184,-0.14209706235537925,0.0998245664481762,-0.006339731847738108,5.0
0.43844185225254545,-0.3110601739727453,0.27332944329573094,-0.1322004642843493,0.09042165575557039,0.004534888825858683,5.0
0.4344273181604045,-0.3110601739727453,0.2885725280922696,-0.13502806537548007,0.08174204529168888,-0.010870822384669777,5.0
0.4544999886211107,-0.30205925812140927,0.2885725280922696,-0.13597059619855978,0.08535854974353463,0.02265925477303114,5.0
0.43844185225254545,-0.3140604880097157,0.265707867544396,-0.12418893360740653,0.08463524841206892,-0.028995190058863037,5.0
0.44647092043682807,-0.32906203193499245,0.22760005549385198,-0.12748779867309523,0.08029544373149887,-0.03443250091376768,5.0
0.4424563863446871,-0.3230614038610517,0.2352216312451869,-0.11476360382188032,0.0831886468518789,-0.004527293975025464,5.0
0.4504854545289697,-0.317060802046686,0.27332944329573094,-0.09591294191573224,0.06655272753126697,-0.004527293975025464,5.0
0.43844185225254545,-0.3200610898240811,0.19711381919464288,-0.10486700575085038,0.06510612569539159,-0.022651660267602087,5.0
0.44647092043682807,-0.317060802046686,0.25046471604172554,-0.11617740293046377,0.06004301968335583,-0.038963590069082704,5.0
0.43844185225254545,-0.3110601739727453,0.265707867544396,-0.10533827259937217,0.0643828249152966,-0.029901408995219373,5.0
0.4424563863446871,-0.3110601739727453,0.22760005549385198,-0.11429233697335853,0.08391194818334462,-0.027182752186150388,5.0
0.43844185225254545,-0.30505957215837987,0.2580862917930605,-0.10957967136210445,0.05570321500278579,-0.037151154959603354,5.0
0.4424563863446871,-0.30205925812140927,0.25046471604172554,-0.10910840451358265,0.03545078985190134,-0.027182752186150388,5.0
0.43041278406826283,-0.30205925812140927,0.2352216312451869,-0.10957967136210445,0.001455649327841016,-0.033526281977411365,5.0
0.41836918179183535,-0.30505957215837987,0.34954500069068717,-0.0794186131744567,-0.1923889839979321,0.028096565627935777,5.0
0.4424563863446871,-0.33206234597196277,0.3190587643914786,-0.0261654952160423,-0.5677821015487672,3.7972527145279466e-06,5.0
0.47055812498967914,-0.34406357586026926,0.12851980419795556,-0.047843755878225494,-0.5106413581164951,-0.09424291202801881,5.0
0.4504854545289697,-0.33206234597196277,0.04468263769859822,-0.09874054103101285,-0.21553460896097226,-0.19755180445504048,5.0
0.43844185225254545,-0.32906203193499245,0.06754729824647208,-0.13361426482991468,0.0007323479963753148,-0.19483313659303836,5.0
0.4103401136075528,-0.35006417767463466,0.2047353949459778,-0.12136133539023965,-0.08534045751645686,-0.19755180445504048,5.0
0.4544999886211107,-0.29905894408443895,0.09041199214741161,-0.10863713766506086,-0.12873850211667442,-0.15405331761580335,5.0
0.4745726590818208,-0.2780567983447967,0.08279041639607651,-0.12890159921866062,-0.00722395782781619,-0.005433512911381785,5.0
0.4745726590818208,-0.27205617027085577,0.09041199214741161,-0.13597059619855978,0.09765466465926188,0.08609454025109092,5.0
0.44647092043682807,-0.26005494038254956,0.13614134659622498,-0.11994753484467426,0.05136341032221575,0.15768578648504109,5.0
0.40632557951541176,-0.28105711238176706,0.1742491586467688,-0.1062808055779248,-0.14609771642798888,0.20027805438792182,5.0
0.46654359089753816,-0.317060802046686,0.052304180096867645,-0.1025106736637143,-0.13958801326672882,0.1332178973092867,5.0
0.4745726590818208,-0.34406357586026926,0.014196401399389423,-0.11193600416773149,-0.005777355164884771,0.027190346691579454,5.0
0.4745726590818208,-0.34406357586026926,0.014196401399389423,-0.10957967136210445,0.0998245664481762,-0.12596055269462372,5.0
0.4585145227132523,-0.35306449171160503,0.10565511029701603,-0.09497040880246257,0.06944593085841101,-0.16220928804301027,5.0
0.43844185225254545,-0.28705771419613246,0.14376292234756008,-0.08884394367847387,0.01809157112962116,-0.16945902848092767,5.0
0.4585145227132523,-0.2510540245312135,0.04468263769859822,-0.12183260223876144,0.07884884217130886,-0.10783618502043046,5.0
0.4745726590818208,-0.25405433856818394,0.07516887399780717,-0.1298441329157042,0.15117892789999948,-0.03171384410469872,5.0
0.4424563863446871,-0.26005494038254956,0.052304180096867645,-0.11759120203904722,0.16636824703884823,0.049845804902704384,5.0
0.41836918179183535,-0.27205617027085577,0.10565511029701603,-0.08130367913156193,0.1352663074296851,0.12506192688207984,5.0
0.43844185225254545,-0.29305834227007344,0.12089822844662056,-0.0784760794774131,0.14683911991120518,0.12959302156386143,5.0
0.46654359089753816,-0.2960586300474685,0.08279041639607651,-0.06999328338893047,0.1396061154184794,0.09425050515183123,5.0
0.46654359089753816,-0.2960586300474685,0.08279041639607651,-0.07234961475757558,0.11067407980371341,0.03625252914705944,5.0
0.482601727266104,-0.308059859935775,0.06754729824647208,-0.07517721441172441,0.08969835442410468,-0.004527293975025464,5.0
0.4544999886211107,-0.28705771419613246,0.10565511029701603,-0.08224621282860553,0.11356728071861064,-0.07339988754475658,5.0
0.4544999886211107,-0.28705771419613246,0.10565511029701603,-0.08036114687150028,0.14105271367044517,-0.06343148477130364,5.0
0.4424563863446871,-0.29305834227007344,0.12089822844662056,-0.0846025449157416,0.11139738113517916,-0.09877399565686726,5.0
0.43041278406826283,-0.2900580282331031,0.12089822844662056,-0.07894734632593489,0.0824653466231546,-0.08336829031820953,5.0
0.4544999886211107,-0.29905894408443895,0.16662758289543386,-0.05962541846937874,-0.050622011249965154,-0.02808897112250672,5.0
0.4544999886211107,-0.30205925812140927,0.12089822844662056,-0.054441486009602864,-0.14103461592966027,-0.014495695366861771,5.0
0.4424563863446871,-0.317060802046686,0.12089822844662056,-0.07423468071468081,-0.12295209146494869,-0.05527551987056331,5.0
0.4504854545289697,-0.3380629477863283,0.07516887399780717,-0.0676369491463215,-0.038325897436979305,-0.13049164737640534,5.0
0.4585145227132523,-0.34706386363766434,0.03706106194726313,-0.059154151620856944,0.0231546760389155,-0.19483313659303836,5.0
0.4344273181604045,-0.3230614038610517,0.05992575584820265,-0.0671656822977997,0.013028466220326839,-0.13774138781432274,5.0
0.4344273181604045,-0.2900580282331031,0.14376292234756008,-0.05726908710073364,0.028941082279675553,-0.06433770370765995,5.0
0.4625290568053965,-0.2660555684564903,0.09041199214741161,-0.08318874508866718,0.03328088806298702,0.05347067788489638,5.0
0.4625290568053965,-0.2510540245312135,0.08279041639607651,-0.08224621282860553,0.1005478677796419,0.15315469180325944,5.0
0.4504854545289697,-0.23905279464290732,0.09041199214741161,-0.08743014456989043,0.12297019361669925,0.19937182439863232,5.0
0.43041278406826283,-0.26005494038254956,0.10565511029701603,-0.09732674156318392,0.14177601500191084,0.2374329976197315,5.0
0.44647092043682807,-0.27505648430782637,0.07516887399780717,-0.12701653182457343,0.2039798898092714,0.28455636020439384,5.0
0.4585145227132523,-0.27505648430782637,0.09041199214741161,-0.10580953944789397,0.1352663074296851,0.24468274911058205,5.0
0.4745726590818208,-0.2960586300474685,0.19711381919464288,-0.08743014456989043,-0.07232103355007394,0.17127905947745273,5.0
0.46654359089753816,-0.3410632618232988,0.15138446474582926,-0.08648761087284684,-0.1316317074425373,0.003628670234906524,5.0
0.46654359089753816,-0.34706386363766434,0.05992575584820265,-0.09685547489428487,0.07161583340546004,-0.1758025610354219,5.0
0.41836918179183535,-0.35006417767463466,0.09041199214741161,-0.0794186131744567,0.1005478677796419,-0.2265507883125764,5.0
0.4103401136075528,-0.3260617178980221,0.12089822844662056,-0.08837267754844305,0.07884884217130886,-0.2365191855595628,5.0
0.4585145227132523,-0.2570546526051545,0.11327668604835105,-0.11806246888756901,0.09910126511671045,-0.10964862289314313,5.0
0.4745726590818208,-0.24505342271684802,0.08279041639607651,-0.11806246888756901,0.15045562656853376,-0.026276533249794082,5.0
0.4745726590818208,-0.2420531086798777,0.08279041639607651,-0.12136133539023965,0.1699847448742454,0.027190346691579454,5.0
0.4424563863446871,-0.24505342271684802,0.15900604049716482,-0.1260740010014937,0.20108668448340855,0.11781217539122928,5.0
0.43041278406826283,-0.25405433856818394,0.13614134659622498,-0.14680972796663333,0.26256726237026906,0.15224847286690316,5.0
0.4143546476996944,-0.2510540245312135,0.14376292234756008,-0.1534074580980107,0.29222259049456933,0.16856040266838376,5.0
0.4625290568053965,-0.2960586300474685,0.006574825648054259,-0.16471785671460604,0.3168148181205409,0.1948407407697839,5.0
0.4625290568053965,-0.32906203193499245,0.21235697069731274,-0.1109934704706879,-0.014456971142473369,0.0996878132435026,5.0
0.4745726590818208,-0.3650657215999114,0.2047353949459778,-0.09214280964227628,-0.30884041896653025,-0.09333669309166248,5.0
0.4745726590818208,-0.38906818137652427,0.09803356789874676,-0.0756484812602462,-0.2451899370852727,-0.21930103682172586,5.0
0.47858719317396176,-0.3650657215999114,-0.008668292501550177,-0.08130367913156193,0.16492164437591678,-0.32714101287759606,5.0
0.41836918179183535,-0.3110601739727453,0.09803356789874676,-0.10533827259937217,0.12007698829083636,-0.3135477398851845,5.0
0.38625290905470233,-0.25405433856818394,0.18949224344330795,-0.1326717311328711,0.01013526089446396,-0.10783618502043046,5.0
0.43844185225254545,-0.22705156475460095,0.16662758289543386,-0.1501085959062859,0.047023604538904286,0.03444009403758009,5.0
0.4866162613582482,-0.25405433856818394,0.09803356789874676,-0.14633846111811152,0.13454300609821934,0.09153184834276226,5.0
0.4585145227132523,-0.2570546526051545,0.10565511029701603,-0.15246492440096712,0.1555187358887938,0.15496712967597212,5.0
0.43041278406826283,-0.27205617027085577,0.06754729824647208,-0.1491660622092423,0.2068730951351343,0.20752780587877237,5.0
0.43844185225254545,-0.2900580282331031,0.09041199214741161,-0.15387872494653249,0.2690769655315291,0.18577855140622068,5.0
0.4544999886211107,-0.3110601739727453,0.09803356789874676,-0.16424658986608423,0.35153326438703286,0.15406091073961578,5.0
0.46654359089753816,-0.2960586300474685,0.09041199214741161,-0.1501085959062859,0.29945560380922653,0.17399771628652166,5.0
0.46654359089753816,-0.30205925812140927,0.11327668604835105,-0.12560273415297193,0.2799264766815835,0.1449987324289857,5.0
0.44647092043682807,-0.317060802046686,0.15138446474582926,-0.1025106736637143,0.11718378737593922,0.03534631297393641,5.0
0.43844185225254545,-0.3230614038610517,0.19711381919464288,-0.07046454880047033,0.04123719829814424,-0.007245949402477779,5.0
0.4585145227132523,-0.3200610898240811,0.13614134659622498,-0.0756484812602462,0.07884884217130886,-0.1005864335295799,5.0
0.4625290568053965,-0.3140604880097157,0.10565511029701603,-0.08884394367847387,0.16636824703884823,-0.1395538256870354,5.0
0.43041278406826283,-0.26905588249346063,0.19711381919464288,-0.10957967136210445,0.183004160018697,-0.10692996608407417,5.0
0.4223837158839764,-0.26905588249346063,0.19711381919464288,-0.1062808055779248,0.04485370274998998,0.02628412913683978,5.0
0.44647092043682807,-0.27205617027085577,0.21235697069731274,-0.12466020045592834,0.031110986274072723,0.06343907789511606,5.0
0.43844185225254545,-0.28105711238176706,0.19711381919464288,-0.1298441329157042,0.08897505309263895,0.07340748066856899,5.0
0.43844185225254545,-0.2960586300474685,0.18949224344330795,-0.11382107012483673,0.07378573588358775,0.087906972597337,5.0
0.4544999886211107,-0.2960586300474685,0.2047353949459778,-0.11429233697335853,0.11790708870740492,0.07068882938596661,5.0
0.46654359089753816,-0.29905894408443895,0.14376292234756008,-0.12513146730445013,0.14973232523706806,0.04168984000196407,5.0
0.4585145227132523,-0.2900580282331031,0.14376292234756008,-0.11711993662750736,0.13092650385185647,0.03534631297393641,5.0
0.4585145227132523,-0.2900580282331031,0.14376292234756008,-0.11664866977898557,0.12658669586306218,-0.007245949402477779,5.0
0.4424563863446871,-0.29305834227007344,0.15900604049716482,-0.12654526785001552,0.08897505309263895,-0.0027148574839294666,5.0
0.4504854545289697,-0.2960586300474685,0.1742491586467688,-0.135499329350038,0.10778087447785058,-0.019026787285410088,5.0
0.4504854545289697,-0.2960586300474685,0.1742491586467688,-0.14068326180981386,0.09331485887595042,-0.02083922515812274,5.0
0.43041278406826283,-0.29305834227007344,0.14376292234756008,-0.12183260223876144,0.07378573588358775,0.00634732531695468,5.0
0.41836918179183535,-0.30505957215837987,0.14376292234756008,-0.13644186304708159,0.054979913671320074,-0.0009024209928334694,5.0
0.41836918179183535,-0.30505957215837987,0.14376292234756008,-0.14445339372402435,0.07740224005974813,-0.013589477812122093,5.0
0.4504854545289697,-0.3140604880097157,0.13614134659622498,-0.13832693044116876,0.09114495708703611,-0.023557879203958392,5.0
0.4585145227132523,-0.2960586300474685,0.10565511029701603,-0.13738439674412517,0.06148962124354585,-0.03171384410469872,5.0
0.4585145227132523,-0.2960586300474685,0.10565511029701603,-0.14492466057254613,0.0824653466231546,-0.018120568349053765,5.0
0.4625290568053965,-0.2960586300474685,0.11327668604835105,-0.16236152247199706,0.08391194818334462,-0.013589477812122093,5.0
0.4544999886211107,-0.2960586300474685,0.09803356789874676,-0.177442050128839,0.09620806199633043,-0.03533871708689071,5.0
0.44647092043682807,-0.308059859935775,0.10565511029701603,-0.1529361912494889,0.11212068246664486,-0.04077602794179534,5.0
0.44647092043682807,-0.308059859935775,0.16662758289543386,-0.1331429979813929,0.10199446823709049,-0.0099646048299301,5.0
0.44647092043682807,-0.308059859935775,0.15900604049716482,-0.12748779867309523,0.07740224005974813,-0.023557879203958392,5.0
0.4424563863446871,-0.2960586300474685,0.14376292234756008,-0.11900500114763067,0.03472749072591846,0.03715874808341576,5.0
0.4544999886211107,-0.28405740015916214,0.1742491586467688,-0.11759120203904722,0.05931971945463154,0.010878417062800915,5.0
0.4585145227132523,-0.28105711238176706,0.15138446474582926,-0.12041880169319605,0.0658294264754866,0.029909002119031775,5.0
0.44647092043682807,-0.2960586300474685,0.1742491586467688,-0.13832693044116876,0.07161583340546004,-0.009058385893573781,5.0
0.43844185225254545,-0.27505648430782637,0.14376292234756008,-0.15199365755244532,0.10344107090002194,0.011784635481050994,5.0
0.44647092043682807,-0.29305834227007344,0.15138446474582926,-0.16895925260337444,0.07812554083984315,0.005441107071406681,5.0
0.46654359089753816,-0.2900580282331031,0.12851980419795556,-0.1708443199974616,0.08680515130372464,-0.0099646048299301,5.0
0.4625290568053965,-0.2960586300474685,0.14376292234756008,-0.16377532301756245,0.07523233771946311,0.00634732531695468,5.0
0.43844185225254545,-0.30205925812140927,0.12851980419795556,-0.17131558684598341,0.06655272753126697,-0.0018086399291897901,5.0
0.4585145227132523,-0.308059859935775,0.16662758289543386,-0.16000518822938808,0.04485370274998998,0.0009100154982625266,5.0
0.43844185225254545,-0.3110601739727453,0.15900604049716482,-0.15953392138086628,0.09837796378524476,-0.0009024209928334694,5.0
0.4424563863446871,-0.3140604880097157,0.14376292234756008,-0.1529361912494889,0.07957214240003316,-0.015401914303218092,5.0
0.4544999886211107,-0.308059859935775,0.16662758289543386,-0.14633846111811152,0.08825175286391466,0.0009100154982625266,5.0
0.44647092043682807,-0.308059859935775,0.13614134659622498,-0.14115452865833567,0.07667893927965312,-0.024464098140314732,5.0
0.4504854545289697,-0.2960586300474685,0.13614134659622498,-0.14021199496129208,0.052810010779664344,0.003628670234906524,5.0
0.43844185225254545,-0.30205925812140927,0.18187073439810425,-0.127959065521617,0.06148962124354585,0.0081597620671038,5.0
0.4544999886211107,-0.317060802046686,0.21235697069731274,-0.1307866666127478,0.07884884217130886,-0.037151154959603354,5.0
0.4544999886211107,-0.308059859935775,0.19711381919464288,-0.12654526785001552,0.06655272753126697,-0.01630813323957441,5.0
0.44647092043682807,-0.2900580282331031,0.21235697069731274,-0.11994753484467426,0.07523233771946311,-0.006339731847738108,5.0
0.4585145227132523,-0.30205925812140927,0.1742491586467688,-0.1114647373192097,0.04485370274998998,-0.018120568349053765,5.0
0.4544999886211107,-0.308059859935775,0.14376292234756008,-0.1109934704706879,0.05859641812316582,3.7972527145279466e-06,5.0
0.4424563863446871,-0.317060802046686,0.14376292234756008,-0.09921180752028916,0.06799932909145698,0.003628670234906524,5.0
0.4544999886211107,-0.3110601739727453,0.14376292234756008,-0.09402787573409857,0.057149816562975804,-0.010870822384669777,5.0
0.43844185225254545,-0.30205925812140927,0.09803356789874676,-0.08790141069992126,0.05931971945463154,0.038064967019772085,5.0
0.43844185225254545,-0.30505957215837987,0.14376292234756008,-0.07659101352030787,0.05136341032221575,-0.015401914303218092,5.0
0.43844185225254545,-0.2960586300474685,0.15138446474582926,-0.076119748108768,0.045577001875972856,0.01631572705419515,5.0
0.4504854545289697,-0.30205925812140927,0.14376292234756008,-0.07234961475757558,0.049916807659284315,0.003628670234906524,5.0
0.4544999886211107,-0.29305834227007344,0.13614134659622498,-0.07329214845461916,0.06799932909145698,0.0027224519893585264,5.0
0.44647092043682807,-0.2900580282331031,0.11327668604835105,-0.0676369491463215,0.0824653466231546,0.00634732531695468,5.0
0.4424563863446871,-0.29305834227007344,0.14376292234756008,-0.04218855656992782,0.08969835442410468,-0.0027148574839294666,5.0
0.4424563863446871,-0.2900580282331031,0.14376292234756008,-0.0464299553326601,0.06510612569539159,-0.019026787285410088,5.0
0.44647092043682807,-0.2900580282331031,0.12089822844662056,-0.04030348917584063,0.03472749072591846,0.00634732531695468,5.0
0.43844185225254545,-0.28405740015916214,0.11327668604835105,-0.04878628957526908,0.045577001875972856,0.027190346691579454,5.0
0.44647092043682807,-0.27205617027085577,0.10565511029701603,-0.06433808408063281,0.05859641812316582,0.030815221055388094,5.0
0.4585145227132523,-0.28405740015916214,0.12851980419795556,-0.06339555038358922,0.05931971945463154,0.01722194529974315,5.0
0.44647092043682807,-0.28705771419613246,0.15900604049716482,-0.06056795216642233,0.037620693846298486,0.02175303721829146,5.0
0.43844185225254545,-0.28705771419613246,0.18949224344330795,-0.07140708249751393,0.028217780948209842,0.0009100154982625266,5.0
0.4504854545289697,-0.2900580282331031,0.12851980419795556,-0.0794186131744567,0.037620693846298486,0.004534888825858683,5.0
0.44647092043682807,-0.29305834227007344,0.12089822844662056,-0.08413127878571076,0.07667893927965312,0.003628670234906524,5.0
0.4504854545289697,-0.28105711238176706,0.09041199214741161,-0.09120027648410091,0.06221292257501157,-0.0009024209928334694,5.0
0.44647092043682807,-0.29305834227007344,0.12089822844662056,-0.07423468071468081,0.0491935063278186,-0.021745444094479052,5.0
0.46654359089753816,-0.30205925812140927,0.13614134659622498,-0.0756484812602462,0.07523233771946311,-0.012683260257382417,5.0
0.46654359089753816,-0.29305834227007344,0.16662758289543386,-0.07329214845461916,0.07957214240003316,-0.025370317076671044,5.0
0.4424563863446871,-0.2900580282331031,0.1742491586467688,-0.07470594756320262,0.06076632101482155,-0.0099646048299301,5.0
0.43844185225254545,-0.28105711238176706,0.12851980419795556,-0.0907290099948246,0.06799932909145698,0.010878417062800915,5.0
0.46654359089753816,-0.2780567983447967,0.1742491586467688,-0.08507381176426339,0.05931971945463154,0.02175303721829146,5.0
0.4625290568053965,-0.2900580282331031,0.09803356789874676,-0.09826927454173655,0.0643828249152966,0.014503290563099151,5.0
0.4424563863446871,-0.2960586300474685,0.11327668604835105,-0.09779800805246024,0.06727602831136197,0.04531471298415606,5.0
0.44647092043682807,-0.29305834227007344,0.1742491586467688,-0.10486700575085038,0.06944593085841101,-0.0099646048299301,5.0
0.43844185225254545,-0.2960586300474685,0.1742491586467688,-0.10675207170795561,0.08680515130372464,-0.0018086399291897901,5.0
0.4585145227132523,-0.2960586300474685,0.19711381919464288,-0.10345320664226693,0.06293622335510657,-0.023557879203958392,5.0
0.44647092043682807,-0.2900580282331031,0.2047353949459778,-0.09355660919991658,0.06799932909145698,-0.003621076420285785,5.0
0.4424563863446871,-0.28105711238176706,0.14376292234756008,-0.09544167533664456,0.06727602831136197,0.005441107071406681,5.0
0.4424563863446871,-0.29905894408443895,0.15900604049716482,-0.09685547489428487,0.07667893927965312,0.005441107071406681,5.0
0.44647092043682807,-0.30505957215837987,0.14376292234756008,-0.08648761087284684,0.07378573588358775,-0.015401914303218092,5.0
0.44647092043682807,-0.29905894408443895,0.15900604049716482,-0.08130367913156193,0.0831886468518789,-0.013589477812122093,5.0
0.4424563863446871,-0.2900580282331031,0.15900604049716482,-0.07470594756320262,0.07884884217130886,-0.013589477812122093,5.0
0.44647092043682807,-0.28105711238176706,0.18949224344330795,-0.07140708249751393,0.03400418939445275,-0.018120568349053765,5.0
0.44647092043682807,-0.28105711238176706,0.11327668604835105,-0.08130367913156193,0.05570321500278579,-0.005433512911381785,5.0
0.44647092043682807,-0.29305834227007344,0.15138446474582926,-0.0784760794774131,0.06510612569539159,3.7972527145279466e-06,5.0
0.44647092043682807,-0.28705771419613246,0.13614134659622498,-0.076119748108768,0.08535854974353463,-0.015401914303218092,5.0
0.44647092043682807,-0.2780567983447967,0.14376292234756008,-0.08083241228304014,0.07450903693936811,3.7972527145279466e-06,5.0
0.43844185225254545,-0.28705771419613246,0.14376292234756008,-0.07329214845461916,0.06872263000939466,3.7972527145279466e-06,5.0
0.43844185225254545,-0.28705771419613246,0.14376292234756008,-0.06151048586346592,0.06799932909145698,3.7972527145279466e-06,5.0
0.4585145227132523,-0.28405740015916214,0.15138446474582926,-0.07470594756320262,0.04340710008705854,0.019034381790839144,5.0
0.4544999886211107,-0.2900580282331031,0.12089822844662056,-0.08224621282860553,0.06944593085841101,0.027190346691579454,5.0
0.44647092043682807,-0.3110601739727453,0.16662758289543386,-0.0756484812602462,0.09620806199633043,-0.0099646048299301,5.0
0.4504854545289697,-0.2780567983447967,0.12089822844662056,-0.07093581564899214,0.07957214240003316,0.003628670234906524,5.0
0.4544999886211107,-0.27505648430782637,0.13614134659622498,-0.08743014456989043,0.09042165575557039,-0.013589477812122093,5.0
0.4424563863446871,-0.2660555684564903,0.09041199214741161,-0.10109687383663989,0.08825175286391466,-0.019026787285410088,5.0
0.4424563863446871,-0.27205617027085577,0.12089822844662056,-0.08601634474281601,0.09548476066486473,-0.024464098140314732,5.0
0.44647092043682807,-0.2780567983447967,0.14376292234756008,-0.11052220505914805,0.08825175286391466,-0.037151154959603354,5.0
0.44647092043682807,-0.2780567983447967,0.14376292234756008,-0.11759120203904722,0.09765466465926188,-0.02083922515812274,5.0
0.4625290568053965,-0.2780567983447967,0.12089822844662056,-0.11711993662750736,0.10127116911110765,-0.008152168338834103,5.0
0.4504854545289697,-0.2900580282331031,0.13614134659622498,-0.12701653182457343,0.10416437223148767,-0.021745444094479052,5.0
0.4504854545289697,-0.2900580282331031,0.13614134659622498,-0.11947626799615246,0.12947990118892502,-0.024464098140314732,5.0
0.44647092043682807,-0.29305834227007344,0.15900604049716482,-0.13597059619855978,0.12875659985745933,-0.023557879203958392,5.0
0.4504854545289697,-0.27505648430782637,0.16662758289543386,-0.12089006854171784,0.11501388338154206,-0.025370317076671044,5.0
0.4504854545289697,-0.27505648430782637,0.16662758289543386,-0.13926946413821234,0.09620806199633043,-0.008152168338834103,5.0
0.4544999886211107,-0.27505648430782637,0.05992575584820265,-0.1326717311328711,0.13815951275554797,-0.010870822384669777,5.0
0.4504854545289697,-0.29305834227007344,0.06754729824647208,-0.130315399764226,0.11935369137033637,-0.021745444094479052,5.0
0.4504854545289697,-0.29305834227007344,0.06754729824647208,-0.10109687383663989,0.06076632101482155,-0.023557879203958392,5.0
0.4504854545289697,-0.29905894408443895,0.12851980419795556,-0.08695887772136864,0.09403816020741615,0.01540950880864715,5.0
0.4585145227132523,-0.2900580282331031,0.16662758289543386,-0.08318874508866718,0.08608184997225893,-0.017214352175930734,5.0
0.44647092043682807,-0.28405740015916214,0.18187073439810425,-0.07894734632593489,0.09620806199633043,-0.009058385893573781,5.0
0.4585145227132523,-0.28105711238176706,0.18949224344330795,-0.07282088160609737,0.07812554083984315,0.005441107071406681,5.0
0.4504854545289697,-0.28105711238176706,0.1742491586467688,-0.07187834790905379,0.06944593085841101,0.02628412913683978,5.0
0.44647092043682807,-0.26005494038254956,0.14376292234756008,-0.08743014456989043,0.10271776956855622,0.0081597620671038,5.0
0.4424563863446871,-0.2660555684564903,0.14376292234756008,-0.08366001193718897,0.1388828140870137,0.0081597620671038,5.0
0.4544999886211107,-0.2630552544195199,0.19711381919464288,-0.08790141069992126,0.10561097268893625,0.003628670234906524,5.0
0.4544999886211107,-0.2630552544195199,0.19711381919464288,-0.08271747895863635,0.07884884217130886,-0.022651660267602087,5.0
0.43844185225254545,-0.2570546526051545,0.15900604049716482,-0.10439573962081955,0.08174204529168888,0.00634732531695468,5.0
0.4544999886211107,-0.2660555684564903,0.14376292234756008,-0.13879819728969056,0.10633427402040195,0.018128163545291145,5.0
0.4544999886211107,-0.2660555684564903,0.14376292234756008,-0.12701653182457343,0.16781484970177962,0.0018162337438105277,5.0
0.4504854545289697,-0.26905588249346063,0.18187073439810425,-0.13361426482991468,0.15045562656853376,-0.045307117097110376,5.0
0.4544999886211107,-0.26005494038254956,0.15900604049716482,-0.13644186304708159,0.1388828140870137,-0.036244936023247014,5.0
0.4544999886211107,-0.26005494038254956,0.15900604049716482,-0.14586719426958974,0.10995077847224771,-0.024464098140314732,5.0
0.4504854545289697,-0.24805371049424313,0.15900604049716482,-0.15105112385540173,0.10850417580931628,0.009972198730901877,5.0
0.44647092043682807,-0.2660555684564903,0.14376292234756008,-0.14539592742106794,0.11573718471300777,-0.0009024209928334694,5.0
0.44647092043682807,-0.2660555684564903,0.14376292234756008,-0.13785566359264698,0.11935369137033637,-0.02808897112250672,5.0
0.4544999886211107,-0.27505648430782637,0.16662758289543386,-0.12701653182457343,0.11501388338154206,-0.032620063041055025,5.0
0.4424563863446871,-0.28105711238176706,0.1742491586467688,-0.1114647373192097,0.10488767356295338,-0.014495695366861771,5.0
0.4424563863446871,-0.28105711238176706,0.1742491586467688,-0.1062808055779248,0.09186825621301899,0.023565473709387462,5.0
0.44647092043682807,-0.27205617027085577,0.1742491586467688,-0.11570613608194197,0.08680515130372464,0.0027224519893585264,5.0
0.4344273181604045,-0.28105711238176706,0.22760005549385198,-0.11476360382188032,0.08752845263519037,0.04168984000196407,5.0
0.4504854545289697,-0.28405740015916214,0.21997847974251653,-0.10580953944789397,0.08752845263519037,0.01540950880864715,5.0
0.4544999886211107,-0.28705771419613246,0.18949224344330795,-0.08177494598008372,0.08608184997225893,0.029002783182675452,5.0
0.44647092043682807,-0.2960586300474685,0.18187073439810425,-0.07894734632593489,0.08535854974353463,0.049845804902704384,5.0
0.43844185225254545,-0.28105711238176706,0.18949224344330795,-0.07470594756320262,0.1005478677796419,0.06343907789511606,5.0
0.4344273181604045,-0.2900580282331031,0.21997847974251653,-0.0648093509291546,0.07957214240003316,0.04440849404779976,5.0
0.44647092043682807,-0.28105711238176706,0.18187073439810425,-0.04737248902970369,0.0824653466231546,0.0770323564139943,5.0
0.4544999886211107,-0.28105711238176706,0.21235697069731274,-0.04077475602436244,0.07884884217130886,0.051658242775417036,5.0
0.4504854545289697,-0.27505648430782637,0.2047353949459778,-0.03370575904446326,0.06799932909145698,0.0770323564139943,5.0
0.4424563863446871,-0.2780567983447967,0.18949224344330795,-0.02710802891308588,0.0643828249152966,0.055283115757609025,5.0
0.43844185225254545,-0.27505648430782637,0.19711381919464288,-0.022866627276389724,0.04340710008705854,0.05890798873980102,5.0
0.44647092043682807,-0.28105711238176706,0.15900604049716482,-0.019096498236143112,0.06148962124354585,0.06343907789511606,5.0
0.4544999886211107,-0.2780567983447967,0.18949224344330795,-0.018153964539099524,0.06655272753126697,0.048033369793225054,5.0
0.4424563863446871,-0.2660555684564903,0.19711381919464288,-0.013441296053881571,0.04340710008705854,0.0625328644852263,5.0
0.43844185225254545,-0.26005494038254956,0.19711381919464288,-0.022395360427867918,0.0397905956352128,0.02447169264574378,5.0
0.43041278406826283,-0.25405433856818394,0.19711381919464288,-0.03747589383263762,0.03472749072591846,0.047127150856868714,5.0
0.43844185225254545,-0.2510540245312135,0.21235697069731274,-0.04548742450958038,0.0231546760389155,0.03534631297393641,5.0
0.43844185225254545,-0.2630552544195199,0.18187073439810425,-0.0676369491463215,0.030387684942606998,0.023565473709387462,5.0
0.4424563863446871,-0.2630552544195199,0.1742491586467688,-0.07282088160609737,0.028217780948209842,0.02628412913683978,5.0
0.44647092043682807,-0.2660555684564903,0.21997847974251653,-0.09402787573409857,0.040513896966678516,0.02265925477303114,5.0
0.4544999886211107,-0.27505648430782637,0.19711381919464288,-0.09779800805246024,0.06293622335510657,0.02265925477303114,5.0
0.44647092043682807,-0.27205617027085577,0.16662758289543386,-0.09968307400956547,0.052086710550940045,3.7972527145279466e-06,5.0
0.43844185225254545,-0.28105711238176706,0.15900604049716482,-0.11806246888756901,0.052810010779664344,0.00725354373520476,5.0
0.4544999886211107,-0.2900580282331031,0.16662758289543386,-0.13974073098673415,0.054979913671320074,3.7972527145279466e-06,5.0
0.44647092043682807,-0.27505648430782637,0.1742491586467688,-0.1317291974358275,0.057873116791700104,0.01722194529974315,5.0
0.4424563863446871,-0.28105711238176706,0.2047353949459778,-0.13597059619855978,0.05859641812316582,0.04259605893832041,5.0
0.4585145227132523,-0.2900580282331031,0.16662758289543386,-0.1491660622092423,0.04196049962960995,0.048033369793225054,5.0
0.44647092043682807,-0.2960586300474685,0.18187073439810425,-0.15576379234061968,0.05570321500278579,0.030815221055388094,5.0
0.43844185225254545,-0.2900580282331031,0.12851980419795556,-0.1548212586435761,0.057149816562975804,0.02447169264574378,5.0
0.4544999886211107,-0.28105711238176706,0.15900604049716482,-0.15529252549209788,0.06510612569539159,0.049845804902704384,5.0
0.4585145227132523,-0.28705771419613246,0.14376292234756008,-0.16990178630041802,0.057149816562975804,0.025377910200483456,5.0
0.44647092043682807,-0.28105711238176706,0.13614134659622498,-0.17320065424007058,0.06076632101482155,0.029002783182675452,5.0
0.43844185225254545,-0.28105711238176706,0.18949224344330795,-0.1736719210885924,0.05570321500278579,0.02084681828193514,5.0
0.4504854545289697,-0.29305834227007344,0.18187073439810425,-0.17037305314893983,0.06655272753126697,0.025377910200483456,5.0
0.44647092043682807,-0.28105711238176706,0.16662758289543386,-0.15953392138086628,0.06293622335510657,0.049845804902704384,5.0
0.44647092043682807,-0.2900580282331031,0.16662758289543386,-0.15717759288618507,0.06510612569539159,0.02175303721829146,5.0
0.4585145227132523,-0.29305834227007344,0.16662758289543386,-0.14256832920390106,0.057149816562975804,0.01540950880864715,5.0
0.4504854545289697,-0.29905894408443895,0.1742491586467688,-0.14162579550685744,0.07957214240003316,0.00725354373520476,5.0
0.4544999886211107,-0.30205925812140927,0.14376292234756008,-0.11287853642779314,0.05859641812316582,0.0009100154982625266,5.0
0.4424563863446871,-0.2960586300474685,0.15900604049716482,-0.10298193979374513,0.08897505309263895,-0.004527293975025464,5.0
0.44647092043682807,-0.29305834227007344,0.19711381919464288,-0.08743014456989043,0.05859641812316582,-0.006339731847738108,5.0
0.44647092043682807,-0.29305834227007344,0.21235697069731274,-0.06339555038358922,0.052810010779664344,-0.005433512911381785,5.0
0.43844185225254545,-0.2780567983447967,0.21235697069731274,-0.06905074969188689,0.04123719829814424,0.023565473709387462,5.0
0.4544999886211107,-0.28105711238176706,0.21997847974251653,-0.06622315147472,0.03328088806298702,0.028096565627935777,5.0
0.4424563863446871,-0.28405740015916214,0.19711381919464288,-0.0681082159948433,0.027494479616744134,0.03444009403758009,5.0
0.44647092043682807,-0.30205925812140927,0.21235697069731274,-0.04218855656992782,0.06293622335510657,0.03353387510122377,5.0
0.44647092043682807,-0.308059859935775,0.18187073439810425,-0.031349424801854285,0.07812554083984315,-0.003621076420285785,5.0
0.43844185225254545,-0.2960586300474685,0.15138446474582926,-0.00495849852841701,0.057149816562975804,-0.01630813323957441,5.0
0.4424563863446871,-0.30205925812140927,0.18949224344330795,0.004466826946163388,0.05353331211113006,0.027190346691579454,5.0
0.44647092043682807,-0.30505957215837987,0.21997847974251653,0.0072944280372941595,0.052086710550940045,0.03625252914705944,5.0
0.4544999886211107,-0.2900580282331031,0.1742491586467688,0.012949630219555702,0.040513896966678516,-0.008152168338834103,5.0
