acc_x,acc_y,acc_z,gyro_x,gyro_y,gyro_z,activity
-0.8081534220703597,0.421951204580615,2.705886743418536,0.6993851079095673,-0.9902525226674532,0.4186966942810441,0.0
-0.7546420277907309,0.4280146098913109,2.723763787815535,0.6457580830889919,-0.8670398500896223,0.44636137870439513,0.0
-0.6226471969510617,0.34615865395168477,2.9382879033399996,0.7801412025177625,0.7798030705745437,-0.01656105473923234,0.0
-0.6226471969510617,0.34615865395168477,2.9382879033399996,0.7208359917099888,0.799336859371991,-0.04791436956348131,0.0
-0.6226471969510617,0.34615865395168477,2.9382879033399996,0.7208359917099888,0.799336859371991,-0.04791436956348131,0.0
-0.7046979432299065,0.33100014150414325,3.003837066128994,0.18771990908891076,0.4101650161874771,0.03323538397119443,0.0
-0.8259904702351135,0.3673805683931287,3.1528120188644637,-0.3441343287738345,0.4071598263694636,0.2231995670284036,0.0
-0.8366927740695758,0.3764756738715775,3.295827956800934,-0.39271412846147735,0.4882998781486797,0.16787019818170137,0.0
-0.7974511182358972,0.4007292905537702,3.266032882805936,-0.27536550543414284,0.6723676353778899,-0.0018065549273323187,0.0
-0.7189676816758563,0.45833163146960043,2.914451844144001,-0.16748047954868606,0.7858134502105705,-0.1631839029905438,0.0
-0.7118328124528813,0.4674267369480492,2.8012307715827696,-0.026788321008729663,0.504077115529857,-0.3826570983247932,0.0
-0.7118328124528813,0.4795535442526476,2.6999277286195364,0.09876208518222994,0.10588973954487607,-0.46841763353397114,0.0
-0.708265377841394,0.4674267369480492,2.6999277286195364,0.03567142859218687,-0.05714169812163314,-0.568932679099416,0.0
-0.6618888527847403,0.4371097153697598,2.8608209195727645,-0.08924807445715616,0.25464654390260805,-0.6159626471180426,0.0
-0.6511865489502779,0.43104631171746055,2.8906157849480034,-0.37504873276593464,0.6227820217074549,-0.6353279307133184,0.0
-0.6440516797273029,0.4280146098913109,2.9859600217319953,-0.6772529727920029,0.657341722941396,-0.7588968424738071,0.0
-0.7011305086184189,0.4401414171959093,3.039590737683473,-0.8425504962128739,0.4800356336393228,-0.7635076157128159,0.0
-0.7189676816758563,0.4795535442526476,3.099180885673468,-0.8835594120309984,0.1900349994688924,-0.7533639685741544,0.0
-0.7189676816758563,0.48864864973109645,3.176648078060462,-0.8860830707675843,-0.09245265557480772,-0.7985496003035987,0.0
-0.6939957642881276,0.5159339728000298,3.2362378088109383,-0.7870307427298991,-0.0954578408111245,-0.8861544718019596,0.0
-0.6547539835617653,0.5310924752971908,3.230278794011939,-0.6015441956569791,-0.03685668174055656,-1.0207892663296483,0.0
-0.6369169353970114,0.5310924752971908,3.260073868006937,-0.2816745907154479,-0.12025064764634207,-1.0871844729542524,0.0
-0.6440516797273029,0.552314394713825,3.391172193584927,0.18708900209978424,-0.1953803472797114,-1.215364202943048,0.0
-0.6440516797273029,0.552314394713825,3.391172193584927,0.42052444956624047,-0.29229765476689157,-1.253172669472956,0.0
-0.6404843700084989,0.5583777983661242,3.504393057526399,0.3681591925537985,-0.5635158617381313,-1.1683342799137197,0.0
-0.6440516797273029,0.5432192826017892,3.379254163986927,0.09876208518222994,-0.3666760569457576,-1.1028611739497594,0.0
-0.6440516797273029,0.5432192826017892,3.379254163986927,-0.05644093410763658,-0.29905932269402835,-1.0668970886983329,0.0
-0.6476191143387905,0.47349014060034844,2.872738740551004,-0.4501266413869316,-0.10822988837428832,-0.8962981189406206,0.0
-0.6725911566192027,0.4189195027544654,2.7416408322125334,-0.49807554178046787,-0.13677917331862935,-0.8188369845595181,0.0
-0.6333495007855239,0.3643488649085824,2.771435697587772,-0.554857093851656,-0.28553596851296814,-0.6952680727990292,0.0
-0.6262146315625491,0.3491903557778344,2.8608209195727645,-0.49365915438148267,-0.29905932269402835,-0.568010533449474,0.0
-0.6690237220077153,0.3582854612562832,3.045549752482472,-0.24886742728086847,-0.08193450037515403,-0.5338907394979315,0.0
-0.7189676816758563,0.3431269521255352,3.0813038412764695,-0.01858653784510476,0.01498280711202612,-0.4785613706512291,0.0
-0.7189676816758563,0.3431269521255352,3.0813038412764695,-0.04950095722724476,-0.20364461011585505,-0.33931575789523327,0.0
-0.7011305086184189,0.31280993054724565,2.997878051329994,-0.27536550543414284,-0.17810051498952745,-0.29689656311561524,0.0
-0.6868608950651525,0.31280993054724565,3.039590737683473,-0.49365915438148267,0.08485342914556863,-0.29781873126020647,0.0
-0.6975631988996149,0.2915880177641985,3.0276727080854737,-0.5365607988620068,0.3162528801915236,-0.4195433292261617,0.0
-0.7046979432299065,0.27946120382601314,2.997878051329994,-0.531513604509154,0.3906313006971762,-0.455507459466887,0.0
-0.7189676816758563,0.2552075892168163,2.991919036530995,-0.44886481201863865,0.3372892089176176,-0.49054939906837147,0.0
-0.7189676816758563,0.2491441855645171,3.0574677820804714,-0.40091591162510243,0.2531439489936013,-0.5191362291416647,0.0
-0.7510745931792435,0.20973206845815928,3.1408939892664645,-0.3964995857862765,0.23661540499452755,-0.5034595731354558,0.0
-0.7011305086184189,0.2279222794150569,3.1647300484624625,-0.2860909165542739,0.40866240295168366,-0.6187291290571673,0.0
-0.7189676816758563,0.23095397460761946,3.182607092859461,-0.12079339313340277,0.42143445051484746,-0.6795914167928203,0.0
-0.7189676816758563,0.23095397460761946,3.182607092859461,-0.025526507030476594,0.1705012839785917,-0.6777471254929363,0.0
-0.683293460453665,0.21882716730302113,3.1528120188644637,-0.10375892751204634,-0.11724545782832861,-0.6131961651789183,0.0
-0.683293460453665,0.23701737825991873,3.1647300484624625,-0.223631178495887,-0.18260829971654763,-0.5772320799274915,0.0
-0.6797260258421777,0.25217589402425367,3.2362378088109383,-0.2715800788894235,-0.042115760485807584,-0.5707769703993001,0.0
-0.6404843700084989,0.2157954721104585,3.182607092859461,-0.2595928384009995,0.06381710958286788,-0.6076632462899673,0.0
-0.6262146315625491,0.2036686648058601,3.0932218708744683,-0.25012925664916147,0.06607100194637795,-0.6805135624427624,0.0
-0.6618888527847403,0.2036686648058601,3.1647300484624625,-0.10943708271916515,-0.15781549288133007,-0.6095075375898514,0.0
-0.6511865489502779,0.20973206845815928,3.1587710336634633,0.0034951913842838312,-0.3801993928000314,-0.6205734203570515,0.0
-0.6333495007855239,0.24004908671965527,3.1528120188644637,-0.14666057199257052,-0.26525096473155724,-0.5744655979883668,0.0
-0.6404843700084989,0.2885563159380489,3.188566107658461,-0.1883004024948415,-0.256986683568627,-0.6639147607866115,0.0
-0.6333495007855239,0.2885563159380489,3.1528120188644637,-0.22678570574649984,-0.2442146360054632,-0.698034554738154,0.0
-0.6262146315625491,0.3006831232426473,3.07534482647747,-0.5125863794453182,-0.22167573069714905,-0.769040579591065,0.0
-0.6297820661740364,0.3219050360256945,3.0693858116784702,-0.6028059942451923,-0.22993999353329267,-0.7930166364253496,0.0
-0.6440516797273029,0.33100014150414325,2.9800010069329956,-0.5996514669945797,-0.11724545782832861,-0.8575675517500695,0.0
-0.6333495007855239,0.3158416323733953,2.914451844144001,-0.5851406293297293,-0.008307397941639707,-0.9451724232484299,0.0
-0.6369169353970114,0.3006831232426473,2.9263698737420003,-0.5144791081077178,0.07734045460053504,-0.9728371526610795,0.0
-0.658321418173253,0.3037148250687969,3.0276727080854737,-0.48608830129204383,0.06306581212836453,-0.9875916630173462,0.0
-0.6511865489502779,0.32493673785184407,3.1289759596684656,-0.5144791081077178,-0.03760797804963576,-0.8566454510894259,0.0
-0.6333495007855239,0.3582854612562832,3.22431977921294,-0.4274139897783766,-0.0992143280836413,-0.833591494915785,0.0
-0.6511865489502779,0.37344397204542795,3.22431977921294,-0.39208322916737076,-0.13452529011851255,-0.742298040817656,0.0
-0.658321418173253,0.37344397204542795,3.134934974467465,-0.35990699580697766,-0.18861866102578786,-0.6795914167928203,0.0
-0.6618888527847403,0.4007292905537702,3.0336317228844734,-0.3043872115439232,-0.22918870524218263,-0.5827649988164424,0.0
-0.6618888527847403,0.4007292905537702,3.0336317228844734,-0.23057113229121917,-0.20364461011585505,-0.5237470023806732,0.0
-0.6155123277280867,0.4007292905537702,2.9263698737420003,-0.1592786963850612,-0.23745296807832628,-0.5034595731354558,0.0
-0.6155123277280867,0.4007292905537702,2.9263698737420003,-0.06968996548925376,-0.1953803472797114,-0.4785613706512291,0.0
-0.6155123277280867,0.421951204580615,2.962123962535997,-0.0608572753365023,-0.15255641069980655,-0.4269205844042953,0.0
-0.6190797623395741,0.43407801354361014,2.991919036530995,-0.12899519168706758,-0.19988811367994494,-0.311651073471882,0.0
-0.6048100238936244,0.4189195027544654,2.9680829773349964,-0.20975124012514346,-0.20664979993386848,-0.2526330545414639,0.0
-0.6012425892821367,0.4158878009283158,3.0276727080854737,-0.18072951862532324,-0.146546040227173,-0.22773485205723742,0.0
-0.5941077200591619,0.4098243972760166,2.9859600217319953,-0.09871167159903413,-0.06540596553947342,-0.21482465549550397,0.0
-0.5941077200591619,0.4098243972760166,2.9859600217319953,-0.09934257089314072,-0.020328148909368262,-0.21482465549550397,0.0
-0.5655683680599455,0.39163418445342263,3.0336317228844734,-0.09618804364252805,-0.1142402680103152,-0.22496837011811277,0.0
-0.5905402854476743,0.38860248241997347,3.134934974467465,-0.15486235515619537,-0.24721982582347662,-0.19822585383935293,0.0
-0.5905402854476743,0.38860248241997347,3.123016944869466,-0.10123529955554027,-0.2006394202978416,-0.20375877272830378,0.0
-0.5655683680599455,0.38860248241997347,3.099180885673468,0.0009715672752876824,-0.17584661346262406,-0.23880071232978833,0.0
-0.5548660642254831,0.37344397204542795,3.0276727080854737,0.14797279955401932,-0.2502250156414901,-0.2812199071094063,0.0
-0.5548660642254831,0.3704122702192783,3.003837066128994,0.2533341974829699,-0.21040627804299197,-0.2793755933148729,0.0
-0.5655683680599455,0.34615865395168477,2.9323288885409995,0.2886649580939758,-0.4117538675623858,-0.21943542873451272,0.0
-0.5762706718944078,0.3704122702192783,2.866779934371764,0.19781441321991527,-0.5094224816674626,-0.19730368569476162,0.0
-0.5905402854476743,0.37344397204542795,2.8608209195727645,0.16500727287039565,-0.39823053170811196,-0.21666896929003732,0.0
-0.5905402854476743,0.39769758852032105,2.8846567701490033,0.10128571313873604,-0.1735927302625073,-0.22589053826270405,0.0
-0.5905402854476743,0.3764756738715775,2.8608209195727645,0.06153859759211025,-0.07892931055714057,-0.23142347964630414,0.0
-0.5905402854476743,0.3764756738715775,2.8608209195727645,0.12273653537899809,-0.0947065479383178,-0.263698937308664,0.0
-0.5584334988369708,0.38860248241997347,2.8369848603767664,0.22431249137318957,0.016485402021032845,-0.3365492759561086,0.0
-0.5548660642254831,0.38860248241997347,2.783353727185771,0.31263940829074377,-0.0992143280836413,-0.3245612475389665,0.0
-0.5762706718944078,0.4007292905537702,2.8429438751757656,0.42620260477335914,-0.18786737273467777,-0.321794788094491,0.0
-0.5798381065058955,0.4249829080651613,2.872738740551004,0.33282843194279266,-0.030095009231722987,-0.33193850271709974,0.0
-0.5512986296139958,0.43407801354361014,2.8965747997470026,0.15617458271764423,0.09912806245434584,-0.2987408769101485,0.0
-0.5512986296139958,0.4401414171959093,2.8310258455777673,0.03314780255943574,0.17200387888759844,-0.26738756489773075,0.0
-0.5405963257795334,0.4280146098913109,2.8608209195727645,0.046396839712317894,0.025500966893376508,-0.2922857898766064,0.0
-0.5227592776147796,0.41285609910216625,2.9442469181389987,0.08740576707297239,0.024749669438873155,-0.3042738182937488,0.0
-0.5334614565565584,0.4280146098913109,3.021713693286474,0.11768928331349585,0.1359416193982238,-0.28951930793748176,0.0
-0.5227592776147796,0.4371097153697598,3.0276727080854737,0.06784766339539619,0.11565659729002643,-0.2683097105476728,0.0
-0.5334614565565584,0.40679269462066864,2.9680829773349964,-0.028050134986982715,0.16373959772466815,-0.1917707443111616,0.0
-0.5227592776147796,0.4158878009283158,2.9680829773349964,-0.09429533037016836,0.052547656928710815,-0.13459706166992597,0.0
-0.5156244083918046,0.421951204580615,3.0276727080854737,-0.04887005023811824,0.002962057003365698,-0.02486046119097014,0.0
-0.5227592776147796,0.4158878009283158,3.015755095726993,-0.01606290988859864,-0.04361835539481431,-0.0857227742331036,0.0
-0.5120569737803169,0.40679269462066864,3.0336317228844734,0.07289491594183717,-0.07968060801164394,-0.0774233677813658,0.0
-0.5334614565565584,0.39163418445342263,3.039590737683473,0.08740576707297239,-0.06916245281199022,-0.03592633833450798,0.0
-0.5512986296139958,0.4007292905537702,2.9680829773349964,0.055229531788824324,0.025500966893376508,-0.0285490859682057,0.0
-0.5334614565565584,0.4189195027544654,2.914451844144001,-0.03120466993261535,0.09161509707270556,-0.03131555666000573,0.0
-0.5584334988369708,0.421951204580615,2.8965747997470026,-0.07978447731527818,0.237366711612424,-0.09402218068484139,0.0
-0.5477311950025084,0.43104631171746055,2.9442469181389987,-0.0425609880418729,0.21257390477720653,-0.18808211672209488,0.0
-0.5584334988369708,0.4158878009283158,2.956164947736998,0.008542447297296045,-0.03760797804963576,-0.15119587457340158,0.0
-0.5869728508361869,0.4249829080651613,2.9442469181389987,0.10570205821511176,-0.01506907016411724,-0.16595037368234383,0.0
-0.5834054162246995,0.421951204580615,2.9680829773349964,0.09434574010585421,-0.012063882350596094,-0.18070487279128605,0.0
-0.5584334988369708,0.43104631171746055,2.9382879033399996,0.06784766339539619,0.027754854675189927,-0.1631839029905438,0.0
-0.5727032372829208,0.43407801354361014,2.914451844144001,0.03188598858118269,0.0555528421650276,-0.0977108082739081,0.0
-0.6012425892821367,0.4371097153697598,2.872738740551004,-0.012277467953839476,0.005215947076027447,-0.11615393497191705,0.0
-0.5655683680599455,0.421951204580615,2.872738740551004,-0.07915356263113173,-0.2795255888769411,-0.0008843983815445357,0.0
-0.5976751546706494,0.4401414171959093,3.0276727080854737,-0.05391730615113047,-0.2660022530226673,0.06735516386358113,0.0
-0.5548660642254831,0.4431731190220589,3.0574677820804714,-0.034359197183228066,-0.20214201520684832,-0.002728711121641207,0.0
-0.5156244083918046,0.4158878009283158,2.9859600217319953,-0.03246648391086842,-0.13828176822763605,-0.04330358788897909,0.0
-0.5263265873335833,0.4189195027544654,2.902533814546002,-0.016693816877725177,-0.11799675528283199,-0.05805808980975248,0.0
-0.5405963257795334,0.4158878009283158,2.8846567701490033,0.03251689557030923,-0.12100194510084541,-0.060824554877890215,0.0
-0.5512986296139958,0.43407801354361014,2.9204108589430002,0.05838406481070198,-0.1322713977550025,-0.08664493113037028,0.0
-0.5263265873335833,0.4462048208482085,3.015755095726993,0.08109670102921708,-0.1518051132453032,-0.07834552467863246,0.0
-0.5084895391688296,0.44923652267435815,2.956164947736998,-0.022371979779863906,-0.06014688793964656,-0.05436946222068576,0.0
-0.48351749688841744,0.4431731190220589,2.9859600217319953,-0.07789174865287868,-0.13602787586412596,-0.03131555666000573,0.0
-0.45854557950068864,0.43104631171746055,3.015755095726993,-0.12016249383929617,-0.029343711777219627,-0.06174671177515687,0.0
-0.462113014112176,0.4189195027544654,2.9204108589430002,-0.16243323902571363,0.01723669947553622,-0.13183059097812597,0.0
-0.5013546699458545,0.4189195027544654,2.956164947736998,-0.17694409208060388,0.13819550259834057,-0.17609408830495268,0.0
-0.5013546699458545,0.4189195027544654,2.956164947736998,-0.24823652798676188,0.2448796678306711,-0.10785452289651695,0.0
-0.5405963257795334,0.45833163146960043,3.0097960809279933,-0.2545455824879874,0.1810194300148521,-0.09955512206844144,0.0
-0.5334614565565584,0.45226822781730125,2.9740419921339964,-0.12205520711165582,0.15472404659741448,-0.12353117890272587,0.0
-0.5512986296139958,0.4431731190220589,2.956164947736998,-0.0905098884354092,0.08184823932755521,-0.10785452289651695,0.0
-0.5798381065058955,0.45529992964345084,2.9680829773349964,0.02431511048292932,0.06156321721935781,-0.10508806345204152,0.0
-0.6262146315625491,0.46439503512189967,2.914451844144001,0.11264203124799359,0.12993123976219692,-0.06174671177515687,0.0
-0.5976751546706494,0.46439503512189967,2.908492829345002,0.17951812592528582,0.054050251837717535,0.0028042266593001947,0.0
-0.5584334988369708,0.45529992964345084,2.956164947736998,0.16500727287039565,-0.04361835539481431,-0.009183805184761222,0.0
-0.5584334988369708,0.45226822781730125,2.9680829773349964,0.13472376047738213,-0.1412869580456495,0.021247352742221077,0.0
-0.5762706718944078,0.45833163146960043,2.9442469181389987,0.13346194649912912,-0.18185699309865092,0.0645886987954434,0.0
-0.5762706718944078,0.47349014060034844,2.914451844144001,0.172578156739914,-0.1503025183362965,0.08487613366432341,0.0
-0.5941077200591619,0.4795535442526476,2.8489028899747657,0.14734189256489277,-0.07517282786632044,0.11069651554046576,0.0
-0.5976751546706494,0.48864864973109645,2.8608209195727645,0.08929848611659696,0.04954246711069738,0.17709176715436814,0.0
-0.5834054162246995,0.4795535442526476,2.914451844144001,0.011066071406292188,0.1599831196155447,0.15864864045635918,0.0
-0.5691358026714332,0.47652184242649803,2.9263698737420003,-0.06968996548925376,0.26215950012085515,0.166025884387168,0.0
-0.5655683680599455,0.45529992964345084,2.9442469181389987,-0.052024585183750874,0.26892118637477863,0.18170254039337688,0.0
-0.5798381065058955,0.4462048208482085,2.8846567701490033,0.07289491594183717,0.31925807000953704,0.2019899921332438,0.0
-0.5762706718944078,0.4249829080651613,2.878697755350004,0.16689999383777523,0.33503530739071435,0.22873250841200365,0.0
-0.6048100238936244,0.4280146098913109,2.854861904773765,0.1681618078160283,0.24938745255769137,0.2766846445752216,0.0
-0.6012425892821367,0.4280146098913109,2.914451844144001,0.183303567860045,0.32752235117246725,0.37258889440700854,0.0
-0.6012425892821367,0.4007292905537702,2.6939687138205373,0.09623845914947882,0.1885324045598857,0.4961578286621466,0.0
-0.5405963257795334,0.4249829080651613,2.8429438751757656,0.3006521831923597,0.17651164528783195,0.49062490977319567,0.0
-0.6012425892821367,0.4007292905537702,2.908492829345002,0.3643737352289994,0.6175229670161111,0.49892431060127135,0.0
-0.6690237220077153,0.32796843967799366,2.7475998470115326,0.34355384306292364,-0.2885411583309814,0.9360263874752366,0.0
-0.6440516797273029,0.29461971959034805,2.658214833646299,-0.009122940703226773,-2.286990994474133,1.7309251155421808,0.0
-0.4478432756662262,0.3097782287210961,2.902533814546002,-0.301863583587417,-1.8091662165993028,1.8784700391476554,0.0
-0.3229833140495317,0.2643027013288521,3.111098915271467,-0.22426207778999366,0.6317976278150684,0.796780819708539,0.0
-0.4121689295513514,0.2036686648058601,2.705886743418536,-0.9643155066391939,1.0833270589260344,0.9775234366049125,0.0
-0.5548660642254831,0.17638334173692677,2.4913626278940715,-1.7220342696237774,0.23060502535850055,1.1988409119917216,0.0
-0.708265377841394,0.12181270886623391,2.3721827491535996,-2.3232882839854616,-1.7235183984198528,2.213212914124187,0.0
-0.8152882912933345,0.21882716730302113,2.521157701889069,-3.304978789564344,-2.180306957529309,3.3649859227876755,0.0
-0.8188556010121384,0.2248905709553203,2.658214833646299,-3.778789607512508,-1.1900974806242672,3.9966630262536373,0.0
-0.6012425892821367,0.1278760992513591,2.866779934371764,-3.493619802327715,-0.9241384199783041,4.465118595097213,0.0
-0.3836295775521353,-0.04189920301301854,2.956164947736998,-2.5750198417610886,-1.7062385844564556,4.4199327834105775,0.0
-0.3800621429406476,-0.12678685414520732,2.6462968040483,-1.6967980516188756,-2.2584418194905123,4.456818969322645,0.0
-0.6333495007855239,-0.047962619932491596,2.401977614528838,-1.2330816223764165,-1.6852022190767881,5.200999191760495,0.0
-0.6476191143387905,0.07936887003296564,2.253002661793369,-0.8703104345145207,-0.4846296748322452,5.888927674755206,0.0
-0.6476191143387905,0.07936887003296564,2.253002661793369,0.43945164384999635,1.5153228478538467,7.11539569577506,0.0
-0.40503418522106005,-0.07524791646707694,2.8965747997470026,1.200324995645352,1.480763219927052,6.8175391866677915,0.0
-0.3229833140495317,-0.15710388567387715,2.759517876609532,1.7410119390508887,0.39138258898828626,6.829527215084935,0.0
-0.3229833140495317,-0.15710388567387715,2.759517876609532,1.6230323859493676,0.026252264347879858,6.812005862875157,0.0
-0.47281519305395475,-0.10556494799574695,2.37814155533284,0.930296958199597,0.28469840542916924,7.025946173062429,0.0
-0.4870849314999048,-0.10253323953601039,2.324510630761603,-0.21984572117108817,0.8444146699886194,7.125539522870915,0.0
-0.4906523661113922,-0.1904526256622839,2.401977614528838,-0.834348713049249,0.8128601952262647,6.79356312983351,0.0
-0.28730909282734046,-0.4481472609842387,2.8429438751757656,-0.4242594625277638,1.196772947065862,5.606747956622042,0.0
-0.28374165821585284,-0.5603202617197088,3.498434042727399,0.9429150672020479,0.5694399665814694,4.833980814132307,0.0
-0.3550901006602355,-0.5815422209378651,3.9334412885753274,2.785162367368635,0.8308913341343456,4.126687137520916,0.0
-0.5584334988369708,-0.5967006570991561,3.8678921257863346,4.042559157940633,1.8195980878428744,3.5982914265916284,0.0
-0.6083774585051117,-0.787697865512994,3.3673361343889288,4.455172036418624,3.6955866130064514,3.698806517146371,0.0
-0.957985301074783,-0.884712323949781,3.0693858116784702,4.484193465507686,4.156131723532176,5.053454088197827,0.0
-1.4181834292615405,-0.7149370747540994,3.099180885673468,3.662122297362474,6.262017031525558,7.176257938521415,0.0
-1.5394759250435766,-0.31778411562774084,3.2421968236099383,1.7466900019177682,8.839716811064886,9.080510975354514,0.0
-1.7677912562196259,-0.6239860332367854,3.099180885673468,-1.424246355436535,7.462589282541514,10.561493895116284,0.0
-1.564447904877647,-0.7513174701335467,3.111098915271467,-1.825502985060448,6.342405648399369,11.62289582027808,0.0
-1.5537456322663552,-0.5967006570991561,3.003837066128994,-1.2463307230132132,6.289063849848398,12.138381042215194,0.0
-1.7000101391056333,-0.48755941789211854,2.7893127419847703,-0.8009107118807224,5.759399190240495,11.915219005592709,0.0
-1.846274653750703,-0.48755941789211854,2.586706656058305,-0.90501029583142,4.248541246292337,11.442152573531526,0.0
-1.9176231937674946,-0.6482395947772863,2.521157701889069,-1.2021672183843164,2.370298819601857,11.726176852900366,0.0
-1.9996740161528184,-0.702810240915153,2.550952775884067,-1.239390799997961,0.9954253392196815,12.396585063428457,0.0
-2.0424831436754998,-0.6573347201564962,2.676091669423539,-0.7188928186843139,0.504828403820967,12.902847839101586,0.0
-2.156640801457732,-0.49968619866236885,2.8310258455777673,-0.2734727767717433,1.136669150705593,12.386441236332605,0.0
-2.4313327045251913,-0.45724238636344855,3.0813038412764695,-0.023633786063097028,1.3763329378948383,11.555578153078445,0.0
-2.8950982361002655,-0.5087813240415787,3.1647300484624625,-0.37378693417772146,0.7903212532643774,10.25810406221638,0.0
-3.1091438756651213,-0.4299570632945153,3.099180885673468,-1.0255134461093673,-0.4981530106865188,8.917289080817742,0.0
-3.46231915284628,-0.48755941789211854,3.0693858116784702,-0.8955466525194224,-2.3531052437775757,8.04216300636636,0.0
-3.6228533356851655,-0.4724008755934356,2.872738740551004,-0.8431814262870603,-4.585959849072202,7.20576659931956,0.0
-3.5051282432914457,-0.4057034486853184,2.8131488011807684,-0.9220447306726968,-7.401069221045287,6.089957855864691,0.0
-3.2054643603899162,-0.24199156334041405,3.420966850340406,-1.2444379943508137,-7.362001790064688,4.870867359958765,0.0
-3.1911946219439664,-0.10556494799574695,3.60569630910939,-2.3125627805250906,-6.27938308362807,4.407022654332791,0.0
-3.030660439105081,-0.0631211356968266,3.659327025060868,-2.8179189940997014,-7.295136289123708,3.067129413680408,0.0
-2.86299138704322,-0.06918449954760382,3.552065175918395,-3.450718280967511,-5.202023138654212,2.422542361093854,0.0
-2.8522890832087575,-0.15104046875440405,3.444802909536404,-3.4399927775071415,-3.5604394926028275,2.8310576078945258,0.0
-2.8701261938198535,-0.15710388567387715,3.504393057526399,-3.0418908598143184,-4.307228484288064,3.2017643881652895,0.0
-2.78450795048318,-0.1419453964438902,3.5282291167223963,-3.2229609579280956,-5.792542699645626,2.13298529780396,0.0
-2.5740297455298107,-0.10859665645548344,4.273104297639265,-2.5914234080883385,-6.562621958237431,0.9074395574019434,0.0
-2.5347880896961317,-0.1298185626049439,4.255227253242263,-1.1819781947322676,-5.688863522636656,0.6796669274976448,0.0
-2.52408578586167,-0.14497705183493098,4.070498211712799,-1.360524818789935,-4.688136229577514,2.1541948726991196,0.0
-2.606136594586856,-0.047962619932491596,3.9215232589773295,-2.7699700321460066,-4.477772869009426,3.737537264294115,0.0
-2.5704623733646645,0.015703125050237052,3.951318332972328,-3.5882559892070542,-4.964613546220455,3.828830628413647,0.0
-2.413495562690925,0.07936887003296564,3.8678921257863346,-4.056388498047701,-4.913525209353507,3.1012492976105475,0.0
-2.1780453622919005,-0.0024870726394865907,3.379254163986927,-4.5068559497736835,-4.5709339366357105,2.512913624552742,0.0
-2.099561972566616,-0.17832579182333755,3.0693858116784702,-4.0967667915924375,-4.5867111007097385,1.6737514553955943,0.0
-2.0638877045096686,-0.15104046875440405,3.1408939892664645,-3.4589200641311346,-4.5521514727829455,-0.29320793552654845,0.0
-1.9069209133504104,-0.12072343722573409,3.182607092859461,-3.7472444581267004,-3.1186768459298677,-2.2297362050755143,0.0
-1.835572373333619,-0.36022792792666125,3.6116549066688717,-2.4841693584471867,-1.9579229843034613,-3.388886738852927,0.0
-1.8070329588880611,-0.6512713032370228,3.266032882805936,-1.9321261661875717,-1.6919639236574984,-2.9969702037298087,0.0
-1.7178472809398992,-0.80891982473115,3.2541148532079376,-2.2034158791012217,-0.889578718744363,-2.5478800084601043,0.0
-1.9033534865447157,-0.8119515331908864,3.498434042727399,-1.2292962881719365,-0.12250453084645882,-2.265700290326941,0.0
-1.6607684520487833,-0.9392829700876478,3.283909927202935,-0.9157356761714713,0.526616020838171,-1.612813611965819,0.0
-1.4609925197067064,-1.0726779300412739,2.765476891408531,-1.3744047879407586,1.5927064581775128,-1.0779629264762347,0.0
-1.3468348619244743,-1.0726779300412739,2.360264719555601,-1.824871993426102,1.5115662964375767,-0.6989567003880961,0.0
-1.2683514878107751,-1.102994908501248,2.151699618830136,-4.206544315289696,0.3560716361168084,-0.5569446506822737,0.0
-1.2148400935311467,-1.096931491581775,2.8489028899747657,-5.806523393191855,2.3364904433125995,-1.2291965226600745,0.0
-1.4681273889296815,-1.269738555374585,2.819107815979768,-6.599572886007367,5.678259321729147,-2.4879398663743935,0.0
-1.453857681706902,-1.2970238253748225,2.759517876609532,-5.331450838215639,9.10267071854641,-3.7356174622894067,0.0
-1.4360205398726356,-1.3485627630529526,2.1755356780261335,-4.6437627894992,9.014768998840054,-3.9698450667540035,0.0
-1.45742511631839,-1.4880210337886604,1.5200453018547415,-5.5264010286005565,5.530253952276817,-3.8020126689140126,0.0
-1.4181834292615405,-1.4001017007310828,1.1923003223888042,-7.275904808990046,2.545350860762734,-4.291677632695555,0.0
-1.5002342379867268,-1.633542827581233,1.6273073596169736,-9.422249016284942,5.117040333973184,-5.910061828924139,0.0
-1.5466107942665512,-1.633542827581233,1.6511434188129714,-10.872072523185748,8.56549354256314,-5.542121350635307,0.0
-1.4752622269294855,-1.6456696614201793,0.6798259884637612,-12.247448620618623,11.253633763849272,-3.300359676715326,0.0
-1.6322290376032254,-1.854857120592438,-0.8695145213599675,-13.850582533572195,-4.874457778372907,-4.771198769381244,0.0
-1.414615994650053,-1.5062112845470799,-0.05313121501004618,-12.17994125728627,-8.841305405864782,-6.076049665528454,0.0
-1.186300679085589,-1.6062574514436034,0.13159782651942084,-10.075236834323524,-5.742957159282338,-7.882554273703129,0.0
-0.9365807558521999,-1.733588994477757,-0.3034093150186281,-8.860111189078985,-3.510853659010955,-9.327573108213473,0.0
-1.0007944539662907,-1.648701369879916,-1.483291741783424,-9.472090091299442,-4.735467721799606,-9.025106095802986,0.0
-0.9044739067951543,-1.6274794106617594,-1.9123399206774128,-12.005180336794039,-4.7332139668869955,-8.11032681362883,0.0
-1.1648960714166638,-1.5547186199028653,-2.1983720051701123,-13.720615739982252,-3.7272273259079225,-6.928122503634971,0.0
-0.9686876049092452,-1.2060727838575085,-2.2341259896542303,-12.22852158023527,-0.5755365843566117,-7.176182697752382,0.0
-1.0685755866918694,-1.0302341177423535,-2.78235420375351,-10.514347914075108,0.5731964446905927,-5.590995924878906,0.0
-0.7796139451784598,-0.8968391577887272,-3.640450457231609,-9.065787129164908,1.617499228359157,-2.6013650860069224,0.0
-0.4478432756662262,-0.672493262455179,-4.349571757974238,-7.878420683500101,1.6843645826858429,0.5902177646994001,0.0
-0.5227592776147796,-0.2541183441106643,-4.164842716444771,-4.82041631553351,0.6423157371977555,1.9374880805727228,0.0
-0.7938836836244098,-0.014613879944085095,-4.5938909474936995,-2.1409562026029936,-2.38090316712366,2.21229063350635,0.0
-0.5584334988369708,-0.09343816722549661,-4.862045778969642,-1.03056064046222,-2.377146762321683,2.3017397963045947,0.0
-0.45854557950068864,-0.20864282335200732,-5.1719141312781,-0.9144738775832582,0.4650096845492556,2.112697823569444,0.0
-0.4407084064432512,-0.17832579182333755,-5.350684158008564,-0.5245736199337423,0.9939227626374614,1.4524338900301887,0.0
-0.5941077200591619,-0.1722623749038643,-5.279175980420572,-0.3201598785770663,-0.43654667439760336,1.40448177636162,0.0
-0.4371409718317636,-0.2783719587198611,-5.100405953690102,0.41547719365322816,-0.9384130074701148,1.862793428130745,0.0
-0.30514614099209425,-0.4390521886737249,-5.136160042484102,0.41484626357904175,-2.7858521377286327,2.280530221409435,0.0
-0.41930379877432644,-0.40873515714505493,-4.766701959425168,0.7694157606175518,-3.326034613490635,3.376973951204819,0.0
-0.6761585912306903,-0.45421067790371195,-4.44491599475823,1.7858061890734933,-3.553677641407824,3.943177948706819,0.0
-0.9187436452411042,-0.5178764494207886,-4.027785584687541,1.8747640668453136,-3.3808795017738533,4.802627592098483,0.0
-0.9187436452411042,-0.5178764494207886,-4.027785584687541,1.7839135835314126,-2.2832345896721566,4.32218435475215,0.0
-1.229109769530755,-0.3814498340761214,-3.700040605221604,-3.1163377768009703,5.086988509100194,2.1412845636641404,0.0
-1.4074811254270778,-0.272308541800388,-3.4855164896971393,-3.8822584460694975,2.3995993928373087,0.09963063277326564,0.0
-1.2184074656962922,-0.31172069870826785,-3.163730316410443,-3.3352624481627355,1.88721484042139,3.6351779724180835,0.0
-1.2184074656962922,-0.31172069870826785,-3.163730316410443,-1.2456998544991862,1.9878885710373337,3.689585150625545,0.0
-0.8117208566818471,-0.545161719421026,-3.1577713016114433,-0.024895600041350083,0.9796481018385041,3.007189451551891,0.0
-0.6476191143387905,-0.711905366294363,-3.8013436481848366,-0.33593254561020963,-1.6250984227165195,1.1361342879668859,0.0
-0.6476191143387905,-0.711905366294363,-3.8013436481848366,0.29623584196349406,-1.128491180988925,0.9046730754628187,0.0
-0.9294458866292248,-0.5724470955586553,-4.099293762275535,1.263415663777925,0.2230920691402536,1.243104443060522,0.0
-1.107817242525548,-0.45421067790371195,-4.2184738496357665,1.2268230737986263,-0.6559253844982914,1.3371643790977756,0.0
-1.107817242525548,-0.45421067790371195,-4.2184738496357665,1.7580463738921652,0.290708785065196,1.5953680403966544,0.0
-1.0471709790229442,-0.4390521886737249,-4.164842716444771,1.3473262240765738,-0.43354148457959013,0.5616309346261067,0.0
-1.1149521117485226,-0.2480549271911912,-4.546218829101704,0.49623322670126424,-1.8685186147077415,-1.1130049110670177,0.0
-1.1149521117485226,-0.2480549271911912,-4.546218829101704,0.6400798971017934,-1.017299194376001,-2.57370044657287,0.0
-1.1755983752511263,-0.12678685414520732,-4.391284861567235,1.0425983253139197,-0.314085253457309,-3.522599252762779,0.0
-0.7439397239562685,-0.966568346225277,-4.75478392982717,0.637556299925367,0.9015132398773013,-2.7101796223790395,0.0
-0.7439397239562685,-0.966568346225277,-4.75478392982717,0.5637402206726629,1.1855034394313448,-0.7303100124005139,0.0
-0.9900921501318284,-0.8180149501103597,-4.689234767038174,0.14040191568450097,1.2764104589164313,-0.6076632462899673,0.0
-1.129221787748131,-0.5330348855820795,-4.516423755106707,-0.25076015594326806,0.9082748711508651,-1.9955084206537257,0.0
-1.0221989991888738,-0.4451155525245022,-4.4032028911652334,0.13724738843388828,2.3710500712393943,-4.133988702037029,0.0
-0.7368048547332938,-0.6239860332367854,-4.1350476424497735,-0.14098241678545162,2.418381710075779,-3.8868509684946515,0.0
-0.829557904846601,-0.6755249709149155,-4.2184738496357665,-0.06338090329300841,1.7812819084998097,-1.827676022813735,0.0
-0.8438276432925508,-0.63611276093834,-3.9741546601163047,-0.04950095722724476,1.8481474094407886,-1.6561548624167821,0.0
-0.9116087760181293,-0.45724238636344855,-3.9860726897143035,-0.0785226633370251,1.6002194143957598,-2.445520716584074,0.0
-0.7617767721210223,-0.34203773023693784,-3.8430565431580743,0.6312472454241417,1.9548315929999058,-4.904911643205482,0.0
-0.3907644467751103,-0.43602048021398826,-4.075457703079537,-0.06401181028213496,-0.38620977243605825,-6.190397345736017,0.0
-0.35865753527172284,-0.6179226163173124,-4.349571757974238,-0.8646322485273222,-2.8467073323407304,-6.889392116401613,0.0
-0.6761585912306903,-0.5027179071221055,-4.164842716444771,-0.8475977521258862,-1.3997092963262314,-5.426851929681488,0.0
-0.9793899087437077,-0.21167453181174406,-4.03970361428554,-0.8854521406933981,0.3440508768447546,-3.817689099973727,0.0
-1.004361888577778,-0.07827962492681369,-4.1350476424497735,-1.0608441759402933,1.4649859092387283,-4.152432154907454,0.0
-1.1006823733025728,0.17031993808462753,-3.8907286615500705,0.7107414798839643,4.071986262013508,-4.812695818510918,0.0
-0.8830692991262297,-0.09343816722549661,-3.956277615719306,5.146645296219223,2.226049708337212,-1.6524662798170138,0.0
-0.4977872353343672,-0.3511328025474514,-3.908605705947069,2.549834129679622,1.1855034394313448,-6.865416059567329,0.0
-0.0732633908161428,-0.15710388567387715,-3.831138513560075,1.1895994921849817,3.1035645487399646,-5.886085772089854,0.0
-0.3479552314372605,-0.1601355941336139,-4.289981609984243,-0.5990205984805527,2.1712051132825803,-8.553883865063092,0.0
-0.1981233524328371,-0.020677296863558153,-3.8430565431580743,0.4773060324175082,2.9833569560194273,-10.386208731393337,0.0
-0.28730909282734046,0.23701737825991873,-3.6106555918563705,2.639422875965468,3.21776183513162,-8.944878299525568,0.0
-0.28730909282734046,0.21882716730302113,-3.5868195326603725,3.0413102509830896,7.190619768952377,-8.691285501444293,0.0
-0.14817939276469616,0.32796843967799366,-3.5629834734643744,-0.0886171597730097,4.139603014592025,-4.384815198136374,0.0
0.4047718479817104,-0.1722623749038643,-5.291094010018571,-1.4658862628890053,2.8293412802382174,2.8614887292677036,0.0
0.6366545981576621,-0.06008942723709004,-3.61661460665537,-0.6621112666131256,3.594912735776215,0.5394991690917066,0.0
-0.05542621775870541,0.18244674538922592,-3.163730316410443,0.24323968565694545,2.6279935257777427,-1.224585749421066,0.0
0.07656848818828056,0.17031993808462753,-2.973042260081977,0.790235714343787,2.1479148463760094,-3.5253655547447087,0.0
0.11224283430315536,0.13090780771109561,-2.824067307346507,0.5933928568566297,1.6460485499570714,-4.3156536895298405,0.0
0.5153620711524547,0.07027377118810377,-2.3473470622154613,1.6242941229774213,5.724088603904749,-3.6590784285689493,0.0
0.3976369787587351,0.2279222794150569,-2.7346822939812734,0.32399571870498145,5.008102395501456,0.22227742137846157,0.0
0.4226090210391481,0.4462048208482085,-3.235238285378678,0.08235851500747014,4.589630015735064,-0.44351943104974473,0.0
0.24067010563865368,0.3582854612562832,-2.543994237652807,0.2766777329955917,3.9082037284871487,-1.980753910297459,0.0
0.29061419019947826,0.26127099286911554,-2.65721510159428,-0.3712633062212153,1.2275760235763866,-2.664071710031758,0.0
0.58314307898535,0.15212971386055602,-2.09110994740788,-0.17568227810235082,1.3012032290980757,-3.2533296637073996,0.0
0.47255285581460515,0.40376099279451905,-2.4605680304668134,-0.21101303871335664,0.8744664948616071,-4.683594167818672,0.0
0.5795756443738623,0.6523605483431748,-2.36522410661246,-0.23624928749833787,1.262887049755011,-5.942337151618606,0.0
0.8614024791106375,0.7887871636878416,-2.305634062932344,-0.03688282513973416,2.0216969473265918,-5.685055590980366,0.0
0.3334231557519608,1.1738133155096018,-2.442691194689574,0.5422893984324009,3.4611820271228444,-5.320803875248497,0.0
0.20142857469765846,0.45226822781730125,-2.5022811340598103,-0.12205520711165582,1.6235095346880375,0.07473241904171456,0.0
0.5224969403754303,0.7705969394637702,-2.055355962923762,-0.043191895030999426,1.1697262020501678,-0.6196512747071095,0.0
0.38693467492427275,1.0464818255441446,-2.0315199037277645,-0.851383209450685,1.961593150966323,-3.337245862627395,0.0
-0.3229833140495317,0.8342626844464988,-2.514199163657809,-10.61718588411807,4.55356759130461,-8.185943386774259,0.0
0.16575422858278396,0.4795535442526476,-1.0780796220854327,2.5851649826308654,0.3365379206265075,-6.953942761790543,0.0
1.0148019176192338,0.5432192826017892,-1.3045216628980165,-0.8658940471155355,2.5152990358897447,-1.148046805679204,0.0
1.510674079689157,0.6887409967913178,-1.7395288044360653,0.17699449796877975,0.6302949779257017,0.8382777788596179,0.0
0.8685373483336151,0.8403260748316239,-1.6203488213857138,0.3631119366407862,-0.0323489004498089,0.0821096685961857,0.0
0.5688733405394,0.7887871636878416,-1.5309638080204797,0.21863433616607073,-0.5312100620310936,-0.2802977614594642,0.0
0.6045476866542753,0.7887871636878416,-1.769323878431063,0.2053852970894336,-1.040589387975425,-0.7441423771068386,0.0
0.5653061557132792,0.9039918463487004,-1.8050778629151802,0.10317843025860567,-0.8760553828900892,-0.7764178347691986,0.0
0.6330871635461748,0.8585162725213474,-1.9838478896456475,0.3221030054326217,-0.98950119772277,2.0001947045975585,0.0
0.8257281329957638,0.9221820440384241,-2.079191917809881,0.7422868139502509,-1.2006156633141007,4.434687473724037,0.0
0.9541555292239446,0.8160724602224272,-1.8885038614814145,0.8060083505968506,-1.5837770902090147,5.16503510650907,0.0
0.9612903984469217,0.6462971579580497,-1.5845948369015963,0.659007122165629,-0.9879986211405499,7.4381503623772565,0.0
0.27277701714204083,0.6099167360442544,-1.7812419080290622,0.08235851500747014,-1.6987254816239155,7.442760865680476,0.0
-0.529894021945071,1.0677037316936049,-1.519045778422481,-0.22741660504060643,0.06607100194637795,1.1444337337842596,0.0
-0.48351749688841744,1.2223205447279955,-1.9898069044446474,0.018006044439174015,-0.3456397282196636,-3.7678927849838733,0.0
-0.06612852159316779,0.9676575647970813,-2.103027977005879,0.021791482526423205,-0.007556100487136348,-3.7134856067764117,0.0
0.4047718479817104,0.8039456529178287,-2.2162490495671103,-0.10943708271916515,-1.5191656374092322,-4.201306369236664,0.0
1.3572748909659296,0.5553460899063877,-1.7633648636320631,-0.43119944710317565,1.4371879858926437,-0.5855314807555667,0.0
1.2894936333476656,0.8736748148200305,-2.299675048133345,0.4060135811213103,0.9233008568945054,0.3467685237781909,0.0
0.9398857907779963,0.7372482260097116,-2.162618020685995,0.40979903844610943,0.9323163896949725,1.3980267118227272,0.0
0.7686494289973304,0.8100090698373019,-2.1387819614899968,0.6028564386084676,1.259130498338741,2.122841470708105,0.0
0.4654179865916307,0.6523605483431748,-1.757405848833064,0.2609050659624484,1.381591992586182,2.2316560070802223,0.0
0.47968772503758045,0.3006831232426473,-1.453496719943366,0.05775315830251419,0.6888961977037503,4.226280127415015,0.0
0.6081151212657621,0.14000290655595757,-1.185341627692725,0.025576924461182374,0.2809419273200457,5.617813884378544,0.0
-0.030454300370976607,0.5644412020184235,-0.9171865354420842,1.6274487117881935,4.216986624915689,10.983841191698193,0.0
0.3369905903634485,0.9949428878660144,-2.800231248150509,0.04513502765781983,0.018739292093694605,4.17371715052884,0.0
0.012354790074189595,0.7554384236994353,-1.8527498769972974,0.023684203493802798,-2.2238820449494243,-1.790789656944471,0.0
-0.14817939276469616,0.41285609910216625,-1.5845948369015963,0.5687874765856753,1.9375517790365084,3.423081863552099,0.0
0.31558623247989065,0.6796458714121083,-1.7514468340340645,0.4413443417323161,1.832370098752465,5.809622339052814,0.0
0.6259522943232007,0.5007754570356948,-1.7931598333171814,1.1877067635225822,3.7376593437657877,5.045154822337649,0.0
0.9184814328944371,0.506838860687994,-1.4415787425003064,0.9744604012683343,3.131362618700342,6.140676271515193,0.0
1.2217126255147717,-0.06008942723709004,-0.9946535713642586,1.132818001673953,1.8391318033331752,4.148818993033911,0.0
1.2894936333476656,0.08846396887782741,-1.1019156291264907,-0.038775546107113756,1.2756590606646014,2.3782788300250535,0.0
1.3180331102395662,0.15819313078002908,-1.1793826128937257,0.039456868603191045,0.6370566825064117,0.5247447037247382,0.0
0.9791275715043573,-0.13891368798415368,-1.1555466058526673,0.22431249137318957,-0.7596043415858216,0.5192117398464887,0.0
0.8649699137221271,-0.17832579182333755,-1.477332726984424,-0.11259160996977785,-1.283258255021964,0.49431353736226247,0.0
0.6616266404380743,-0.07827962492681369,-1.3700707213771313,-0.2810436606412616,-1.7325338579131733,0.05444497854917226,0.0
0.3976369787587351,-0.11466007337495675,-1.0006125600857882,0.1429255436410071,-0.3215982280023427,-0.5929087359337004,0.0
0.6758963788840261,-0.1298185626049439,-1.4415787425003064,-0.2122748680816496,-0.010561288587013535,-0.8096154380815007,0.0
0.8435653060532018,-0.0661528441565631,-1.4952097713814225,0.2148488942313116,-0.5612619602112279,-1.579616008653517,0.0
0.7329750828824567,-0.12072343722573409,-1.4594557347423653,-0.30691083950042936,-1.327584887308202,-2.807005950376821,0.0
1.1789034101769227,0.11271761002137197,-1.2687676784138988,0.17699449796877975,-0.49589910915961566,-4.463198793092509,0.0
0.7472448213284073,0.10059077618242585,-1.5667177925045972,0.023684203493802798,-0.9015994780164167,-4.880013125796165,0.0
-0.09110056387357993,0.3037148250687969,-1.965970949558529,0.06910947641177173,-0.6055884825367462,-4.175485751166708,0.0
-0.016184561925026573,0.24004908671965527,-1.5667177925045972,-0.3006017849992038,-0.548489912648064,-2.6068980498851717,0.0
0.2192654979697289,0.29765142141649775,-1.2270546791307817,-0.3378252742726092,0.5927301601808935,-1.538118959523841,0.0
0.4226090210391481,0.521997376452329,-1.6203488213857138,-0.3201598785770663,0.21107130986819986,-1.4578913432036138,0.0
0.4226090210391481,0.4977437552095452,-1.322398707295015,-0.3782032907966271,1.6978879918472634,-1.6072806480875697,0.0
0.46898542120311804,0.3795073756977271,-1.2568496488159,-0.0072302197358471935,1.9901424725642372,-2.5275925342255885,0.0
0.8292955676072512,0.2248905709553203,-1.2806856558569581,0.19592169994755562,1.162964570776604,-2.713868204978808,0.0
0.8899419560025376,0.3613171630824328,-1.4713737643403642,0.05775315830251419,0.5994918281080304,-1.8221430589354857,0.0
0.7008681713790698,0.4401414171959093,-1.364111706578132,0.2577505387118356,0.7918238298465975,-1.7419154426152585,0.0
0.7008681713790698,0.4401414171959093,-1.364111706578132,0.18141084689266543,0.9909175361658746,-1.2826816002068926,0.0
0.47255285581460515,0.47349014060034844,-1.3939067284181899,0.1990762271981683,0.8631970605342366,-1.0705856712981014,0.0
0.20856344392063347,0.5038071588618445,-1.4713737643403642,-0.3725251355895082,1.902240752857884,-1.2817594995462491,0.0
0.20856344392063347,0.5038071588618445,-1.4713737643403642,-0.6589566778023536,3.000636916597116,-2.3662152009244903,0.0
0.7936214712777436,0.6372020591131876,-0.9350635537616128,-0.3826196166354529,0.9909175361658746,-1.6847417824686721,0.0
0.8863745213910508,0.6372020591131876,-0.7860884967162636,-0.38829777184257186,-0.20364461011585505,-0.5956752178728251,0.0
0.8863745213910508,0.6372020591131876,-0.7860884967162636,-0.0659045235544946,-1.5259271953756492,0.1798582378461682,0.0
0.686598432933121,0.5856631081678836,-1.0065715748847877,-0.05013186421637131,-1.4928702173382213,0.11069651554046576,0.0
0.5474689826558424,0.5886948166276202,-0.97677655304473,-0.0015520568337084521,-1.92261210473913,0.18170254039337688,0.0
0.5474689826558424,0.5886948166276202,-0.97677655304473,0.4918168700823586,-1.427507366286609,0.2195109619339861,0.0
0.6509243366036105,0.6705507725672464,-1.364111706578132,0.3586955800218807,0.39964683349764313,0.2674630756025549,0.0
0.9006442598370014,0.5856631081678836,-1.8289139221111785,0.7593212487915274,3.510767567486132,0.24717564635733721,0.0
0.9006442598370014,0.5856631081678836,-1.8289139221111785,0.7820338696200027,3.0239271835036874,-0.22865699770717948,0.0
0.4404461940965849,0.6584239652626481,-0.6549904482113917,0.19213625801279646,0.0653197044918746,0.3384691229501153,0.0
0.5010923327065049,0.6372020591131876,-0.7384164826341469,0.17131634276166094,-0.320095633093336,0.2637744480134882,0.0
0.5010923327065049,0.6372020591131876,-0.7384164826341469,-0.0677972522168941,-1.0000193804126036,0.01848088345633662,0.0
0.6081151212657621,0.5644412020184235,-1.185341627692725,-0.027419227997856174,-0.00980999170522226,0.256397215330004,0.0
0.6366545981576621,0.5644412020184235,-1.1555466058526673,-0.37567966284012105,0.7061760116671476,-0.07557905961049474,0.0
0.7793517328317942,0.5492826862540884,-1.5845948369015963,-0.43877030019261426,2.1283811308857086,-0.05160299152888574,0.0
0.6937333021560951,0.5310924752971908,-1.1734236502496658,-0.11700796658868347,1.4146489706236098,-0.15119587457340158,0.0
0.5724407751508875,0.5341241837569274,-0.8218425072778509,0.08109670102921708,0.9676273425664506,-0.057135932912485796,0.0
0.6330871635461748,0.5401875874092266,-0.9469815572821421,0.1454491715975132,1.2245708704119465,0.023091665130838858,0.0
0.53676667882138,0.6311386421937146,-0.9469815572821421,0.7328231706382533,3.0073984745635345,0.8751640547502851,0.0
0.4440136287080723,0.5917265250873569,-0.8873915396794962,0.2703686784943662,2.530324948326239,1.329787123919642,0.0
0.4654179865916307,0.5007754570356948,-0.4881383826255649,0.42809530265567897,1.2576279950636675,1.3399308610368998,0.0
1.0825829254521289,0.4280146098913109,-0.5834824205688494,-0.12899519168706758,-0.10221951790165472,0.21121153861126138,0.0
0.4939574634835299,0.47652184242649803,-0.3034093150186281,0.22494340605733598,-0.8024282506755466,0.3458463556335996,0.0
0.2049960093091461,0.47045843877419885,-0.44642537030371293,0.2804631749303507,-1.1547865277527893,0.2047564515777192,0.0
0.2620747133075785,0.567472897210986,-0.7205394708339858,0.03504052160306035,-0.4846296748322452,0.6095830482946756,0.0
0.3227211017028654,0.6432654494983131,-0.7145804690737211,0.1681618078160283,-0.17509532517151402,0.5902177646994001,0.0
0.7864866020547683,0.49471205338339563,-0.8754735361589671,0.25081056952646374,0.20581223685006966,-0.4804056619511133,0.0
0.7686494289973304,0.5432192826017892,-0.7562934879149407,-0.14666057199257052,0.20656352514117965,-0.13644137546445936,0.0
0.8614024791106375,0.5007754570356948,-0.7980065002367926,0.18141084689266543,0.2892061901561892,0.3467685237781909,0.0
0.5260643749869174,0.49471205338339563,-0.792047498476528,0.007911540308169526,0.5446471597462519,-0.3245612475389665,0.0
0.6259522943232007,0.491680351557246,-0.7682114914354697,0.04828955971781999,0.5777042110908264,-0.5228248567307314,0.0
0.6402220327691489,0.5038071588618445,-0.4643023755845066,0.1574363966958973,0.05930932485584773,-0.7026453279771628,0.0
0.6830312481070002,0.49471205338339563,-0.5298514014667844,0.15932911766327687,-0.28478468022185804,-0.5919865902837583,0.0
0.9256160523320474,0.4856169479049468,-0.61923643398266,0.24765604227585108,-0.028592415468140432,-1.2181306848821727,0.0
0.9327509215550216,0.5947582202799194,-0.7384164826341469,0.2028616691329275,0.06832489430988806,-0.6823578987319451,0.0
0.879239652168076,0.597789928739656,-0.8218425072778509,-0.16243323902571363,0.10438714463586936,-0.025782618088236814,0.0
0.7187053444365072,0.53715587894949,-0.6907444620326628,-0.1883004024948415,-0.23970685127844304,0.07012163455538119,0.0
0.6937333021560951,0.521997376452329,-0.6013594274794849,0.05459862576157529,-0.5379717666118037,-0.01379458685926346,0.0
0.686598432933121,0.552314394713825,-0.6311544383181101,0.0981311781931034,-0.5612619602112279,0.125451014649408,0.0
0.6901658675446077,0.5705046056707226,-0.6549904482113917,0.18961263005629034,-0.5319613869757769,0.19737919639958582,0.0
0.7258402136594819,0.552314394713825,-0.8218425072778509,0.2198961501443238,0.11640789474452978,-0.1382856892589927,0.0
0.7258402136594819,0.5341241837569274,-0.8754735361589671,0.26027416666834174,0.509336206874774,-0.22773485205723742,0.0
0.7401099521054303,0.5583777983661242,-0.905268531921555,0.17510177700140017,1.128404869542663,-0.20468094087289504,0.0
0.6723289442725364,0.5735363008632852,-0.6609494499716563,0.02052967239568013,1.5220845524345568,-0.1834713434830861,0.0
0.6437894673806364,0.6008216239322186,-0.5656054120283719,0.08109670102921708,1.2170579141936995,0.0433791042174656,0.0
0.6437894673806364,0.6008216239322186,-0.5656054120283719,0.0937148331167277,1.5761778958516521,0.3615230116398085,0.0
0.6188174251002231,0.5735363008632852,-0.6490314448212853,0.043242306690440234,2.3635371150211473,0.4205410305702267,0.0
0.7294076482709693,0.5038071588618445,-0.44642537030371293,-0.25202195453148124,2.4334077691265663,0.2527085877409373,0.0
0.708003040602044,0.4825852460787972,-0.005459200927929769,-0.3378252742726092,1.4379392375301807,-0.4213876655153444,0.0
0.6937333021560951,0.521997376452329,-0.14847524317427954,0.012958792373671767,0.4552428268041052,-0.5827649988164424,0.0
0.6259522943232007,0.6008216239322186,-0.196147283333866,0.14355645063013361,0.6520825949429058,-0.42784277504353585,0.0
0.5867105135968373,0.6826775798718449,-0.1305982509322205,0.875408073230649,1.643043250178338,0.24994210580181264,0.0
0.5224969403754303,0.5705046056707226,-0.1246392361332211,0.13850920241214135,-0.9489311901599484,-0.35314810010690884,0.0
0.7151379098250205,0.6099167360442544,-0.196147283333866,0.1656381798595222,-0.9271435731427443,-0.23050131150171288,0.0
0.7008681713790698,0.5765680093230218,-0.31532731853915735,0.16626908684864872,-0.6732051984616885,-0.2646211054532553,0.0
0.6366545981576621,0.5735363008632852,-0.19018826853486612,0.3233648194108748,-0.9767291868131794,-0.36790258796852643,0.0
0.6366545981576621,0.5735363008632852,-0.19018826853486612,-0.15423145586208872,1.4199081719292466,-0.15027371767613493,0.0
0.4903900288720428,0.5614094935586869,0.31036790540482784,-0.1359351608724394,3.065248369396899,-0.004573023510258989,0.0
0.3441254595864232,0.5583777983661242,0.030294783556187838,0.08866757912747046,-0.6378942455902106,-0.0645131824669569,0.0
0.3441254595864232,0.5583777983661242,0.030294783556187838,0.07604944896371484,0.04052690223835373,0.08395397676705675,0.0
0.6544917712151002,0.5886948166276202,-0.20210627205539547,0.055229531788824324,0.1359416193982238,0.04706772899470115,0.0
0.6830312481070002,0.5401875874092266,-0.3034093150186281,0.08614395309471934,0.28019063902893565,-0.13644137546445936,0.0
0.6830312481070002,0.5401875874092266,-0.3034093150186281,0.1965525992416622,0.01949058954819795,0.3015828695540974,5.0
0.6651940750495616,0.6614556737223847,-0.11272125869016193,0.13661648144476177,0.08410213169106528,0.22043310758392817,5.0
0.5617387211017921,0.6159801396965537,-0.24381929741598246,0.11579656234611625,0.06607100194637795,0.10239710346506564,5.0
0.5617387211017921,0.6159801396965537,-0.24381929741598246,0.02873145555930505,-0.32385211120245927,-0.10969883669105034,5.0
0.6152499904887363,0.5765680093230218,-0.20210627205539547,0.05081318575057111,-0.05864429303063984,-0.16595037368234383,5.0
0.6544917712151002,0.6008216239322186,-0.19018826853486612,0.11453474836786322,0.0690761917643914,-0.056213776015219125,5.0
0.6544917712151002,0.6008216239322186,-0.19018826853486612,0.13977100869537445,0.023247074529866428,-0.09217786689030803,5.0
0.6437894673806364,0.5947582202799194,-0.18422927981333673,0.12778378744450034,-0.09395525048381445,0.024013820622189957,5.0
0.6437894673806364,0.6190118348891163,-0.2557373009365116,0.11958200043336546,0.03301393685671345,-0.021171836413734577,5.0
0.6009802520427879,0.6311386421937146,-0.208065286854395,0.07920398198559249,-0.19312644575280802,-0.0645131824669569,5.0
0.5653061557132792,0.6523605483431748,-0.23190129389545333,-0.00029024670296535685,-0.4846296748322452,0.11715160257400793,5.0
0.5974128174312997,0.6311386421937146,-0.2676553044570408,-0.058964554369122735,-0.17810051498952745,0.08395397676705675,5.0
0.6758963788840261,0.5735363008632852,-0.29149131149809904,0.02052967239568013,-0.06014688793964656,-0.21021388225649515,5.0
0.6366545981576621,0.5583777983661242,-0.3093683298176277,0.12652197346624727,-0.028592415468140432,-0.14381861939526816,5.0
0.6330871635461748,0.5795997045155844,-0.2616963157355111,0.1353546674665087,-0.0992143280836413,-0.18531565727761945,5.0
0.6081151212657621,0.5947582202799194,-0.23786028261698286,0.12841469443362685,-0.04737483808563445,-0.19730368569476162,5.0
0.6616266404380743,0.6159801396965537,-0.24977831221498198,0.11768928331349585,-0.13377399266400922,-0.23695639853525496,5.0
0.6259522943232007,0.612948431236817,-0.208065286854395,0.1044402442368587,-0.23144258844229937,-0.11707609186918375,5.0
0.6580592058265875,0.6220435433488527,-0.2616963157355111,0.17068543577253442,0.04127819969285707,-0.027626931882770177,5.0
0.6437894673806364,0.6038533323919552,-0.21402427557592466,0.18961263005629034,-0.06991374568479691,-0.046992212666214644,5.0
0.6544917712151002,0.6099167360442544,-0.27361431925604024,0.1990762271981683,0.5919788718897835,0.0194030403536033,5.0
0.6223848597117133,0.6523605483431748,-0.19018826853486612,0.27163049247261917,0.5904762586539901,0.05813360613823896,5.0
0.5403341134328671,0.6008216239322186,-0.1365572657312199,0.16753090082690178,-0.13677917331862935,-0.0774233677813658,5.0
0.6009802520427879,0.6432654494983131,-0.22594227909645387,0.19529078526340915,0.1705012839785917,0.11346297498494119,5.0
0.6509243366036105,0.6311386421937146,-0.24381929741598246,0.17951812592528582,0.13669290768933384,0.11899591636854129,5.0
0.6473569019921231,0.612948431236817,-0.20210627205539547,0.1915053510236699,-0.03159760299530554,0.19369056881051913,5.0
0.5224969403754303,0.6826775798718449,-0.17827026501433732,0.07604944896371484,-0.39522534189009867,0.3163373574157151,5.0
0.5331992442098924,0.6372020591131876,-0.20210627205539547,-0.028681041976109243,-0.325354706111466,-0.03223771074544126,5.0
0.6651940750495616,0.5947582202799194,-0.29745032629709856,-0.07221359344575987,-0.21942184749703228,-0.1917707443111616,5.0
0.7365425174939435,0.5432192826017892,-0.31532731853915735,-0.058964554369122735,-0.6063397708278563,-1.089028854232733,5.0
1.0397737101142777,0.7281531006305018,-0.535810403227049,0.2571196394177291,0.5221082544379377,-0.29320793552654845,5.0
0.36553006725534826,0.6887409967913178,-0.04717220021104684,-0.0375137321288607,-0.7190343340230003,-0.301507336354624,5.0
0.38693467492427275,0.6493288664177862,-0.15443425797327895,-0.13908968812305209,-0.34789362974656707,-0.29505224932108187,5.0
0.7187053444365072,0.6159801396965537,-0.29149131149809904,0.26469050789720755,0.41542407087882044,0.1263731715466747,5.0
0.6794638134955134,0.6887409967913178,-0.3093683298176277,0.23693063115572008,0.34555345342697474,0.27022955754167954,5.0
0.6580592058265875,0.6523605483431748,-0.20210627205539547,0.2533341974829699,-0.008307397941639707,0.14758275768915907,5.0
0.6509243366036105,0.6584239652626481,-0.22594227909645387,0.2079089250459397,0.027003557220686578,0.11899591636854129,5.0
0.6259522943232007,0.6644873556477733,-0.2855323227765694,0.14418735761926013,0.0555528421650276,0.13651688616928354,5.0
0.590277948208325,0.7038994860213049,-0.29745032629709856,0.08235851500747014,0.005215947076027447,0.025858134416723313,5.0
0.6223848597117133,0.6190118348891163,-0.22594227909645387,0.12336744236812462,-0.06540596553947342,-0.07650121088409914,5.0
0.6509243366036105,0.6159801396965537,-0.21998329037492412,0.20980163831829934,-0.16683105317197708,-0.10969883669105034,5.0
0.6651940750495616,0.5947582202799194,-0.27361431925604024,0.2426087863628389,-0.13527657840962262,-0.12353117890272587,5.0
0.6009802520427879,0.6250752518085895,-0.29149131149809904,0.19339807199104952,-0.21190887295199867,-0.08941140182217029,5.0
0.58314307898535,0.6372020591131876,-0.23786028261698286,0.03188598858118269,-0.3539040093825938,-0.17056115816867723,5.0
0.6830312481070002,0.6311386421937146,-0.3212863333381568,0.008542447297296045,0.045785984419877246,0.009259320810289936,5.0
0.6509243366036105,0.6220435433488527,-0.24977831221498198,0.06658585013855126,0.011226322130357668,0.04061263352566554,5.0
0.6152499904887363,0.6220435433488527,-0.2616963157355111,0.04513502765781983,-0.10898118582879167,-0.01656105473923234,5.0
0.6152499904887363,0.6099167360442544,-0.24977831221498198,0.05964587782707754,-0.20364461011585505,-0.014716742350614565,5.0
0.5653061557132792,0.6432654494983131,-0.21998329037492412,0.06847856990358396,-0.34188325011054005,0.11254082933499912,5.0
0.6009802520427879,0.6523605483431748,-0.3391633255802156,0.05964587782707754,-0.32084692138444604,0.22965467655659494,5.0
0.7115704752135308,0.6553922568029114,-0.4702613773447712,-0.21101303871335664,-0.051131323067302906,0.2453313325628039,5.0
0.6580592058265875,0.5947582202799194,-0.24381929741598246,-0.1504460139273295,-0.32911120254737625,0.017558726559069943,5.0
0.593845382819812,0.6584239652626481,-0.31532731853915735,-0.20281125554973156,-0.5041633903225459,-0.08756708802763694,5.0
0.6758963788840261,0.5886948166276202,-0.3034093150186281,0.019267858417427078,-0.34488843992855356,-0.17793840209948603,5.0
0.6330871635461748,0.6250752518085895,-0.24977831221498198,0.0918221121493481,-0.7813919586030259,-0.005495179704567879,5.0
0.6330871635461748,0.6493288664177862,-0.4345073667831838,-0.12647156373056143,-1.0849159469545167,-0.04975868335801468,5.0
0.6651940750495616,0.6523605483431748,-0.5000563861460942,-0.46716107622820824,-0.8264697692196541,-0.023016150208267933,5.0
0.6937333021560951,0.6402337410385763,-0.44046636854344834,-0.1397206028071986,-0.5762879093012951,-0.20744740031737055,5.0
0.6758963788840261,0.6159801396965537,-0.4940973843858295,-0.1106988966974182,-0.3854584841449481,-0.18623780292756154,5.0
0.629519728934688,0.6038533323919552,-0.44046636854344834,-0.515740906695931,-0.9767291868131794,-0.3762019887966018,5.0
0.6366545981576621,0.6675190641075098,-0.6013594274794849,-0.893023055342996,-0.8640346236180354,-0.3642139828741089,5.0
0.6509243366036105,0.6220435433488527,-0.4940973843858295,-0.652647623301128,-0.9797343399776197,-0.32732772947809086,5.0
0.6723289442725364,0.6250752518085895,-0.5417694049873135,-0.019848351823357813,-0.34188325011054005,-0.12445333579999254,5.0
0.6188174251002231,0.6462971579580497,-0.4762203791050358,0.130938318542623,-0.37944810450892136,0.04706772899470115,5.0
0.6009802520427879,0.6614556737223847,-0.613277431814935,0.055229531788824324,-0.31183137025719215,0.10147494656779898,5.0
0.6188174251002231,0.6917726787167066,-0.5417694049873135,0.15238914078288504,-0.1991368253888349,0.10977435864319911,5.0
0.6830312481070002,0.6462971579580497,-0.6013594274794849,0.12526015948799424,0.012728917039364388,0.005570695505836034,5.0
0.6259522943232007,0.6584239652626481,-0.6013594274794849,0.02683873459192547,-0.09170135812030439,0.029546759193958872,5.0
0.9327509215550216,0.6493288664177862,0.17926984060153736,1.306948176772476,1.2410994327378069,0.26100798856901275,5.0
0.6330871635461748,0.6948043871764432,-0.5894414223291139,0.03504052160306035,-0.5883086319197756,0.0645886987954434,5.0
0.8685373483336151,0.6372020591131876,-0.9171865354420842,-0.5573807525882419,0.6498287667231489,-0.053447305323419105,5.0
0.6330871635461748,0.6372020591131876,-0.3391633255802156,-0.1580168824068081,0.21257390477720653,-0.09955512206844144,5.0
0.629519728934688,0.6735824810269831,-0.4047123579818609,0.18077993990353888,0.6333002043972885,-0.008261648287494545,5.0
0.5439015480443544,0.6796458714121083,-0.3927943544613318,0.43945164384999635,0.5694399665814694,0.07104379145264786,5.0
0.6330871635461748,0.6644873556477733,-0.44046636854344834,0.6110582217720928,0.9563579082390801,0.1051635741568657,5.0
0.5867105135968373,0.6917726787167066,-0.61923643398266,0.3107466950183841,0.5198543529110343,0.0655108556927101,5.0
0.7115704752135308,0.5947582202799194,-0.5775234188085848,0.15049642751052542,0.046537281874380595,0.11438513188220789,5.0
0.7008681713790698,0.5644412020184235,-0.5715644170483202,-0.009753847692353287,0.30047564281034633,-0.03684849241994348,5.0
0.7472448213284073,0.7311848090902384,-0.2676553044570408,0.11074931028061401,0.3515638330630015,0.08395397676705675,5.0
0.6830312481070002,0.6068850275845178,-0.2676553044570408,0.41926262019794747,1.676851626467596,0.08487613366432341,5.0
0.6116825558772495,0.6220435433488527,-0.1723112502153375,0.777617543781177,1.4972916356386194,-0.046992212666214644,5.0
0.5224969403754303,0.6311386421937146,-0.23190129389545333,0.6672089053292539,0.8113575453368981,0.19461273695511042,5.0
0.45471568275716834,0.6250752518085895,-0.39875334318286143,0.25144146882057045,-0.045872245467476064,-0.21943542873451272,5.0
0.8863745213910508,0.6281069337339781,-0.39875334318286143,0.4135844649908288,-0.17960310989853417,0.05444497854917226,5.0
0.5867105135968373,0.6432654494983131,-0.19018826853486612,0.2779395469738447,0.6550878214144925,0.05444497854917226,5.0
0.5439015480443544,0.6432654494983131,-0.21402427557592466,0.20033804117642137,-0.26224577491354384,-0.03777064931721018,5.0
0.629519728934688,0.6644873556477733,-0.27361431925604024,0.21863433616607073,0.08184823932755521,-0.007339492796143444,5.0
0.6081151212657621,0.6705507725672464,-0.3034093150186281,0.172578156739914,-0.044369650558469344,-0.011028117573379003,5.0
0.629519728934688,0.6675190641075098,-0.3034093150186281,0.1498655205213989,0.04428338951087052,0.012025789393216604,5.0
0.6259522943232007,0.6584239652626481,-0.27361431925604024,0.15238914078288504,0.0074698394395375295,0.024013820622189957,5.0
0.6509243366036105,0.6523605483431748,-0.2795733079775699,0.1353546674665087,0.015734104566529496,0.03969047662839888,5.0
0.6437894673806364,0.6584239652626481,-0.362999332621274,0.10254752326947913,0.03601912209303023,0.0018820703771215814,5.0
0.6437894673806364,0.6584239652626481,-0.362999332621274,0.07352582196908622,0.004464649621524088,0.04798988589196782,5.0
0.6152499904887363,0.6553922568029114,-0.31532731853915735,0.04134958764681566,0.0014594620943589793,0.07196594834991452,5.0
0.6152499904887363,0.6402337410385763,-0.3034093150186281,0.05144409273969763,0.030008747038699997,0.12084023016307462,5.0
0.6152499904887363,0.6402337410385763,-0.3034093150186281,0.08866757912747046,0.057806734528537664,0.1263731715466747,5.0
0.6330871635461748,0.6220435433488527,-0.29149131149809904,0.12399834935725115,0.030760044493203374,0.08764260435612345,5.0
0.6188174251002231,0.6432654494983131,-0.31532731853915735,0.11138021726974054,0.016485402021032845,0.06366654189817675,5.0
0.6188174251002231,0.6432654494983131,-0.31532731853915735,0.08046579404009056,-0.00079442797830277,0.0885647612533901,5.0
0.6223848597117133,0.6523605483431748,-0.36895834742027345,0.08235851500747014,0.0074698394395375295,0.06366654189817675,5.0
0.6509243366036105,0.6281069337339781,-0.3034093150186281,0.09623845914947882,0.005967244530530807,0.028624602296692194,5.0
0.6509243366036105,0.6281069337339781,-0.3034093150186281,0.130938318542623,-0.027089821704557877,0.007415008070193262,5.0
0.6330871635461748,0.6341703506534512,-0.31532731853915735,0.11958200043336546,-0.03084630668622635,-0.008261648287494545,5.0
0.629519728934688,0.6523605483431748,-0.3034093150186281,0.08109670102921708,-0.006053506723553793,0.014792258679101061,5.0
0.629519728934688,0.6523605483431748,-0.3034093150186281,0.06090769108392247,-0.005302209269050431,0.024935977519456635,5.0
0.6330871635461748,0.6432654494983131,-0.31532731853915735,0.06658585013855126,0.00822113460319256,0.045223415200167795,5.0
0.6366545981576621,0.6402337410385763,-0.31532731853915735,0.09560755216035227,-4.313052379941069e-05,0.007415008070193262,5.0
0.6330871635461748,0.6372020591131876,-0.3212863333381568,0.0855130480293478,0.008972432057695906,0.03323538397119443,5.0
0.6330871635461748,0.6311386421937146,-0.3093683298176277,0.06974038291995953,-0.008307397941639707,0.05997791430911002,5.0
0.6366545981576621,0.6372020591131876,-0.3391633255802156,0.0527059057560732,0.009723729512199283,0.07381026214444789,5.0
0.6330871635461748,0.6311386421937146,-0.333204336858686,0.05018227972332207,0.024749669438873155,0.08118751169891901,5.0
0.6509243366036105,0.6372020591131876,-0.3212863333381568,0.05586043877795085,0.015734104566529496,0.07104379145264786,5.0
0.6437894673806364,0.6341703506534512,-0.3034093150186281,0.0527059057560732,0.02174447962085971,0.06919947765811449,5.0
0.6402220327691489,0.6311386421937146,-0.29149131149809904,0.06974038291995953,-0.005302209269050431,0.06827732076084783,5.0
0.6152499904887363,0.6523605483431748,-0.31532731853915735,0.07857307499646596,-0.020328148909368262,0.024935977519456635,5.0
0.6188174251002231,0.6372020591131876,-0.2855323227765694,0.05775315830251419,-0.03610538543147737,-0.0018065549273323187,5.0
0.6223848597117133,0.6462971579580497,-0.3034093150186281,0.03251689557030923,-0.027841118013637072,0.0203251958449544,5.0
0.6437894673806364,0.6341703506534512,-0.34512234037921513,0.03251689557030923,-0.027089821704557877,0.03046891609122555,5.0
0.6651940750495616,0.6220435433488527,-0.29149131149809904,0.026207831450308892,-0.02183074267295082,-0.005495179704567879,5.0
0.6366545981576621,0.6220435433488527,-0.29745032629709856,0.030624176526684622,-0.06615726299397677,-0.018405368533765697,5.0
0.6116825558772495,0.6220435433488527,-0.3034093150186281,0.021791482526423205,-0.03685668174055656,0.00833716426450215,5.0
0.6152499904887363,0.6281069337339781,-0.3034093150186281,0.004757005362536885,-0.03835927550413912,0.014792258679101061,5.0
0.6259522943232007,0.6281069337339781,-0.29149131149809904,0.0016024742644142236,-0.030095009231722987,0.0507563537719367,5.0
0.6259522943232007,0.6099167360442544,-0.3093683298176277,0.019267858417427078,-0.025587227368263247,0.013870101781834383,5.0
0.6473569019921231,0.6008216239322186,-0.35108132910074474,0.027469641581051987,-0.029343711777219627,0.055367135446438925,5.0
0.6366545981576621,0.6008216239322186,-0.3093683298176277,0.040087773668562594,-0.022582039841098134,0.03415754086846112,5.0
0.6330871635461748,0.6068850275845178,-0.27361431925604024,0.03377870762480729,-0.028592415468140432,3.775781276435349e-05,5.0
0.6259522943232007,0.6311386421937146,-0.29149131149809904,0.04071868065768911,-0.03385149421339145,0.02770244539942552,5.0
0.6330871635461748,0.6281069337339781,-0.3034093150186281,0.04828955971781999,-0.05563910550347473,0.010181477004598823,5.0
0.6473569019921231,0.6159801396965537,-0.3272453220596865,0.024946017472055833,-0.022582039841098134,-0.004573023510258989,5.0
0.6473569019921231,0.6190118348891163,-0.2616963157355111,0.010435164417165653,-0.022582039841098134,-0.01748321163649902,5.0
0.6330871635461748,0.6311386421937146,-0.3034093150186281,-0.013539281932092544,-0.042867057940310954,-0.023016150208267933,5.0
0.6509243366036105,0.6220435433488527,-0.31532731853915735,0.011066071406292188,-0.042867057940310954,-0.03869280621447684,5.0
0.6330871635461748,0.6099167360442544,-0.27361431925604024,0.021160575537296677,-0.051882620521806276,-0.01563889924788124,5.0
0.629519728934688,0.6008216239322186,-0.31532731853915735,0.009804257428039134,-0.048126135540137796,-0.030393399762739064,5.0
0.6330871635461748,0.612948431236817,-0.3034093150186281,0.012327885384545248,-0.027841118013637072,-0.027626931882770177,5.0
0.629519728934688,0.6159801396965537,-0.29149131149809904,0.006018819340789946,-0.04737483808563445,0.007415008070193262,5.0
0.6259522943232007,0.6068850275845178,-0.3093683298176277,0.0016024742644142236,-0.045872245467476064,-0.0008843983815445357,5.0
0.6473569019921231,0.5947582202799194,-0.29745032629709856,0.039456868603191045,-0.07141634059380363,-0.03223771074544126,5.0
0.6473569019921231,0.6038533323919552,-0.3034093150186281,0.05586043877795085,-0.027841118013637072,-0.007339492796143444,5.0
0.6330871635461748,0.6220435433488527,-0.29149131149809904,0.05144409273969763,-0.0676598579029835,-0.026704774985503502,5.0
0.6402220327691489,0.6311386421937146,-0.3034093150186281,0.02242238951554974,-0.05563910550347473,0.014792258679101061,5.0
0.6330871635461748,0.6220435433488527,-0.3034093150186281,0.018006044439174015,-0.051882620521806276,-0.021171836413734577,5.0
0.6259522943232007,0.6220435433488527,-0.3034093150186281,0.014220606351924828,-0.060898185394149935,-0.01287242996199678,5.0
0.6509243366036105,0.6311386421937146,-0.31532731853915735,0.025576924461182374,-0.018825554931018677,-0.02486046119097014,5.0
0.6580592058265875,0.6341703506534512,-0.3272453220596865,0.0299932695375581,-0.0331001967588881,-0.033159867642707924,5.0
0.6437894673806364,0.6372020591131876,-0.34512234037921513,0.043242306690440234,-0.04962873044914452,-0.040537120009010205,5.0
0.629519728934688,0.6372020591131876,-0.3570403438997443,0.023684203493802798,-0.04887743299464117,-0.04145927409444573,5.0
0.6223848597117133,0.6584239652626481,-0.333204336858686,0.013589699362798288,-0.06991374568479691,-0.01748321163649902,5.0
0.6473569019921231,0.6190118348891163,-0.39875334318286143,0.02052967239568013,-0.05939559048514321,-0.027626931882770177,5.0
0.6580592058265875,0.5826314129753211,-0.27361431925604024,0.10570205821511176,-0.02333333672288941,-0.044225741974414624,5.0
0.6330871635461748,0.5917265250873569,-0.29149131149809904,0.15175823379375852,-0.025587227368263247,-0.05160299152888574,5.0
0.6188174251002231,0.5917265250873569,-0.31532731853915735,0.16374545889214262,-0.048126135540137796,-0.07096827512416136,5.0
0.629519728934688,0.6099167360442544,-0.3212863333381568,0.183303567860045,-0.03986187041314584,-0.08018983847316583,5.0
0.6188174251002231,0.6311386421937146,-0.333204336858686,0.17005452878340788,-0.07367023295731372,-0.03592633833450798,5.0
0.6223848597117133,0.6584239652626481,-0.35108132910074474,0.11832019030262238,-0.0759241253208238,-0.01287242996199678,5.0
0.6402220327691489,0.6584239652626481,-0.38087635094080263,0.10507115122598525,-0.04962873044914452,-0.008261648287494545,5.0
0.629519728934688,0.6523605483431748,-0.3570403438997443,0.08488214104022127,-0.03159760299530554,0.005570695505836034,5.0
0.6402220327691489,0.6523605483431748,-0.34512234037921513,0.06090769108392247,-0.00455091295997124,0.0433791042174656,5.0
0.629519728934688,0.6614556737223847,-0.3570403438997443,0.04955137273419555,-0.0030483191963886816,0.05905575741184336,5.0
0.6366545981576621,0.6432654494983131,-0.3034093150186281,0.04387321367956677,-0.018825554931018677,0.08395397676705675,5.0
0.6437894673806364,0.6493288664177862,-0.31532731853915735,0.06469313043363588,-0.012815179232387371,0.08672044745885678,5.0
0.6330871635461748,0.6341703506534512,-0.34512234037921513,0.048920465745069024,0.005215947076027447,0.0765767272125856,5.0
0.6259522943232007,0.6311386421937146,-0.29745032629709856,0.08803667406209892,-0.016571664070877817,0.024935977519456635,5.0
0.629519728934688,0.6402337410385763,-0.34512234037921513,0.11832019030262238,-0.01582036704590852,0.005570695505836034,5.0
0.6259522943232007,0.6402337410385763,-0.3391633255802156,0.11390384137873667,-0.03535408797697401,0.00833716426450215,5.0
0.6259522943232007,0.6402337410385763,-0.3212863333381568,0.11011840329148749,-0.05714169812163314,-0.019327524025116796,5.0
0.6402220327691489,0.6372020591131876,-0.3272453220596865,0.09686936421485036,-0.042115760485807584,-0.023016150208267933,5.0
0.6402220327691489,0.6402337410385763,-0.3749173361418031,0.09119120708397657,-0.051882620521806276,-0.011950274470645684,5.0
0.6402220327691489,0.6462971579580497,-0.362999332621274,0.06910947641177173,-0.011312585468804813,-0.02486046119097014,5.0
0.6259522943232007,0.6493288664177862,-0.34512234037921513,0.021791482526423205,-0.0323489004498089,0.009259320810289936,5.0
0.6330871635461748,0.6493288664177862,-0.34512234037921513,0.015482416482667917,-0.00079442797830277,0.045223415200167795,5.0
0.6509243366036105,0.6432654494983131,-0.3927943544613318,0.0009715672752876824,-4.313052379941069e-05,0.08026535480165232,5.0
0.6473569019921231,0.6250752518085895,-0.38087635094080263,-0.013539281932092544,0.01498280711202612,0.0931755401160612,5.0
0.6437894673806364,0.6250752518085895,-0.3570403438997443,0.025576924461182374,0.012728917039364388,0.10793004484866574,5.0
0.6330871635461748,0.6220435433488527,-0.3093683298176277,0.014220606351924828,0.027003557220686578,0.1411276706556169,5.0
0.6330871635461748,0.6311386421937146,-0.2795733079775699,0.039456868603191045,0.027003557220686578,0.13559472927201685,5.0
0.6223848597117133,0.6432654494983131,-0.31532731853915735,0.060276784335265315,0.009723729512199283,0.13467257237475017,5.0
0.629519728934688,0.612948431236817,-0.29745032629709856,0.11264203124799359,-0.020328148909368262,0.0885647612533901,5.0
0.6509243366036105,0.6038533323919552,-0.3093683298176277,0.13283103951000255,-0.027089821704557877,-0.0008843983815445357,5.0
0.6330871635461748,0.6099167360442544,-0.2795733079775699,0.10570205821511176,-0.040613165576800864,-0.04975868335801468,5.0
0.6366545981576621,0.6220435433488527,-0.3093683298176277,0.11011840329148749,-0.07291893550281035,-0.09494433758210805,5.0
0.6330871635461748,0.6159801396965537,-0.3391633255802156,0.0981311781931034,-0.0932039530293111,-0.10139943586297481,5.0
0.6223848597117133,0.6220435433488527,-0.3749173361418031,0.0918221121493481,-0.08343709070246409,-0.08756708802763694,5.0
0.6366545981576621,0.6220435433488527,-0.3570403438997443,0.06469313043363588,-0.051882620521806276,-0.039614963111743534,5.0
0.6330871635461748,0.5947582202799194,-0.38683533966233224,0.06153859759211025,-0.02333333672288941,0.03600185185116332,5.0
0.6509243366036105,0.597789928739656,-0.333204336858686,0.07352582196908622,-0.0037996155054678786,0.06366654189817675,5.0
0.6330871635461748,0.6250752518085895,-0.34512234037921513,0.09434574010585421,0.016485402021032845,0.10700788795139904,5.0
0.6259522943232007,0.6099167360442544,-0.3272453220596865,0.10317843025860567,0.031511341947706724,0.1328282585802168,5.0
0.6152499904887363,0.612948431236817,-0.3391633255802156,0.1353546674665087,0.004464649621524088,0.14481629824468364,5.0
0.6366545981576621,0.6220435433488527,-0.3093683298176277,0.12967650456436997,0.02249577707536306,0.14389414134741696,5.0
0.6259522943232007,0.6220435433488527,-0.3391633255802156,0.13914010170624794,0.013480214493867743,0.13098394478568345,5.0
0.6544917712151002,0.6190118348891163,-0.36895834742027345,0.16626908684864872,-0.00980999170522226,0.12360670085487464,5.0
0.6580592058265875,0.6311386421937146,-0.3570403438997443,0.17068543577253442,-0.012815179232387371,0.06643301258997678,5.0
0.6509243366036105,0.6432654494983131,-0.31532731853915735,0.1599600246524034,-0.016571664070877817,0.02770244539942552,5.0
0.6330871635461748,0.6523605483431748,-0.34512234037921513,0.12084381441161851,-0.054136512885316346,-0.010105960676112326,5.0
0.6437894673806364,0.6462971579580497,-0.3391633255802156,0.08172760801834361,-0.03610538543147737,-0.07373474581596139,5.0
0.6437894673806364,0.6462971579580497,-0.3391633255802156,0.03819505462493799,-0.04136446303130423,-0.0811119953704325,5.0
0.6402220327691489,0.6159801396965537,-0.3391633255802156,0.015482416482667917,-0.045872245467476064,-0.07373474581596139,5.0
0.6330871635461748,0.6099167360442544,-0.34512234037921513,0.011066071406292188,-0.04136446303130423,-0.03777064931721018,5.0
0.6330871635461748,0.6099167360442544,-0.34512234037921513,0.02052967239568013,-0.00980999170522226,-0.023016150208267933,5.0
0.6330871635461748,0.6008216239322186,-0.333204336858686,0.01989876540655359,-0.02633852425005452,-0.008261648287494545,5.0
0.6402220327691489,0.6038533323919552,-0.34512234037921513,0.012327885384545248,-0.0030483191963886816,0.03415754086846112,5.0
0.6402220327691489,0.6038533323919552,-0.34512234037921513,0.01989876540655359,-4.313052379941069e-05,0.05997791430911002,5.0
0.6259522943232007,0.6099167360442544,-0.31532731853915735,0.03377870762480729,-0.017322961024258104,0.09870847587599896,5.0
0.6366545981576621,0.6068850275845178,-0.31532731853915735,0.03567142859218687,-0.009058694250718901,0.13190610168295014,5.0
0.6366545981576621,0.6068850275845178,-0.31532731853915735,0.046396839712317894,-0.006053506723553793,0.10239710346506564,5.0
0.6509243366036105,0.6008216239322186,-0.3034093150186281,0.07163310292546163,-0.01506907016411724,0.0774988841098523,5.0
0.6473569019921231,0.6099167360442544,-0.36895834742027345,0.0710021959363351,-0.04662354292197941,0.010181477004598823,5.0
0.6509243366036105,0.6159801396965537,-0.39875334318286143,0.06153859759211025,-0.06315207317596336,-0.03131555666000573,5.0
0.6402220327691489,0.6159801396965537,-0.3570403438997443,0.05081318575057111,-0.060898185394149935,-0.04607005576894795,5.0
0.6366545981576621,0.6250752518085895,-0.34512234037921513,0.04765865369057095,-0.042867057940310954,-0.02486046119097014,5.0
0.6330871635461748,0.6190118348891163,-0.36895834742027345,0.05018227972332207,-0.06390337063046671,-0.01379458685926346,5.0
0.6437894673806364,0.6220435433488527,-0.35108132910074474,0.05333681178332223,-0.03159760299530554,-0.03592633833450798,5.0
0.6580592058265875,0.6008216239322186,-0.333204336858686,0.06721675664673904,-0.054887808048971386,-0.004573023510258989,5.0
0.6509243366036105,0.6008216239322186,-0.333204336858686,0.05838406481070198,-0.051882620521806276,-0.03592633833450798,5.0
0.6259522943232007,0.6008216239322186,-0.3391633255802156,0.08740576707297239,-0.03159760299530554,0.028624602296692194,5.0
0.6437894673806364,0.6068850275845178,-0.3749173361418031,0.10317843025860567,-0.0015457254328061294,0.052600664754638905,5.0
0.6509243366036105,0.6008216239322186,-0.3570403438997443,0.12084381441161851,0.005967244530530807,0.017558726559069943,5.0
0.6402220327691489,0.6159801396965537,-0.24977831221498198,0.12715288045537382,-0.020328148909368262,0.024935977519456635,5.0
0.6330871635461748,0.6220435433488527,-0.3034093150186281,0.0981311781931034,-0.021079445791159543,0.011103633198907711,5.0
0.6402220327691489,0.6220435433488527,-0.3272453220596865,0.11516565535698974,-0.019576851884398963,0.02678028990807441,5.0
0.6330871635461748,0.6220435433488527,-0.333204336858686,0.12084381441161851,-0.02483593048647197,0.012025789393216604,5.0
0.6330871635461748,0.6250752518085895,-0.3272453220596865,0.1353546674665087,-0.0323489004498089,0.02678028990807441,5.0
0.6402220327691489,0.6311386421937146,-0.3927943544613318,0.12841469443362685,-0.045872245467476064,-0.026704774985503502,5.0
0.6402220327691489,0.6341703506534512,-0.3570403438997443,0.10885658931323443,0.008972432057695906,3.775781276435349e-05,5.0
0.6509243366036105,0.6402337410385763,-0.29745032629709856,0.0981311781931034,-0.0022970217418853242,-0.01379458685926346,5.0
0.6509243366036105,0.6341703506534512,-0.333204336858686,0.062169504100298034,-0.0037996155054678786,-0.05160299152888574,5.0
0.6259522943232007,0.6523605483431748,-0.3570403438997443,0.024946017472055833,-0.027089821704557877,-0.021171836413734577,5.0
0.6116825558772495,0.6553922568029114,-0.3570403438997443,-0.004706591779341072,-0.062400780303156635,-0.05436946222068576,5.0
0.6116825558772495,0.6523605483431748,-0.3749173361418031,-0.04697732927073866,-0.06540596553947342,-0.05436946222068576,5.0
0.6402220327691489,0.6250752518085895,-0.3570403438997443,-0.05076277120549782,-0.027841118013637072,-0.01748321163649902,5.0
0.6402220327691489,0.6281069337339781,-0.333204336858686,-0.03625191815060763,-0.019576851884398963,-0.0036508673159500967,5.0
0.6402220327691489,0.597789928739656,-0.34512234037921513,-0.01858653784510476,-0.011312585468804813,-0.011950274470645684,5.0
0.6402220327691489,0.5886948166276202,-0.3093683298176277,-0.006599312746720653,-0.014317773282325964,-0.005495179704567879,5.0
0.6366545981576621,0.5917265250873569,-0.333204336858686,0.016113323471794436,-0.017322961024258104,0.02770244539942552,5.0
0.6259522943232007,0.597789928739656,-0.34512234037921513,0.023684203493802798,-0.02333333672288941,3.775781276435349e-05,5.0
0.6402220327691489,0.5947582202799194,-0.333204336858686,0.027469641581051987,-0.02408463360468069,0.023091665130838858,5.0
0.6509243366036105,0.6220435433488527,-0.3749173361418031,0.0299932695375581,-0.011312585468804813,0.0009599140070732445,5.0
0.6473569019921231,0.6190118348891163,-0.34512234037921513,0.02431511048292932,-0.0015457254328061294,-0.01748321163649902,5.0
0.6437894673806364,0.6220435433488527,-0.3749173361418031,0.016744230460920956,0.0007081657852797821,-0.01748321163649902,5.0
0.6330871635461748,0.6372020591131876,-0.333204336858686,-0.014170188921219058,-0.00980999170522226,-0.0036508673159500967,5.0
0.6402220327691489,0.6432654494983131,-0.34512234037921513,-0.05644093410763658,0.005967244530530807,-0.023016150208267933,5.0
0.6437894673806364,0.6281069337339781,-0.362999332621274,-0.05517912012938352,-0.0015457254328061294,-0.029471242865472366,5.0
0.6437894673806364,0.6220435433488527,-0.27361431925604024,-0.08104629129353123,0.020241887002701322,-0.052525148426152406,5.0
0.6330871635461748,0.6068850275845178,-0.2795733079775699,-0.06338090329300841,-0.027089821704557877,-0.022093993311001255,5.0
0.6437894673806364,0.6038533323919552,-0.3391633255802156,-0.05076277120549782,-0.020328148909368262,-0.060824554877890215,5.0
0.6580592058265875,0.5735363008632852,-0.3570403438997443,-0.005337498768467613,0.0014594620943589793,-0.07373474581596139,5.0
0.6437894673806364,0.5886948166276202,-0.38087635094080263,-0.021741072790737392,0.011226322130357668,-0.07004611822689469,5.0
0.6081151212657621,0.6099167360442544,-0.3570403438997443,0.0034951913842838312,-0.00079442797830277,-0.05436946222068576,5.0
0.6223848597117133,0.6068850275845178,-0.333204336858686,0.021791482526423205,-0.013566476114178645,-0.002728711121641207,5.0
0.6259522943232007,0.6008216239322186,-0.3093683298176277,0.036933240646684934,-0.025587227368263247,-0.01656105473923234,5.0
0.6437894673806364,0.5856631081678836,-0.3391633255802156,0.06469313043363588,-0.039110572958642474,0.0028042266593001947,5.0
0.6580592058265875,0.5826314129753211,-0.333204336858686,0.08803667406209892,-0.042115760485807584,0.005570695505836034,5.0
0.6437894673806364,0.5886948166276202,-0.34512234037921513,0.11390384137873667,0.0014594620943589793,-0.030393399762739064,5.0
0.6330871635461748,0.5947582202799194,-0.3093683298176277,0.12652197346624727,-0.013566476114178645,-0.008261648287494545,5.0
0.6223848597117133,0.6099167360442544,-0.3570403438997443,0.14481826460838668,-0.05864429303063984,0.01848088345633662,5.0
0.6330871635461748,0.6159801396965537,-0.31532731853915735,0.1574363966958973,-0.03084630668622635,0.017558726559069943,5.0
0.6366545981576621,0.6008216239322186,-0.3093683298176277,0.17131634276166094,-0.03610538543147737,0.06274438500091005,5.0
0.6723289442725364,0.6099167360442544,-0.333204336858686,0.19529078526340915,-0.051131323067302906,0.02678028990807441,5.0
0.686598432933121,0.6099167360442544,-0.3570403438997443,0.2148488942313116,-0.0015457254328061294,-0.01748321163649902,5.0
0.6616266404380743,0.6250752518085895,-0.38683533966233224,0.19465988596930256,-0.05263391797630963,-0.04791436956348131,5.0
0.6152499904887363,0.6523605483431748,-0.34512234037921513,0.15175823379375852,-0.05939559048514321,-0.05068084025528134,5.0
0.6116825558772495,0.6462971579580497,-0.29149131149809904,0.14040191568450097,-0.0331001967588881,0.0009599140070732445,5.0
0.6116825558772495,0.6311386421937146,-0.29149131149809904,0.1429255436410071,-0.05714169812163314,0.016636571067718837,5.0
0.6330871635461748,0.6220435433488527,-0.333204336858686,0.1681618078160283,-0.027841118013637072,0.009259320810289936,5.0
0.6402220327691489,0.6220435433488527,-0.34512234037921513,0.18393447484917155,-0.0037996155054678786,0.023091665130838858,5.0
0.6473569019921231,0.6372020591131876,-0.362999332621274,0.1889817230671638,-0.028592415468140432,0.031391070176661075,5.0
0.6509243366036105,0.6341703506534512,-0.36895834742027345,0.1883508160780373,-0.0037996155054678786,0.028624602296692194,5.0
0.6366545981576621,0.6493288664177862,-0.3749173361418031,0.1826726608709185,-0.007556100487136348,0.05444497854917226,5.0
0.6223848597117133,0.6614556737223847,-0.3570403438997443,0.18582718812153115,-0.01506907016411724,0.10055278967053231,5.0
0.6402220327691489,0.6523605483431748,-0.35108132910074474,0.1851962888274246,-0.027089821704557877,0.07288810524718121,5.0
0.6544917712151002,0.6220435433488527,-0.3570403438997443,0.20727801036179325,-0.008307397941639707,0.10147494656779898,5.0
0.6473569019921231,0.6190118348891163,-0.34512234037921513,0.21232526627480544,0.025500966893376508,0.07104379145264786,5.0
0.6330871635461748,0.6432654494983131,-0.333204336858686,0.2293597472862018,-0.005302209269050431,0.04891203997740334,5.0
0.6330871635461748,0.6584239652626481,-0.34512234037921513,0.21358708025305853,-0.03610538543147737,0.052600664754638905,5.0
0.629519728934688,0.6735824810269831,-0.3570403438997443,0.1656381798595222,0.009723729512199283,0.07842104100711897,5.0
0.629519728934688,0.6675190641075098,-0.34512234037921513,0.12841469443362685,-0.009058694250718901,0.08487613366432341,5.0
0.6366545981576621,0.6675190641075098,-0.35108132910074474,0.08488214104022127,-0.022582039841098134,0.07381026214444789,5.0
0.6402220327691489,0.6584239652626481,-0.36895834742027345,0.044504120668693296,-0.017322961024258104,0.0645886987954434,5.0
0.6402220327691489,0.6432654494983131,-0.34512234037921513,0.009173354286422557,-0.027089821704557877,0.009259320810289936,5.0
0.6473569019921231,0.6190118348891163,-0.31532731853915735,-0.020479258812484327,-0.03986187041314584,-0.011028117573379003,5.0
0.6366545981576621,0.6068850275845178,-0.29149131149809904,-0.04066826707449332,-0.04737483808563445,-0.008261648287494545,5.0
0.6509243366036105,0.597789928739656,-0.31532731853915735,-0.014801095910345598,-0.044369650558469344,-0.019327524025116796,5.0
0.6580592058265875,0.5705046056707226,-0.3212863333381568,0.029362362548431567,-0.02633852425005452,-0.01287242996199678,5.0
0.6580592058265875,0.5705046056707226,-0.3212863333381568,0.06153859759211025,-0.018825554931018677,0.009259320810289936,5.0
0.6223848597117133,0.5947582202799194,-0.2855323227765694,0.08740576707297239,-0.02333333672288941,0.03415754086846112,5.0
0.6188174251002231,0.6099167360442544,-0.3034093150186281,0.10380933724773218,-0.01506907016411724,0.05813360613823896,5.0
0.6188174251002231,0.6099167360442544,-0.3034093150186281,0.09119120708397657,0.031511341947706724,0.0931755401160612,5.0
0.6402220327691489,0.612948431236817,-0.3093683298176277,0.05712225179432641,0.08936120470919548,0.1337504154774835,5.0
0.6437894673806364,0.6341703506534512,-0.36895834742027345,0.03314780255943574,0.09386898943621563,0.11438513188220789,5.0
0.6402220327691489,0.6735824810269831,-0.31532731853915735,0.02305329650467626,0.09687417925422909,0.12729532844394137,5.0
0.629519728934688,0.6735824810269831,-0.3034093150186281,-0.024895600041350083,0.037521717002036936,0.10147494656779898,5.0
0.6330871635461748,0.6735824810269831,-0.31532731853915735,-0.10060438487139378,0.010475026966702633,0.11161867243773242,5.0
0.6330871635461748,0.6735824810269831,-0.31532731853915735,-0.15423145586208872,-4.313052379941069e-05,0.0931755401160612,5.0
0.6402220327691489,0.6311386421937146,-0.3391633255802156,-0.16180232434156713,0.004464649621524088,0.08026535480165232,5.0
0.6580592058265875,0.5856631081678836,-0.333204336858686,-0.13656606016654602,0.006718541985034175,0.06643301258997678,5.0
0.6580592058265875,0.5856631081678836,-0.333204336858686,-0.06716633753274764,0.016485402021032845,0.02678028990807441,5.0
0.6723289442725364,0.5735363008632852,-0.362999332621274,-0.03625191815060763,0.006718541985034175,0.042456947320198904,5.0
0.6473569019921231,0.5795997045155844,-0.3034093150186281,0.00286428824266727,-0.027841118013637072,0.023091665130838858,5.0
0.6259522943232007,0.5886948166276202,-0.3272453220596865,-0.011015653975586423,-0.028592415468140432,0.0009599140070732445,5.0
0.6402220327691489,0.5947582202799194,-0.362999332621274,0.018006044439174015,-0.017322961024258104,-0.004573023510258989,5.0
0.6509243366036105,0.5917265250873569,-0.38087635094080263,0.02305329650467626,-0.03685668174055656,-0.01563889924788124,5.0
0.6509243366036105,0.597789928739656,-0.38087635094080263,0.036302335581313405,-0.01506907016411724,-0.04883652646074801,5.0
0.6473569019921231,0.6038533323919552,-0.34512234037921513,0.024946017472055833,-0.03084630668622635,-0.0645131824669569,5.0
0.629519728934688,0.612948431236817,-0.31532731853915735,-0.016693816877725177,-0.0323489004498089,-0.01748321163649902,5.0
0.6473569019921231,0.6099167360442544,-0.333204336858686,-0.029942855954362295,-0.00980999170522226,0.010181477004598823,5.0
0.6473569019921231,0.597789928739656,-0.34512234037921513,0.007280633319042985,0.0074698394395375295,0.024013820622189957,5.0
0.6473569019921231,0.5886948166276202,-0.36895834742027345,0.0299932695375581,0.011977619584861016,0.013870101781834383,5.0
0.6473569019921231,0.5765680093230218,-0.38087635094080263,0.04576593272319137,0.0022107595488623385,0.021247352742221077,5.0
0.6509243366036105,0.5826314129753211,-0.3034093150186281,0.044504120668693296,0.014231511948371115,-0.014716742350614565,5.0
0.6509243366036105,0.5826314129753211,-0.3570403438997443,0.06658585013855126,-0.007556100487136348,0.01848088345633662,5.0
0.6366545981576621,0.5765680093230218,-0.3391633255802156,0.06847856990358396,-0.011312585468804813,-0.004573023510258989,5.0
0.6223848597117133,0.5886948166276202,-0.38683533966233224,0.07478763594733927,-0.03084630668622635,-0.005495179704567879,5.0
0.6437894673806364,0.5856631081678836,-0.3749173361418031,0.06784766339539619,-0.017322961024258104,-0.006417335898876767,5.0
0.6473569019921231,0.5886948166276202,-0.3272453220596865,0.08425123405109473,-0.006053506723553793,3.775781276435349e-05,5.0
0.6473569019921231,0.5856631081678836,-0.35108132910074474,0.07668035499096387,0.003713354457869057,0.01848088345633662,5.0
0.6366545981576621,0.5826314129753211,-0.31532731853915735,0.08614395309471934,0.005967244530530807,0.006492851875884372,5.0
0.6402220327691489,0.6008216239322186,-0.333204336858686,0.09119120708397657,0.02174447962085971,-0.0008843983815445357,5.0
0.6473569019921231,0.6008216239322186,-0.3570403438997443,0.06595494363036347,0.018739292093694605,0.015714414170452162,5.0
0.6437894673806364,0.6038533323919552,-0.3749173361418031,0.07289491594183717,-0.010561288587013535,0.029546759193958872,5.0
0.6437894673806364,0.5917265250873569,-0.3272453220596865,0.08614395309471934,0.011977619584861016,0.014792258679101061,5.0
0.6473569019921231,0.6008216239322186,-0.3391633255802156,0.1063329652042383,-0.00455091295997124,-0.030393399762739064,5.0
0.6330871635461748,0.6068850275845178,-0.3093683298176277,0.11390384137873667,-0.03535408797697401,-0.03869280621447684,5.0
0.6330871635461748,0.6311386421937146,-0.333204336858686,0.06153859759211025,-0.027089821704557877,-0.03223771074544126,5.0
0.6366545981576621,0.6159801396965537,-0.3034093150186281,0.044504120668693296,0.010475026966702633,3.775781276435349e-05,5.0
0.6473569019921231,0.6008216239322186,-0.3093683298176277,0.06090769108392247,0.03376522972952014,0.006492851875884372,5.0
0.6402220327691489,0.6008216239322186,-0.2557373009365116,0.06974038291995953,0.031511341947706724,0.004648539223657421,5.0
0.6509243366036105,0.6008216239322186,-0.27361431925604024,0.060276784335265315,0.01723669947553622,0.031391070176661075,5.0
0.6544917712151002,0.6008216239322186,-0.2855323227765694,0.06090769108392247,0.04202949714736045,0.05444497854917226,5.0
0.6259522943232007,0.6159801396965537,-0.3093683298176277,0.05333681178332223,0.016485402021032845,0.021247352742221077,5.0
0.6473569019921231,0.6159801396965537,-0.27361431925604024,0.02305329650467626,0.014231511948371115,0.022169508233572183,5.0
0.6580592058265875,0.597789928739656,-0.24977831221498198,0.03819505462493799,0.04428338951087052,0.024013820622189957,5.0
0.6580592058265875,0.5795997045155844,-0.18422927981333673,0.028100548570178508,0.1141540023810197,0.012947945587525494,5.0
0.6259522943232007,0.5856631081678836,-0.17827026501433732,0.026207831450308892,0.14195199903425068,-0.01563889924788124,5.0
0.629519728934688,0.6038533323919552,-0.24977831221498198,0.06847856990358396,0.09161509707270556,-0.01287242996199678,5.0
0.6402220327691489,0.6068850275845178,-0.2795733079775699,0.044504120668693296,0.12993123976219692,0.017558726559069943,5.0
0.6402220327691489,0.6190118348891163,-0.29149131149809904,0.07604944896371484,0.09762547670873242,0.015714414170452162,5.0
0.6473569019921231,0.6159801396965537,-0.29149131149809904,0.07983488801284151,0.06231451467386115,0.013870101781834383,5.0
0.6473569019921231,0.6099167360442544,-0.29149131149809904,0.0981311781931034,0.09386898943621563,0.03600185185116332,5.0
0.6330871635461748,0.5856631081678836,-0.24381929741598246,0.11705837632436931,0.15923183132443464,0.03969047662839888,5.0
0.6223848597117133,0.5947582202799194,-0.23190129389545333,0.19213625801279646,0.16599349925157156,0.049834196874670014,5.0
0.6402220327691489,0.5886948166276202,-0.21998329037492412,0.14734189256489277,0.18402461983286555,0.07473241904171456,5.0
0.6402220327691489,0.5947582202799194,-0.21998329037492412,0.18961263005629034,0.17425776208771518,0.08118751169891901,5.0
0.6330871635461748,0.6068850275845178,-0.2557373009365116,0.19970714188231478,0.11114882172639957,0.0765767272125856,5.0
0.6259522943232007,0.6220435433488527,-0.24977831221498198,0.15680548970677075,0.10213325227235927,0.07104379145264786,5.0
0.6259522943232007,0.6311386421937146,-0.23190129389545333,0.14418735761926013,0.06231451467386115,0.052600664754638905,5.0
0.6259522943232007,0.6311386421937146,-0.23190129389545333,0.1580673036850238,0.028506152129693305,0.04061263352566554,5.0
0.6437894673806364,0.6584239652626481,-0.1723112502153375,0.16689999383777523,0.054050251837717535,0.09040907504792348,5.0
0.6544917712151002,0.6796458714121083,-0.27361431925604024,0.07352582196908622,0.07884304950954175,0.09133123194519017,5.0
0.6437894673806364,0.7008678040959162,-0.24977831221498198,-0.0753681206963726,0.10213325227235927,0.11807375947127459,5.0
0.6402220327691489,0.6917726787167066,-0.2676553044570408,-0.15486235515619537,0.06682229940088133,0.0931755401160612,5.0
0.6259522943232007,0.6584239652626481,-0.24977831221498198,-0.25643831115038673,0.028506152129693305,0.0931755401160612,5.0
0.6259522943232007,0.6159801396965537,-0.24381929741598246,-0.23057113229121917,0.0014594620943589793,0.044301258302901096,5.0
0.6259522943232007,0.6008216239322186,-0.2616963157355111,-0.22804750433471302,-0.012815179232387371,0.024935977519456635,5.0
0.6580592058265875,0.5826314129753211,-0.2795733079775699,-0.21984572117108817,-0.01582036704590852,0.049834196874670014,5.0
0.6758963788840261,0.5614094935586869,-0.24977831221498198,-0.16748047954868606,0.005215947076027447,0.05352282165190557,5.0
0.6437894673806364,0.5765680093230218,-0.24381929741598246,-0.15675506842855502,-0.05789299557613649,0.01848088345633662,5.0
0.6116825558772495,0.5917265250873569,-0.3093683298176277,-0.16748047954868606,-0.054887808048971386,0.009259320810289936,5.0
0.6223848597117133,0.5826314129753211,-0.3093683298176277,-0.1908240304513477,-0.021079445791159543,0.016636571067718837,5.0
0.6402220327691489,0.5826314129753211,-0.2676553044570408,-0.1901931157672012,0.03827301445654031,0.016636571067718837,5.0
0.629519728934688,0.5644412020184235,-0.22594227909645387,-0.14161331607955827,0.03677041954753358,-0.014716742350614565,5.0
0.6188174251002231,0.5644412020184235,-0.22594227909645387,-0.09240260170776886,-0.02333333672288941,0.024013820622189957,5.0
0.6402220327691489,0.5705046056707226,-0.1723112502153375,-0.0627499963038819,0.008972432057695906,0.012947945587525494,5.0
0.6366545981576621,0.5614094935586869,-0.21998329037492412,-0.024264693052223542,0.009723729512199283,0.014792258679101061,5.0
0.6259522943232007,0.5735363008632852,-0.23190129389545333,-0.006599312746720653,-0.03610538543147737,-0.0202496795164679,5.0
0.6366545981576621,0.6038533323919552,-0.24381929741598246,-0.03120466993261535,-0.00980999170522226,-0.03500418143724129,5.0
0.6402220327691489,0.5614094935586869,-0.22594227909645387,-0.022371979779863906,0.02174447962085971,-0.019327524025116796,5.0
0.6402220327691489,0.552314394713825,-0.23786028261698286,0.044504120668693296,-0.008307397941639707,-0.01748321163649902,5.0
0.6509243366036105,0.5705046056707226,-0.24977831221498198,0.10380933724773218,0.032262639402210094,-0.07096827512416136,5.0
0.6223848597117133,0.6008216239322186,-0.20210627205539547,0.0981311781931034,0.08560471743667868,-0.07096827512416136,5.0
0.6081151212657621,0.6493288664177862,-0.208065286854395,0.05081318575057111,0.023247074529866428,-0.029471242865472366,5.0
0.6259522943232007,0.6584239652626481,-0.22594227909645387,-0.03499010417235458,-0.02633852425005452,0.03784616564569668,5.0
0.6330871635461748,0.6099167360442544,-0.10080322909216265,-0.061488182325628846,-0.02633852425005452,0.0018820703771215814,5.0
0.6330871635461748,0.6008216239322186,-0.14847524317427954,-0.016693816877725177,-0.045872245467476064,-0.0423814309917124,5.0
0.6402220327691489,0.5947582202799194,-0.21998329037492412,0.010435164417165653,-0.07817801310263724,-0.059902397980623516,5.0
0.6402220327691489,0.5947582202799194,-0.21998329037492412,-0.0659045235544946,-0.02333333672288941,-0.0008843983815445357,5.0
0.6437894673806364,0.5644412020184235,-0.16039327277227836,-0.002813870811961506,0.06832489430988806,0.04706772899470115,5.0
0.6366545981576621,0.5735363008632852,-0.18422927981333673,0.039456868603191045,-0.006804804178057152,0.035079697765727794,5.0
0.6544917712151002,0.567472897210986,-0.1723112502153375,0.10822568232410791,-0.025587227368263247,0.025858134416723313,5.0
0.6830312481070002,0.5795997045155844,-0.24977831221498198,0.16122183863065645,0.09687417925422909,0.05444497854917226,5.0
0.6580592058265875,0.6190118348891163,-0.2855323227765694,0.1454491715975132,0.12617476165307345,0.0507563537719367,5.0
0.6259522943232007,0.6523605483431748,-0.24977831221498198,0.05459862576157529,0.09537158434522235,0.014792258679101061,5.0
0.6152499904887363,0.6584239652626481,-0.17827026501433732,-0.05517912012938352,0.018739292093694605,0.021247352742221077,5.0
0.6402220327691489,0.5947582202799194,-0.23190129389545333,-0.07284450812990632,0.01723669947553622,0.044301258302901096,5.0
0.6794638134955134,0.5341241837569274,-0.24381929741598246,0.03125508351581114,0.04127819969285707,0.052600664754638905,5.0
0.6830312481070002,0.4795535442526476,-0.1365572657312199,0.10948749630236096,0.08936120470919548,-0.029471242865472366,5.0
0.6437894673806364,0.4795535442526476,0.02433582091212796,0.2886649580939758,0.19228888266900918,-0.07004611822689469,5.0
0.5546038518788171,0.521997376452329,-0.14847524317427954,0.4249407754050662,0.12617476165307345,-0.15672880470967704,5.0
0.629519728934688,0.5583777983661242,-0.24977831221498198,0.33409023053100584,0.0007081657852797821,-0.110620993588317,5.0
0.629519728934688,0.5583777983661242,-0.24977831221498198,0.35743378143366744,0.1705012839785917,-0.052525148426152406,5.0
0.6402220327691489,0.6159801396965537,-0.1246392361332211,0.32967387391210035,0.23060502535850055,-0.09402218068484139,5.0
0.5724407751508875,0.6766141629523718,-0.0948442664481029,0.25207238350471683,0.048039872201690655,-0.21482465549550397,5.0
0.5724407751508875,0.6766141629523718,-0.0948442664481029,0.07037128942814731,-0.03760797804963576,-0.2987408769101485,5.0
0.6152499904887363,0.7463433248545736,-0.1246392361332211,-0.13908968812305209,-0.05714169812163314,-0.3061181320882821,5.0
0.6045476866542753,0.7220897102453765,-0.1365572657312199,-0.363692422351697,-0.05263391797630963,-0.32640556133349957,5.0
0.6045476866542753,0.7220897102453765,-0.1365572657312199,-0.5302517443607813,-0.09245265557480772,-0.36329181472951755,5.0
0.6223848597117133,0.6735824810269831,-0.11868027348916134,-0.6122696375571899,-0.10146822044715138,-0.4084774914482601,5.0
0.6330871635461748,0.53715587894949,-0.08292623685010403,-0.5914496838309548,-0.13302269520950585,-0.4527409775277622,5.0
0.6330871635461748,0.53715587894949,-0.08292623685010403,-0.48230284396724504,-0.15781549288133007,-0.44536372234962895,5.0
0.6473569019921231,0.49471205338339563,-0.10676224389116205,-0.29113817246728596,-0.1285149104824857,-0.3863457259138597,5.0
0.6580592058265875,0.44923652267435815,-0.20210627205539547,-0.13151881964357365,-0.08569098306597417,-0.31441753291635743,5.0
0.6580592058265875,0.44923652267435815,-0.20210627205539547,0.07920398198559249,-0.025587227368263247,-0.22773485205723742,5.0
0.6509243366036105,0.47349014060034844,-0.19018826853486612,0.32399571870498145,0.027754854675189927,-0.16133958919601044,5.0
0.6580592058265875,0.5310924752971908,-0.19018826853486612,0.4041208524589107,0.0014594620943589793,-0.0931000237875747,5.0
0.6402220327691489,0.5735363008632852,-0.16635228757127776,0.4709969471362031,0.07658915714603168,-0.044225741974414624,5.0
0.6366545981576621,0.6099167360442544,-0.19018826853486612,0.6224145321863305,0.11565659729002643,-0.007339492796143444,5.0
0.5760082097623752,0.6584239652626481,-0.19018826853486612,0.7302995734618268,-0.012815179232387371,-0.007339492796143444,5.0
0.5760082097623752,0.6584239652626481,-0.19018826853486612,0.8318754986759387,-0.007556100487136348,0.022169508233572183,5.0
0.6687615096610484,0.7433116163948367,-0.23190129389545333,0.7605830473797406,0.0923663945272089,-0.08664493113037028,5.0
0.6830312481070002,0.7887871636878416,-0.2795733079775699,0.7391322251394785,0.14270328732536072,-0.1954593719002283,5.0
0.6473569019921231,0.8281992675270256,-0.196147283333866,0.7000160379837536,0.1344390244892171,-0.28675284849300636,5.0
0.53676667882138,0.8100090698373019,-0.10080322909216265,0.7246213874746283,-0.09395525048381445,-0.3070402777382242,5.0
0.49752489809501754,0.8191041686821637,-0.08292623685010403,0.7429176824642777,-0.12100194510084541,-0.3891122078529844,5.0
0.4903900288720428,0.8372943929062354,-0.23190129389545333,0.6608998508280285,-0.1983855187709382,-0.40294452757001076,5.0
0.5474689826558424,0.8372943929062354,-0.3034093150186281,0.3088539663559847,-0.11799675528283199,-0.21298034170097058,5.0
0.6937333021560951,0.709962902940778,-0.23190129389545333,0.2306215612644548,0.43946558942292796,0.19276842316057705,5.0
0.7329750828824567,0.6311386421937146,-0.04121323756698708,-0.0684281515110007,0.5551653057825122,0.4832476545950624,5.0
0.5760082097623752,0.6341703506534512,0.12563881172042102,-0.16621868096047288,0.354569022881015,0.7562059162288052,5.0
0.6116825558772495,0.4674267369480492,0.16139284835947834,0.02305329650467626,0.5416419699282383,0.7091759482101785,5.0
0.6580592058265875,0.4158878009283158,0.220982892039594,0.15680548970677075,0.22835114215838376,0.18170254039337688,5.0
0.7187053444365072,0.506838860687994,0.11967984907636126,0.20096895586056784,0.054050251837717535,-0.18808211672209488,5.0
0.7472448213284073,0.5917265250873569,-0.05313121501004618,0.20096895586056784,0.24713356935757458,-0.3955672723918775,5.0
0.6009802520427879,0.6857092883315813,-0.005459200927929769,0.10696387219336483,0.20656352514117965,-0.4767170343620468,5.0
0.49752489809501754,0.8039456529178287,0.1018028046793631,-0.26779462156462436,0.10438714463586936,-0.39741160868106007,5.0
0.5331992442098924,0.8554846171303068,0.13159782651942084,-0.4545429672257573,0.1449571888522641,-0.2821420752539976,5.0
0.5760082097623752,0.7978822625327036,0.14351585611741977,-0.5321444730231808,-0.03760797804963576,-0.12721980649179257,5.0
0.6045476866542753,0.6584239652626481,0.06604882019524551,-0.31889804920877335,0.09161509707270556,-0.2563216821305306,5.0
0.5010923327065049,0.5644412020184235,0.14947487091641912,-0.12268612179580225,-0.1495512208817931,-0.22312405632357943,5.0
0.48682259426055546,0.5583777983661242,0.17926984060153736,0.0918221121493481,-0.238955562987333,-0.1382856892589927,5.0
0.53676667882138,0.6068850275845178,0.20310584764259576,0.35554105277126796,-0.053385215430812996,0.0655108556927101,5.0
0.6223848597117133,0.6644873556477733,0.2329008694826536,0.46784241988559033,0.045034686965373875,0.011103633198907711,5.0
0.6330871635461748,0.7038994860213049,0.1733108779574776,0.5517530109643187,-0.1450434453181663,-0.08295630916496587,5.0
0.6509243366036105,0.7584701321591717,0.06604882019524551,0.4880314435376392,0.014231511948371115,-0.06174671177515687,5.0
0.5046597673179926,0.8858015955902808,0.19118787019953618,0.4060135811213103,-0.13152010030049913,-0.0654353393642236,5.0
0.43687875948509786,0.9191503355786876,0.16735186315847814,0.026207831450308892,-0.22092444240603903,0.11715160257400793,5.0
0.312018797868403,0.9403722417281477,-0.011418215726929231,-0.2412965434113502,-0.3584117757828274,0.166025884387168,5.0
0.4582831173686557,0.9282454609578975,0.07796679763830461,-0.33025439040309074,-0.23144258844229937,0.3126487298266484,5.0
0.58314307898535,0.9070235548084371,-0.208065286854395,-0.42236673386536433,-0.3185930381843292,0.24164270497373713,5.0
0.6616266404380743,0.8736748148200305,-0.21402427557592466,-0.5277281471843548,-0.40874867774437257,0.14204982755288356,5.0
0.6830312481070002,0.8585162725213474,-0.21998329037492412,-0.5561189540000288,-0.12025064764634207,0.028624602296692194,5.0
0.58314307898535,0.8342626844464988,-0.29149131149809904,-0.507539123532306,-0.13527657840962262,0.07842104100711897,5.0
0.4832551596490675,0.7736286479235067,-0.3749173361418031,-0.5889260866545283,-0.4245259151255496,0.08672044745885678,5.0
0.5403341134328671,0.6796458714121083,-0.31532731853915735,-0.5624280085012541,-0.5560028688663111,0.04798988589196782,5.0
0.6223848597117133,0.612948431236817,-0.2795733079775699,-0.40974859408283393,-0.490640054468272,0.01848088345633662,5.0
0.6616266404380743,0.6159801396965537,-0.3749173361418031,-0.11953159454518958,-0.42377462683443956,-0.027626931882770177,5.0
0.6152499904887363,0.6159801396965537,-0.31532731853915735,-0.1529696418838357,-0.4207694370164263,-0.060824554877890215,5.0
0.5403341134328671,0.597789928739656,-0.18422927981333673,-0.034359197183228066,-0.6040858693009529,-0.12445333579999254,5.0
0.5296318095984047,0.5735363008632852,-0.16635228757127776,0.06974038291995953,-0.8159515865298205,-0.11707609186918375,5.0
0.4939574634835299,0.5129022643402932,-0.21402427557592466,0.07163310292546163,-0.9932576758318936,-0.09217786689030803,5.0
0.5724407751508875,0.47349014060034844,-0.21998329037492412,0.18582718812153115,-1.2216519553866216,-0.20836956846196178,5.0
0.964857833058409,0.4280146098913109,-0.4523843720639775,0.3965499993694723,-0.7708737759131923,-0.2480222813024551,5.0
0.9327509215550216,0.4371097153697598,-0.5298514014667844,0.7019087666461531,-0.3366241587656231,-0.17701624520221937,5.0
0.8685373483336151,0.45833163146960043,-0.4940973843858295,0.9965421535827829,-0.13452529011851255,-0.15027371767613493,5.0
0.7936214712777436,0.5341241837569274,-0.4583433738242421,1.1782432433309036,0.0923663945272089,-0.19084859866121953,5.0
0.6973007367675819,0.6341703506534512,-0.5119743896666232,1.0810835823954583,0.17500905037882522,-0.18900428486668616,5.0
0.6437894673806364,0.7190580017856399,-0.5238923997065199,0.9044297485603497,0.19829926230503606,-0.12721980649179257,5.0
0.6259522943232007,0.7554384236994353,-0.5417694049873135,0.6325090440123549,0.10739233445388278,-0.03777064931721018,5.0
0.6402220327691489,0.7281531006305018,-0.535810403227049,0.23756153044982667,0.04728857474718731,0.03784616564569668,5.0
0.6616266404380743,0.6614556737223847,-0.5656054120283719,0.05459862576157529,0.057806734528537664,-0.0018065549273323187,5.0
0.6509243366036105,0.6008216239322186,-0.5834824205688494,0.03251689557030923,0.045034686965373875,-0.14935156077886824,5.0
0.6544917712151002,0.5432192826017892,-0.5834824205688494,0.06721675664673904,0.11340270492651633,-0.28398636655388176,5.0
0.6758963788840261,0.5280607801046282,-0.5417694049873135,0.2362997164715736,0.28019063902893565,-0.30980675967734855,5.0
0.6509243366036105,0.5856631081678836,-0.4047123579818609,0.2836177021809635,0.4003981584423265,-0.2517109088915218,5.0
0.6259522943232007,0.5886948166276202,-0.4285483650229192,0.29560492727934756,0.32301454811866065,-0.2793755933148729,5.0
0.6402220327691489,0.6523605483431748,-0.4940973843858295,0.2634286939189544,0.10213325227235927,-0.3762019887966018,5.0
0.6758963788840261,0.7645335225442972,-0.5596464102681074,0.07478763594733927,0.07583785969152834,-0.21943542873451272,5.0
0.6830312481070002,0.7524067152396986,-0.5954004240893784,-0.024895600041350083,0.0923663945272089,0.016636571067718837,5.0
0.6544917712151002,0.7160262933259034,-0.4285483650229192,0.0009715672752876824,0.15021626187039433,0.03046891609122555,5.0
0.629519728934688,0.6675190641075098,-0.4583433738242421,0.11516565535698974,0.1795168351058454,-0.12168687635551714,5.0
0.629519728934688,0.6675190641075098,-0.4583433738242421,0.16437636588126914,0.2982217412834431,-0.23418993909077954,5.0
0.629519728934688,0.7038994860213049,-0.44046636854344834,0.06910947641177173,0.323765873063344,-0.3420822173397085,5.0
0.5331992442098924,0.725121418705113,-0.3570403438997443,-0.03688282513973416,0.35231515800768476,-0.3780463250857844,5.0
0.5331992442098924,0.725121418705113,-0.3570403438997443,-0.10060438487139378,0.06832489430988806,-0.3466930130733666,5.0
0.4903900288720428,0.7463433248545736,-0.3034093150186281,-0.10691345476265904,-0.10973248328329502,-0.28398636655388176,5.0
0.6651940750495616,0.8281992675270256,-0.3093683298176277,-0.2349874889101247,-0.06991374568479691,-0.03869280621447684,5.0
0.6651940750495616,0.8281992675270256,-0.3093683298176277,-0.35927609651287107,0.07283266987351489,0.07565457031531894,5.0
0.6402220327691489,0.8372943929062354,-0.4047123579818609,-0.44318665681151975,0.030760044493203374,0.06274438500091005,5.0
0.5581712864903045,0.7402799079351001,-0.2676553044570408,-0.46968473496479407,-0.06014688793964656,0.09870847587599896,5.0
0.5581712864903045,0.7402799079351001,-0.2676553044570408,-0.5024918676192938,-0.006804804178057152,0.1263731715466747,5.0
0.6259522943232007,0.6372020591131876,-0.29149131149809904,-0.36495425171998996,0.07057878667339812,0.035079697765727794,5.0
0.6330871635461748,0.612948431236817,-0.23190129389545333,-0.21984572117108817,0.011226322130357668,-0.06266886867242356,5.0
0.6045476866542753,0.6523605483431748,-0.19018826853486612,-0.20470398421213112,-0.02408463360468069,-0.05068084025528134,5.0
0.6152499904887363,0.7220897102453765,-0.23190129389545333,-0.16558776627632638,-0.009058694250718901,0.045223415200167795,5.0
0.6330871635461748,0.725121418705113,-0.21998329037492412,-0.1775749913747105,0.06832489430988806,0.166025884387168,5.0
0.629519728934688,0.7554384236994353,-0.21998329037492412,-0.16432595229807329,-4.313052379941069e-05,0.187235481776977,5.0
0.593845382819812,0.7402799079351001,-0.1723112502153375,-0.10375892751204634,-0.013566476114178645,0.26193013421895484,5.0
0.590277948208325,0.7311848090902384,-0.196147283333866,-0.024264693052223542,0.03827301445654031,0.25455290153547067,5.0
0.6081151212657621,0.725121418705113,-0.17827026501433732,0.03188598858118269,0.11265140747201298,0.20383430592777718,5.0
0.6402220327691489,0.7372482260097116,-0.1246392361332211,0.06910947641177173,0.290708785065196,0.16049295425089255,5.0
0.629519728934688,0.74937503331431,-0.21998329037492412,0.30569943910537195,0.14044940412524395,0.10885220174593241,5.0
0.5760082097623752,0.8009139709924402,-0.18422927981333673,0.26279779462484787,-0.009058694250718901,0.15772648355909252,5.0
0.6152499904887363,0.7554384236994353,-0.21998329037492412,0.25081056952646374,0.09011250216369883,0.1909241093660437,5.0
0.6045476866542753,0.7433116163948367,-0.1723112502153375,0.2703686784943662,0.06231451467386115,0.13836119996381688,5.0
0.5795756443738623,0.7827237467683686,-0.1723112502153375,0.27163049247261917,-0.017322961024258104,0.08672044745885678,5.0
0.5867105135968373,0.7796920383086321,-0.23190129389545333,0.03504052160306035,0.1945427841959126,0.2241217351729949,5.0
0.6152499904887363,0.7887871636878416,-0.04717220021104684,0.14355645063013361,0.21182261648609657,0.26654092995261286,5.0
0.6758963788840261,0.7190580017856399,-0.208065286854395,0.013589699362798288,0.4732739657121857,0.3015828695540974,5.0
0.6045476866542753,0.6614556737223847,-0.059090229809045644,0.1044402442368587,0.4447246807678449,0.3504571513672574,5.0
0.518929505763942,0.6735824810269831,0.018376806113128617,0.0937148331167277,0.3365379206265075,0.3467685237781909,5.0
0.518929505763942,0.7038994860213049,0.02433582091212796,0.029362362548431567,0.22534595234037036,0.3274032401829152,5.0
0.5403341134328671,0.734216517549975,0.042212813154187,0.010435164417165653,0.0690761917643914,0.20014567833871047,5.0
0.5474689826558424,0.734216517549975,0.036253798355187654,-0.052655492172877384,-0.06690856044848015,0.10608573105413238,5.0
0.5617387211017921,0.7220897102453765,-0.023336193169988452,-0.07473722140226596,-0.14053566059114614,0.03323538397119443,5.0
0.5795756443738623,0.7160262933259034,-0.023336193169988452,-0.07347540742401289,-0.15631289797232337,-0.023016150208267933,5.0
0.6045476866542753,0.7220897102453765,-0.005459200927929769,-0.0936644156860219,-0.1518051132453032,-0.01563889924788124,5.0
0.5974128174312997,0.725121418705113,-0.03525422276798726,-0.10880618342505856,-0.20664979993386848,-0.04607005576894795,5.0
0.6259522943232007,0.6948043871764432,-0.05313121501004618,-0.1106988966974182,-0.12926620793698906,-0.05160299152888574,5.0
0.6794638134955134,0.6281069337339781,0.006458776515129809,-0.009753847692353287,-0.04737483808563445,-0.039614963111743534,5.0
0.6687615096610484,0.6068850275845178,-0.011418215726929231,0.027469641581051987,-0.05563910550347473,-0.06727965315875693,5.0
0.6152499904887363,0.6220435433488527,-0.059090229809045644,0.05586043877795085,-0.13452529011851255,-0.1428964624980015,5.0
0.5474689826558424,0.6584239652626481,-0.08888525164910349,0.04134958764681566,-0.25999187338664037,-0.24894444944704638,5.0
0.53676667882138,0.6978360956361798,-0.08888525164910349,0.021791482526423205,-0.3817019693822516,-0.29413010367113984,5.0
0.5153620711524547,0.7372482260097116,-0.10676224389116205,-0.02111016580161085,-0.42377462683443956,-0.33378281651163316,5.0
0.5403341134328671,0.7948505540729668,-0.18422927981333673,-0.07915356263113173,-0.44631353214275393,-0.338393589750642,5.0
0.58314307898535,0.8585162725213474,-0.29149131149809904,-0.19271674372370715,-0.42677981665245307,-0.3070402777382242,5.0
0.6402220327691489,0.8827699401992403,-0.39875334318286143,-0.2785200326847554,-0.31784174989321917,-0.25908816406965524,5.0
0.6723289442725364,0.870643106360294,-0.4047123579818609,-0.33277801835959686,-0.16833364808098378,-0.1742497745104193,5.0
0.6580592058265875,0.8433577832913606,-0.3093683298176277,-0.3567524685563651,-0.0037996155054678786,0.0018820703771215814,5.0
0.6580592058265875,0.7675652310040336,-0.21998329037492412,-0.30817263808864237,0.12392086928956339,0.0894869181506568,5.0
0.6081151212657621,0.7008678040959162,-0.11868027348916134,-0.27473460614003625,0.15472404659741448,0.06182222810364338,5.0
0.6081151212657621,0.6857092883315813,-0.11272125869016193,-0.1883004024948415,0.08560471743667868,0.07842104100711897,5.0
0.5795756443738623,0.6675190641075098,-0.11272125869016193,-0.13530424618829293,-0.00455091295997124,0.015714414170452162,5.0
0.5474689826558424,0.6796458714121083,-0.1305982509322205,-0.0646427172712615,-0.11799675528283199,-0.0645131824669569,5.0
0.53676667882138,0.6948043871764432,-0.11272125869016193,-0.03940645309624028,-0.15781549288133007,-0.07096827512416136,5.0
0.5724407751508875,0.709962902940778,-0.15443425797327895,-0.025526507030476594,-0.1811057048075409,-0.04883652646074801,5.0
0.6009802520427879,0.725121418705113,-0.18422927981333673,-0.08356991925003734,-0.25247889884160685,-0.055291619117952426,5.0
0.6188174251002231,0.7372482260097116,-0.16039327277227836,-0.1081752687409121,-0.2795255888769411,-0.05898024670701916,5.0
0.6152499904887363,0.7372482260097116,-0.21402427557592466,-0.11006798201327171,-0.28027689549483786,-0.059902397980623516,5.0
0.6259522943232007,0.7311848090902384,-0.22594227909645387,-0.08609353181650359,-0.25548408865962025,-0.08295630916496587,5.0
0.6402220327691489,0.7402799079351001,-0.2616963157355111,-0.03814463911798721,-0.18786737273467777,-0.09033355871943696,5.0
0.6616266404380743,0.7402799079351001,-0.27361431925604024,0.012327885384545248,-0.054887808048971386,-0.07189043202142802,5.0
0.6580592058265875,0.7372482260097116,-0.2676553044570408,0.04576593272319137,0.0555528421650276,-0.0285490859682057,5.0
0.6188174251002231,0.7463433248545736,-0.208065286854395,0.09686936421485036,0.06081191976485445,-0.03131555666000573,5.0
0.6152499904887363,0.7402799079351001,-0.21998329037492412,0.11579656234611625,0.054050251837717535,-0.029471242865472366,5.0
0.590277948208325,0.7463433248545736,-0.19018826853486612,0.14734189256489277,-0.011312585468804813,-0.04883652646074801,5.0
0.5795756443738623,0.7554384236994353,-0.16039327277227836,0.0855130480293478,-0.08794487542948423,-0.06174671177515687,5.0
0.593845382819812,0.7584701321591717,-0.19018826853486612,0.07163310292546163,-0.05939559048514321,-0.02486046119097014,5.0
0.6009802520427879,0.7524067152396986,-0.20210627205539547,0.08425123405109473,-0.051131323067302906,-0.08480062295949921,5.0
0.6045476866542753,0.7463433248545736,-0.20210627205539547,0.09686936421485036,-0.08343709070246409,-0.07373474581596139,5.0
0.6081151212657621,0.7433116163948367,-0.23786028261698286,0.15049642751052542,-0.019576851884398963,-0.08480062295949921,5.0
0.5974128174312997,0.7463433248545736,-0.24977831221498198,0.11768928331349585,-0.04662354292197941,-0.07650121088409914,5.0
0.6116825558772495,0.7463433248545736,-0.24977831221498198,0.11390384137873667,-0.02633852425005452,-0.046992212666214644,5.0
0.6330871635461748,0.7463433248545736,-0.27361431925604024,0.12399834935725115,0.01949058954819795,0.007415008070193262,5.0
0.6259522943232007,0.7311848090902384,-0.20210627205539547,0.13283103951000255,0.08335083423656192,0.010181477004598823,5.0
0.6045476866542753,0.734216517549975,-0.3034093150186281,0.14923461353227235,0.032262639402210094,0.023091665130838858,5.0
0.6081151212657621,0.7372482260097116,-0.2557373009365116,0.13346194649912912,-0.014317773282325964,0.017558726559069943,5.0
0.5974128174312997,0.7311848090902384,-0.2557373009365116,0.14166372966275403,0.009723729512199283,0.03231322707392775,5.0
0.6081151212657621,0.7645335225442972,-0.3034093150186281,0.15049642751052542,-0.03610538543147737,0.024935977519456635,5.0
0.6259522943232007,0.7433116163948367,-0.3391633255802156,0.13156922553174952,-0.02408463360468069,-0.007339492796143444,5.0
0.6330871635461748,0.7311848090902384,-0.27361431925604024,0.12084381441161851,-0.013566476114178645,0.02770244539942552,5.0
0.6330871635461748,0.7220897102453765,-0.21998329037492412,0.1353546674665087,-0.0015457254328061294,0.03692400874842998,5.0
0.6330871635461748,0.7190580017856399,-0.22594227909645387,0.1574363966958973,0.010475026966702633,0.03600185185116332,5.0
