acc_x,acc_y,acc_z,gyro_x,gyro_y,gyro_z,activity
-0.8290604956073961,0.30309624598172247,5.1221847440934045,0.16267915938104513,0.2673513679776024,1.6357660162632026,0.0
-0.8562366312051091,0.3061004946071813,5.23702587623589,0.2786506738678195,0.4617700874839658,1.7420958767078223,0.0
-0.8562366312051091,0.3061004946071813,5.23702587623589,0.46431152805236553,0.6796657269013818,1.887445778608094,0.0
-0.8562366312051091,0.3061004946071813,5.23702587623589,0.4834627763724658,0.6613243720355911,1.9118332093340433,0.0
-0.8460455357583287,0.3121089918580991,5.376476519843459,0.41643335534467957,0.5432058391010895,2.1361990188070448,0.0
-0.9615443796344364,0.3121089918580991,5.696392127879429,0.26588315768527426,0.3994093735615828,2.5107919498107742,0.0
-1.0158967697568966,0.3391471506051927,5.991698798808181,0.21268522549877092,0.26588405600904935,2.6766275067326304,0.0
-1.0023087614215573,0.3631811133148515,6.1639607842008415,0.2930141360616125,0.006903672523922573,2.77807976681146,0.0
-0.9921176659747774,0.3661853619403102,6.024510140593272,0.4589917426198306,-0.0693965050997146,2.8083204321969575,0.0
-1.0566610920805006,0.3631811133148515,5.581550421379077,0.6015622621304334,0.19838775914495518,2.687357961022635,0.0
-1.1008224462196978,0.3511641188130161,5.1385907021648825,0.6856150380682801,0.5622808767958306,2.485428884791067,0.0
-1.0872343189573241,0.3631811133148515,5.04015495373601,0.6510363289419315,0.631978168457428,2.2688673881974633,0.0
-1.0872343189573241,0.3631811133148515,5.04015495373601,0.5345328411026471,0.4331575309418544,2.1810721045545782,0.0
-1.032881928834864,0.39622774301885083,5.23702587623589,0.5196373796026265,0.33338037076959254,2.141076428805168,0.0
-1.0464700560972375,0.45330836172652095,5.55694148427186,0.5829429612091254,0.27615523978892087,2.183998626700519,0.0
-1.0566610920805006,0.45330836172652095,5.6225653165577745,0.6802952526357451,0.467639335358178,2.141076428805168,0.0
-1.0838373466052482,0.43528292256179185,5.409288435986416,0.7340251581747583,0.42948922417579816,2.2278962685219614,0.0
-1.1110135416664781,0.42026167943449777,5.3026497085218045,0.6366728667481386,0.4177507642202716,2.372270536128475,0.0
-1.1212045776497412,0.3992319916443098,5.212416939128672,0.5185734328976066,0.3832689240110497,2.4444577651155655,0.0
-1.1381897367277085,0.39021929835595714,5.1796055973435795,0.4409044410047503,0.42582095320264,2.4073886115120953,0.0
-1.1381897367277085,0.39021929835595714,5.1796055973435795,0.3893024288757768,0.5366029441908253,2.315691361797179,0.0
-1.1279986412809277,0.38421080110503936,5.163199639272102,0.47814299093993085,0.5688837717060947,2.1800964702608203,0.0
-1.1246016094653348,0.40223624026976856,5.0811698489147075,0.5770911764703628,0.509457681720818,2.0162121819264804,0.0
-1.0906313507729177,0.4382871711872508,5.2042139600929325,0.7425368356297886,0.6114358008976849,1.707953245250293,0.0
-1.1076165098508848,0.4593168589774388,5.212416939128672,0.762220031348681,0.8513411377398461,1.4006698476840305,0.0
-1.0906313507729177,0.47433804951670894,5.1796055973435795,0.6643357925232691,0.9951376032793529,1.3314091408428805,0.0
-1.0091028250527445,0.4503041131010622,5.433897373093634,0.5574079288440348,0.9474500090425008,1.3431152294266435,0.0
-0.9955146977903707,0.4382871711872508,5.474911693914466,0.3988780530358269,0.9313095594919677,1.546995288694227,0.0
-1.0091028250527445,0.41425323477160386,5.4831146729502045,0.35046793292934864,0.7559659492661419,1.7050267231043523,0.0
-1.0464700560972375,0.38421080110503936,5.433897373093634,0.3946222143083118,0.406745915507899,1.9645104175933075,0.0
-1.077043282974061,0.3872150497304982,5.401085456950677,0.480270936257406,0.31797360404800995,2.065962677672137,0.0
-1.060058123896094,0.3992319916443098,5.392882477914938,0.4542039045860879,0.4309565540408002,1.9235392979178056,0.0
-1.060058123896094,0.3992319916443098,5.392882477914938,0.35631971766811144,0.29302931847905667,1.958657373301426,0.0
-1.0124998568683379,0.40524048889522735,5.442100352129374,0.3536597730444084,0.2820244876631332,1.8991516768241896,0.0
-0.9683384432656232,0.38421080110503936,5.474911693914466,0.3073775982554054,0.19031754331791326,1.778189396017534,0.0
-1.0091028250527445,0.3571726160639339,5.409288435986416,0.4499480658585727,0.13602703627434767,1.6523495148450882,0.0
-0.9581473478188428,0.39322354698141593,5.409288435986416,0.48878256180500096,0.09787695193664138,1.3792087487363547,0.0
-0.97513250689681,0.3872150497304982,5.376476519843459,0.480270936257406,0.0824701863335867,1.1889857610885497,0.0
-0.954750434930284,0.37820230385412185,5.335461624664762,0.47388715221241573,0.0780682537835117,0.9197469610518479,0.0
-0.9513534031146907,0.3992319916443098,5.261634813343108,0.42388108609468983,0.1455645595958304,0.7304994649220506,0.0
-0.9649414114500299,0.3992319916443098,5.269837792378847,0.34780804021308126,0.183714648407649,0.7539114993138251,0.0
-0.97513250689681,0.3992319916443098,5.286243750450326,0.308973544266653,0.32017456305261505,0.7841521171074057,0.0
-0.9513534031146907,0.41725748339706265,5.23702587623589,0.3137613303929602,0.3055014612635333,0.917795978015832,0.0
-0.9411623076679103,0.4503041131010622,5.212416939128672,0.28237456519654247,-0.0180406130450306,0.985105701820966,0.0
-0.9445593394835036,0.4713338008912502,5.1796055973435795,0.2249207683288064,-0.039316627640825656,0.9392570769635076,0.0
-0.9513534031146907,0.4563126103519798,5.163199639272102,0.09618173765948645,-0.27041810161989316,1.063145879916104,0.0
-0.937765275852317,0.47433804951670894,5.335461624664762,0.04245180616675539,-0.3430500172185968,0.9090164115780104,0.0
-0.9309712122211299,0.4833507953930854,5.409288435986416,-0.05330451329489893,-0.2528103579972561,0.8524373324305478,0.0
-0.9139860531431628,0.4503041131010622,5.466708714878727,0.047239618246780544,-0.42815403980887873,0.7529360077958172,0.0
-0.9173830849587562,0.41124898614614513,5.351867582736241,0.1727867828473228,-0.6797978723994645,0.7919561444353032,0.0
-0.9275741804055369,0.44129141981270953,5.196010981057193,0.08447816818196115,-0.5550764445546986,0.7568380214597659,0.0
-0.9513534031146907,0.46532535622835625,5.089372827950446,-0.03521721167981858,-0.11561680526446284,0.5861250545397868,0.0
-0.9581473478188428,0.45330836172652095,5.097575806986186,-0.05596440601116644,0.41995170532842757,0.5724679829200081,0.0
-0.9513534031146907,0.4713338008912502,5.23702587623589,-0.08469129795660507,0.754498655194038,0.4924767741969374,0.0
-0.9275741804055369,0.4563126103519798,5.310852687557544,-0.1352293504036998,0.7853121170514068,0.7109893966023076,0.0
-0.9071919895119761,0.4262701766854155,5.23702587623589,-0.09320296892320586,0.31357166814235066,0.8914573738861999,0.0
-0.9105890213275695,0.41425323477160386,5.130387723129143,0.023300531892937393,-0.09067250179906056,1.0377828148963968,0.0
-0.9003980448078236,0.40524048889522735,4.884298639235896,-0.04213294312360124,-0.3804664455720265,1.2465403793459369,0.0
-0.8970010129922301,0.41425323477160386,4.785863177985956,-0.1575724875020805,-0.6930036622199931,1.567480848531978,0.0
-0.9343682440367235,0.42026167943449777,4.884298639235896,-0.1974709500243437,-1.0598314038079746,2.0259671922903935,0.0
-0.97513250689681,0.40524048889522735,5.097575806986186,-0.1150141294248619,-0.9387782469363668,2.46494342013715,0.0
-0.869824758467483,0.41425323477160386,5.163199639272102,-0.1490608165354797,-1.0723035823853495,2.965376232313325,0.0
-0.7815021691161226,0.3992319916443098,5.097575806986186,-0.20545064236658558,-1.576324858809675,3.4609316344913776,0.0
-0.6694003570556087,0.39021929835595714,5.113981765057664,-0.04532482216923755,-1.5829277895128375,3.5009271198731198,0.0
-0.7067675881001018,0.32713018239736946,4.8432837440571985,-0.3171663327248112,-1.7384628223865655,3.6735913553806174,0.0
-0.7169586835468821,0.3631811133148515,4.892501618271634,-0.26875619964147407,-2.2652273358929937,3.679444399672498,0.0
-0.6524151979776416,0.5254101709734613,5.286243750450326,0.7287053727422234,-0.7384902795557909,2.758569746083634,0.0
-0.7237527471780693,0.6726180380928011,5.409288435986416,1.040977286324896,0.4507652387715932,2.0230406701444528,0.0
-0.7984872092670554,0.4503041131010622,5.1385907021648825,1.3367578962111717,0.7706390331587741,1.614304917315527,0.0
-0.6761944206867957,0.33614292827374576,4.925313534414593,1.4468776519129014,1.6187448140889789,1.1167985321014595,0.0
-0.6524151979776416,0.25803262177588787,4.564383318378858,0.9367092634544938,1.180018803938346,-0.07331482634027228,0.0
-0.5980628078551813,0.23399868536024093,4.080408416807034,-0.12033392134582635,1.2709921101957382,-0.5600907096724195,0.0
-0.5980628078551813,0.23399868536024093,4.080408416807034,-0.7007235579702208,0.3590583033745977,-0.3727941727826794,0.0
-0.6218419116373007,0.28807502914844024,4.810472115093174,0.3217410085417629,0.007637328508199095,0.46418718703128947,0.0
-0.6218419116373007,0.28807502914844024,4.810472115093174,1.4617731134129217,-0.22419780145514492,-0.00405413139710178,0.0
-0.5165341632079735,0.39021929835595714,5.36007056177198,2.099616456067041,-0.478776257982837,0.800735663281208,0.0
-0.5335193222859405,0.5194016737225438,4.884298639235896,2.3081525018078453,-0.8492723063368748,2.1010807530557574,0.0
-0.5335193222859405,0.5194016737225438,4.884298639235896,3.6774675353065436,3.062578788944055,4.992471117140734,0.0
-0.27874253075160615,0.6756222867182597,5.04015495373601,3.3300851209210376,2.615782625603951,5.448030843569375,0.0
-0.6490181661620482,0.6485841016771541,5.778421343878956,1.286751830093446,-0.5279311820846914,5.6841023608908054,0.0
-0.6660033252400152,0.6335629111378839,6.0081041825217945,-0.7826483885905923,-6.093441595277049,4.714452845850045,0.0
-0.5403133859171274,0.552448356014567,4.547977360307379,-0.6406098683862173,-11.077897614295136,2.790761299321314,0.0
-0.5063431866882278,0.5314186682243791,3.9327550813426573,1.26866447657093,-10.592217191636024,2.6434603192011923,0.0
-0.11908227327278431,0.40223624026976856,3.6866662846283424,3.024728834967275,-9.700092087442123,4.148661102537083,0.0
0.4244416279518196,0.24301140494260562,3.5882308233784026,3.855148763249723,-9.39635870681258,5.320240074544748,0.0
0.5874986793921646,0.2279901881093234,3.5800278443426627,3.5801153476947944,-11.922335124252182,6.6391198363048645,0.0
0.6656304111508144,0.06576111730370743,3.251909257270954,2.733735959299872,-15.797503366629938,8.08774163567713,0.0
0.5603226627214883,-0.03337887698433859,3.096052942770839,1.4420898138791585,-17.50765368528186,8.027260304906134,0.0
0.43123569158300573,-0.08445099803024708,2.710513789627887,-0.6124149433048591,-17.101209003747073,8.216507848627847,0.0
0.21382613109316442,-0.048400090530869334,2.0706828607348795,-2.4775351106979144,-16.74245077107639,7.777531430413425,0.0
0.06775400087671646,-0.08445099803024708,0.9304711439933032,-4.006976069830939,-14.775520482102248,4.3379086462588,0.0
-0.10549426493744485,-0.24668008239371284,0.2988431313156437,-3.2685884399128344,-9.712564051262111,1.8474501028586836,0.0
-0.3195067936116928,-0.5741425120714214,-0.25075528844013806,-1.7577667817011176,-8.608412698696602,2.160586449532994,0.0
-0.3874473109965267,-0.7483885116438427,-1.3417492386593786,-0.7033834506864884,-9.491733895286284,3.842353434448413,0.0
-0.43160860567220694,-0.29174371974655355,-2.432743152981253,0.20417357399745845,-8.968637581167217,2.872703538672317,0.0
-0.22778717244473923,-0.29174371974655355,-3.261242312517332,1.36388887458751,-8.90114133799247,1.9888980386869237,0.0
-0.0511418748149846,-0.22565038145651892,-3.466316214052951,2.3352834801841844,-7.642188277453201,2.597611789527568,0.0
-0.09870020130625791,-0.27972673839172424,-3.2858512496245504,2.0788692617356923,-5.1360210816378675,3.6296937135591736,0.0
-0.40443235114745946,-0.2707140188093597,-3.458113235017211,0.7185977492759456,-4.3245983683682265,3.3068023565209494,0.0
-0.6252389434528941,-0.282730987017183,-4.557310128374825,1.9953485370115087,-4.072220924534488,2.471771908355122,0.0
-0.5063431866882278,-0.32178612711910626,-5.156126162089135,2.2373991375439006,-3.4038607076322154,1.2455649354198457,0.0
-0.1904198224732115,-0.3368073439523885,-4.606528002589261,1.0861955144088793,-1.5367075609338858,0.8524373324305478,0.0
-0.12247930508837737,-0.39388796266005843,-4.360439205874946,-0.21130241737270414,-3.3326961218985147,0.17446287474875377,0.0
-0.29233053908694534,-0.5290788615715747,-3.8436523881601636,-0.4661205843729689,-3.857259944847075,-0.27621939408984814,0.0
-0.6286359752684874,-0.5080491474873748,-3.6959990526957878,-0.7885001733293548,-5.785306547188581,-1.0946662008980401,0.0
-0.9343682440367235,-0.45998127465608124,-4.138959059088915,-0.1495927963764191,-7.281229783739436,-1.7267919385385426,0.0
-1.1110135416664781,-0.2526885664976246,-4.376844876767492,1.6942480378778273,-3.1896333391879588,-2.114066592419793,0.0
-0.8392515910541766,-0.2586970506015363,-4.951052260553516,2.221971832459959,-0.5748851650783899,-0.135747009269512,0.0
-0.767914041853749,-0.24668008239371284,-5.21354701533931,2.435827559818428,-0.034181035750889883,1.0943619892276926,0.0
-0.6592092616088284,-0.3608412803680352,-5.517056665303802,2.230483406100119,0.406745915507899,1.7655078635076802,0.0
-0.6592092616088284,-0.363845528993494,-6.04204617487539,1.4463457045141093,-1.8081600424623663,1.2494669014918776,0.0
-0.869824758467483,-0.4539728036991756,-5.42682389591067,-1.257706016708988,-7.46391043701215,0.08276561313585812,0.0
-0.8800158539142633,-0.6582612632321734,-4.40145381387471,-0.626778405498652,-3.166156347691109,-0.13672251268549912,0.0
-0.5233282268391602,-0.5651297661950448,-4.434265730017667,1.2963274023460605,4.57244178448757,-0.7942113867335837,0.0
-0.31610976179609923,-0.6702782577340087,-4.516295233196128,0.8319093970001703,3.546057805187332,-2.444762071969747,0.0
-0.5810776487772144,-0.7664140033965958,-4.040523597838975,1.367080766610005,7.2788968760976855,-3.212482701146607,0.0
-0.6388270707152679,-0.7303630724791136,-3.597563591445848,2.492217306166272,13.158411871595915,-1.592172681295942,0.0
-0.21759607699795896,-0.6522527659812557,-4.819805170339552,1.8676734790009262,9.127708882687616,-1.373660011298655,0.0
-0.09530316949066459,-0.5801509567343153,-5.016676092839432,-0.31557039969042244,4.814548098230787,-4.732316095212202,0.0
-0.18022872702643122,-0.724354575228196,-4.073335513981934,-0.8241427772532879,5.623770264114152,-4.302119433803268,0.0
-0.29233053908694534,-1.036795801219628,-3.9584940946605145,-0.4496292287691362,4.143987047599054,-1.6214377123876813,0.0
-0.3466829292094056,-1.0157660608414163,-3.556548983446084,-0.003830420529682922,6.017009370585801,1.5928439135516852,0.0
0.6350571248104734,-0.6702782577340087,-3.0233562076598233,-0.1831075036460975,5.183576601962431,1.1265535424653723,0.0
0.35989826130961294,-0.7363715697300313,-2.9823415996600593,-0.03681314471420734,3.58053953801786,0.3822449714762444,0.0
-0.01717155665905019,-0.9466685002199348,-2.629614075481132,0.16055124001728754,3.415466986296763,-0.33084756158916995,0.0
-0.01717155665905019,-0.9466685002199348,-2.629614075481132,0.17544667556359037,4.040541562764288,-1.1053967503718785,0.0
-0.08171504222829071,-0.9436643041824999,-2.3917282578025554,0.4446282804260378,5.623770264114152,-1.7453265153402777,0.0
0.28176652955096415,-0.7303630724791136,-2.0554068352845736,0.666995737146972,5.374327551596213,-3.403681132720505,0.0
-0.4995491230570408,-0.6522527659812557,-1.079254483873584,1.4048512120365426,8.387450468808488,-3.310033185521072,0.0
-0.21759607699795896,-0.5410958297793981,-1.185892924159263,0.4696313134849006,6.8878586033554985,-5.192753422006632,0.0
0.19004690838401056,-0.5681340148205035,-1.3417492386593786,0.35259582633938846,6.7081129677417675,-5.113737514433904,0.0
0.4074564688738513,-0.4509685550737165,-1.2597195918914512,0.04989951096304795,5.930438089716313,-3.4222157095222387,0.0
1.018921006410322,-0.4329430896149756,-0.8741803669537662,0.2520516947977091,5.141758470357181,0.8270742674108406,0.0
0.6894096338599689,-0.3578370317425764,-0.5952796540964934,-0.010746151973465652,4.250366977406436,1.311899120115055,0.0
0.6894096338599689,-0.3578370317425764,-0.5952796540964934,0.2584354788426995,4.631134120058101,0.9080409676519192,0.0
0.6078808702857262,-0.48701945969718674,0.06095724184233432,-0.21502627301506513,2.681811646292391,0.7861031001434217,0.0
0.6656304111508144,-0.5591212689441273,0.3152490534897558,-0.14108112540981832,1.8850617305721973,0.3802939646442701,0.0
0.6656304111508144,-0.5591212689441273,0.3152490534897558,-0.34642520451118924,0.2526782661885208,0.34420035015072514,0.0
0.5025731218564001,-0.5651297661950448,0.5531349339887236,-0.401751069038309,-1.5455113253665096,0.2554295987857908,0.0
0.20023800383079082,-0.5591212689441273,-0.021072378002568056,-0.21928210849836555,-1.961493955263447,0.41833856217383125,0.0
0.20023800383079082,-0.5591212689441273,-0.021072378002568056,-0.058624298727433945,-1.2674559131348664,0.8426822268828013,0.0
0.39386834161147904,-0.5501085230677506,-0.21794344409191374,-0.27035213916429224,-0.8654126843016112,0.7890296222893624,0.0
0.5127642173031796,-0.5561170203186683,-0.43942341139111096,-0.37036427788817344,-0.0870042308259024,0.6056350752676126,0.0
0.5161612491187729,-0.5651297661950448,-0.5788737678197474,-0.5799642054497036,0.8924258728593322,0.9675466641291556,0.0
0.28176652955096415,-0.5230703643206571,-0.5378589444357837,-0.8709570032559542,1.910006087726947,0.725621959740094,0.0
0.4550149142921601,-0.5771467081088563,-0.23434936626602587,-0.6533773845687626,3.0427701400061604,0.2817681791194645,0.0
0.7301737777930195,-0.5831552053597739,-0.21794344409191374,-0.5060190529781348,2.468317889091287,0.2027524500164226,0.0
0.4855879627784318,-0.5380915811539394,0.20040759154021456,-0.631034244226167,1.5615197010047563,0.26323362611368795,0.0
0.46860304155453564,-0.5891637026106915,0.5367290118146114,-0.5624088771871332,1.1528735414683384,0.03789248723264485,0.0
0.43802975521419185,-0.6312230781910676,0.43829347876993846,-0.3639805327737596,0.025245058708499187,-0.10257990502392825,0.0
0.46520600973894227,-0.6131976390263385,0.29064017022858757,-0.2607765085158127,-0.31810569585674525,-0.3864512206064994,0.0
0.522955312749959,-0.6852994482732788,0.29064017022858757,-0.29322725934782706,-0.43549058175519484,-0.7473872227662008,0.0
0.3870742779802913,-0.6162018876517972,0.13478389835659518,-0.401751069038309,-0.10681293345314437,-0.410838794108199,0.0
0.2477964492490991,-0.6131976390263385,0.3398579457252656,-0.4554810135078989,-0.4707060690004687,-0.898590168958354,0.0
0.3225309113380855,-0.4359473382404343,0.3398579457252656,-0.34536124482931047,-0.4428271594944095,-1.1795349623949845,0.0
0.2477964492490991,-0.6131976390263385,0.07736316401644648,-0.12405778023240206,-0.2528103579972561,-2.0945565716919665,0.0
0.2647813704729975,-0.6312230781910676,0.10197205176478552,-0.12458976007334145,-0.03344737976661335,-1.8331217989831623,0.0
0.11870947811061779,-0.6642697604830908,0.35626386789937786,-0.07351973427373681,-0.6203717824141878,-3.578296256080181,0.0
0.6180719657325079,-0.5891637026106915,-0.13591383322135303,0.3259968472692779,-0.0180406130450306,-3.6543854511393046,0.0
0.6690274429664073,-0.5771467081088563,-0.09489902778607263,0.7760514942362462,-0.026844484856349066,-3.350028670902817,0.0
0.3632950552711374,-0.17457826657326947,-0.6773093008644201,0.20683346671372604,0.7611015143114038,-1.0888132517899929,0.0
1.2940798699111848,-0.366849777618953,0.18400166824430972,0.3100374909716729,1.4287280483847238,0.7685440624516114,0.0
1.05289108671219,-0.3758624972013174,0.41368459550877035,-0.04532482216923755,-0.5249965581475852,-0.7522647755400742,0.0
0.6418511884416596,-0.2857352356426419,0.019942436407053964,-0.3932394045601376,-0.2579459588354165,-0.39523073945240467,0.0
0.5127642173031796,-0.3398115925778472,0.08556612510350253,-0.4490972554166262,0.0677970769944406,-0.16891410161711654,0.0
0.40066240524266516,-0.3608412803680352,0.20040759154021456,-0.4267541150740309,-0.3540548301380711,-0.5230216036608663,0.0
0.46860304155453564,-0.3398115925778472,0.028145397494110023,-0.41983838363024817,0.19325216725501942,-0.00307862946836204,0.0
0.4210445961362268,-0.363845528993494,0.028145397494110023,-0.3831317940707187,0.3825352769749978,-0.053804769918508584,0.0
0.4278386597674129,-0.3488243121602117,0.036348358581166085,-0.303334869837246,0.7743073041319324,0.04081899599335889,0.0
0.33611903860045905,-0.32779462437002377,0.036348358581166085,-0.14640092057499748,1.0596993298956885,0.6036840922315967,0.0
0.2443994174335055,-0.4569770260306225,0.41368459550877035,-0.09958672701447852,1.0824426385635875,1.2475159184558617,0.0
0.09493025540146392,-0.40890915319932886,0.2988431313156437,-0.03362126566857099,0.8887576018861743,1.0855824227898707,0.0
0.7369678414242083,-0.4329430896149756,0.43009051768288237,-0.25971254883393396,0.12428854947414765,-0.13086949218957628,0.0
0.7369678414242083,-0.4329430896149756,0.43009051768288237,-0.2645003674023884,0.42508730616658796,-0.39425524793439676,0.0
0.49577905822521184,-0.40890915319932886,0.41368459550877035,-0.37781199566132484,0.3832689240110497,0.0008233827083391424,0.0
0.14928252659688948,-0.45998127465608124,0.5367290118146114,-0.5443215755720529,0.41261516338211135,-0.8546925271369115,0.0
0.14928252659688948,-0.45998127465608124,0.5367290118146114,-0.3496170835568256,0.1492328350431008,-0.5542377129724549,0.0
0.5331464081967406,-0.444960057822799,0.3644668289864339,-0.29695111174597333,0.041385479177302315,0.1510508046630415,0.0
0.35989826130961294,-0.3548328094111295,0.5695408561628356,-0.19215115516330966,0.09714329595236486,0.04667201351478697,0.0
0.35989826130961294,-0.3548328094111295,0.5695408561628356,-0.027769493906667175,0.01277291592402259,1.040709337042337,0.0
-0.027362652105830457,-0.29474795522500646,0.5367290118146114,0.11799287869585423,-0.2682171247188389,3.3770385072881917,0.0
0.7811292550269222,-0.4719982428639047,0.019942436407053964,0.10096954973951161,-0.11708409933656677,4.034527309948402,0.0
0.7811292550269222,-0.4719982428639047,0.019942436407053964,-0.14001716572793954,-0.2139266355717226,0.019357934970492,0.0
1.124228754839651,-0.49603217927955146,0.2578283258803633,-0.29482319887064523,-0.09287347870011471,-0.05478027333449575,0.0
0.7471589368709878,-0.5801509567343153,0.3398579457252656,-0.34110540610179535,0.24460805930970342,-0.29085193343167615,0.0
0.7471589368709878,-0.5801509567343153,0.3398579457252656,-0.5081469723418922,0.032581614077152286,-0.2771949094038144,0.0
0.624866029363694,-0.5080491474873748,0.3644668289864339,-0.51878656916068,-0.012171374119042863,-0.10355540843991541,0.0
0.5773078217994545,-0.48701945969718674,0.2988431313156437,-0.4943155094543271,0.1969204471764021,-0.03429471647123969,0.0
0.5297493763811446,-0.4659897719069988,0.2414223992190804,-0.4379256852453285,0.2592811610987851,-0.09770239984197171,0.0
0.37008911890232465,-0.4389515868658933,0.2578283258803633,-0.3304658222598665,0.21966376479252567,-0.05868228699844431,5.0
0.3429131022316463,-0.4689939942384457,0.2988431313156437,-0.24109326737791423,0.27615523978892087,-0.0645353015453776,5.0
0.43123569158300573,-0.4990364279050102,0.29064017022858757,-0.17193593509690716,0.22993493962417264,-0.24890532223816644,5.0
0.4991760900408046,-0.5140576447382924,0.37266979007348994,-0.13629331008557857,0.13529338029007118,-0.2684153905579093,5.0
0.4618089779233468,-0.49603217927955146,0.3316549846382096,-0.12086590118676571,0.06999804340929411,-0.1650120879531679,5.0
0.448220850660974,-0.4659897719069988,0.2988431313156437,-0.1027785995716854,0.0685307324194531,-0.13867350761949424,5.0
0.43123569158300573,-0.444960057822799,0.34806090681232177,-0.13895320604606076,0.08907308683649133,-0.04014773399266775,5.0
0.4176475643206335,-0.45998127465608124,0.3398579457252656,-0.1416131052507577,0.07073169890421462,-0.01966217712941171,5.0
0.44142678702978516,-0.4659897719069988,0.3152490534897558,-0.09799078749166035,0.020109471292675693,0.019357934970492,5.0
0.4550149142921601,-0.4539728036991756,0.3398579457252656,-0.07032785522810048,-0.012905030103319419,0.07398608834096346,5.0
0.44142678702978516,-0.45998127465608124,0.30704609240269976,-0.06979586889873166,0.035516235777202296,0.2807926876014566,5.0
0.43123569158300573,-0.4659897719069988,0.23321943813202425,-0.21130241737270414,0.08540480915216479,0.2076299670963583,5.0
0.43802975521419185,-0.40890915319932886,0.24962536479330724,-0.34536124482931047,-0.0180406130450306,0.03496597847193082,5.0
0.44142678702978516,-0.45998127465608124,0.39727867333465816,-0.36025666739875445,-0.02464351690351947,-0.03039270578178591,5.0
0.4720000733701284,-0.4659897719069988,0.30704609240269976,-0.24694504238403273,0.09640964220514446,-0.10843292551985113,5.0
0.4618089779233468,-0.49002370832264575,0.35626386789937786,-0.1868313600995122,0.20425699807094297,-0.09282488276203596,5.0
0.46520600973894227,-0.48101098874028103,0.37266979007348994,-0.19853490889516878,0.384736253876052,0.03984349257737175,5.0
0.4244416279518196,-0.4719982428639047,0.30704609240269976,-0.2033227246249354,0.4192180582923756,0.12178572597938554,5.0
0.39386834161147904,-0.4479643064482578,0.38087275116054603,-0.1831075036460975,0.05899321049613047,-0.04990276220354962,5.0
0.4244416279518196,-0.48101098874028103,0.3398579457252656,-0.2160902326969439,0.008370980018363366,-0.09867790325795887,5.0
0.46520600973894227,-0.48101098874028103,0.41368459550877035,-0.17087197541502838,-0.02831179682490216,-0.11526144943176113,5.0
0.46520600973894227,-0.502040676530469,0.35626386789937786,-0.12033392134582635,-0.10314464458353712,-0.12501647169365335,5.0
0.4176475643206335,-0.4719982428639047,0.38087275116054603,-0.1160780891067407,-0.22639877835619918,-0.07429032975625945,5.0
0.3632950552711374,-0.4689939942384457,0.38087275116054603,-0.15172071574017665,-0.35185385323701684,0.11398169865148838,5.0
0.4210445961362268,-0.4659897719069988,0.2988431313156437,-0.08203139875190815,-0.3210403197938515,0.24665007993988575,5.0
0.4889849945940257,-0.4479643064482578,0.2414223992190804,0.0025533375615896864,-0.0745320880414258,0.2027524500164226,5.0
0.5908957112077606,-0.48101098874028103,0.7500060359754359,0.14725175048223219,-0.15523419262249766,0.47296670587719475,5.0
0.48219093096283905,-0.444960057822799,0.30704609240269976,-0.04053699711235362,0.15363477094876005,0.291523213279336,5.0
0.43123569158300573,-0.49603217927955146,0.34806090681232177,-0.07564765363749433,0.1492328350431008,0.20080145508242747,5.0
0.4176475643206335,-0.502040676530469,0.2988431313156437,-0.06288013745494905,0.12502220545842416,0.17251186791677953,5.0
0.4448238188453807,-0.49603217927955146,0.2414223992190804,-0.019257816451636968,0.3040341492949802,0.07008408062600445,5.0
0.44142678702978516,-0.48101098874028103,0.2578283258803633,-0.024045641508520895,0.3436515366530151,0.05057402420424075,5.0
0.4550149142921601,-0.4990364279050102,0.23321943813202425,-0.028301467259177128,0.4236199763015857,-0.04112323740865489,5.0
0.4516178824765668,-0.4719982428639047,0.35626386789937786,-0.04266491647611117,0.3326467058370916,-0.014784663023970778,5.0
0.4142505325050401,-0.444960057822799,0.35626386789937786,-0.09213900924132709,0.17711174454916012,0.027161957093023256,5.0
0.44142678702978516,-0.48101098874028103,0.39727867333465816,-0.14480498105217932,0.14189628414855998,0.0300884658537373,5.0
0.4074564688738513,-0.4780067401148223,0.3398579457252656,-0.17991562703362224,0.08687212000218979,-0.009907148918529854,5.0
0.4210445961362268,-0.48701945969718674,0.32345202355115354,-0.25811660931111574,-0.05692435336701343,0.011553912662054815,5.0
0.4244416279518196,-0.49603217927955146,0.23321943813202425,-0.15810446734301986,-0.17504289524973968,0.058378045583148304,5.0
0.4142505325050401,-0.4780067401148223,0.3152490534897558,-0.1857674012286871,-0.26161422980857474,0.036916985303905116,5.0
0.46860304155453564,-0.45998127465608124,0.32345202355115354,-0.2049186625256462,-0.12735528311643832,0.04276999985083838,5.0
0.46520600973894227,-0.4509685550737165,0.2578283258803633,-0.17778770848091835,0.004702704571092957,0.10910418752054227,5.0
0.45841194610775293,-0.444960057822799,0.29064017022858757,-0.19215115516330966,0.11255006267394758,0.1676343508368438,5.0
0.5161612491187729,-0.48101098874028103,0.28243720914153153,-0.1650202020310172,0.2739542628878667,0.1208102225633984,5.0
0.4889849945940257,-0.5200661156951981,0.3316549846382096,-0.062348164102439096,0.40747956254395096,0.014480420958004038,5.0
0.40066240524266516,-0.502040676530469,0.41368459550877035,-0.10171463988980664,0.05165665624600544,0.0037498907254294766,5.0
0.4176475643206335,-0.4689939942384457,0.30704609240269976,-0.1458689407340581,0.08687212000218979,0.028137459021763008,5.0
0.448220850660974,-0.4689939942384457,0.2988431313156437,-0.1836394834870369,0.1727098086435009,0.06325555968858924,5.0
0.33611903860045905,-0.4329430896149756,0.5695408561628356,-0.24588108270215397,-0.45089734847677765,0.25835612093173144,5.0
0.686012602044375,-0.37886674582677626,0.019942436407053964,-0.5155946771381849,-0.5646139634020693,0.43297112531161763,5.0
0.46520600973894227,-0.5140576447382924,0.2578283258803633,-0.43260587385907584,-0.22566511342369805,0.40370602283200335,5.0
0.5059701536719929,-0.502040676530469,0.1757987065963573,-0.09160702940038769,-0.22419780145514492,0.2076299670963583,5.0
0.33611903860045905,-0.48701945969718674,0.3316549846382096,-0.03628117136169738,-0.4846455058570492,-0.05087826561953674,5.0
0.3836772461646983,-0.5170618933637512,0.21681351595791212,-0.06447608346619664,-0.4186165209615084,-0.11038393235182539,5.0
0.46860304155453564,-0.5140576447382924,0.11837797393889765,-0.15012477621735848,0.006903672523922573,-0.15233055544331423,5.0
0.5195582809343663,-0.45998127465608124,0.028145397494110023,-0.18842729881127668,0.32751112289538037,0.012529415427371222,5.0
0.4991760900408046,-0.4419558354913521,0.06095724184233432,-0.15384863185971948,0.8124573795214142,0.09642265501068857,5.0
0.448220850660974,-0.5110533961128336,0.052754280755278264,-0.21130241737270414,0.9841327903598786,0.023259945659945783,5.0
0.2308112901711319,-0.444960057822799,0.4546994009440507,-0.33897749971489666,0.12355489348987109,0.13836927215318784,5.0
0.3632950552711374,-0.46298552328154,0.23321943813202425,-0.3831317940707187,-0.3327788155422761,0.17934039182868952,5.0
0.4991760900408046,-0.505044925155928,0.13478389835659518,-0.286311521415615,0.15216745898020695,0.07008408062600445,5.0
0.46520600973894227,-0.4990364279050102,0.40548163442171425,-0.19959886817152073,0.12942413688997112,0.08861863363178099,5.0
0.4244416279518196,-0.5080491474873748,0.5695408561628356,-0.22885774076895246,-0.9673908034784782,0.05252502806172022,5.0
0.32932497496927243,-0.4719982428639047,-0.3984086239045138,-0.09001109636599897,-2.3085131194993305,0.20177694660043544,5.0
0.38028021434910464,-0.49002370832264575,0.011739466345656245,0.1632111327335551,-2.413425683648812,0.3490778791286399,5.0
0.33611903860045905,-0.4719982428639047,0.6105556795467995,0.00042541819783208594,-4.009126635161849,0.6553857613809362,5.0
0.5467345354591134,-0.49603217927955146,-0.3655967795562897,-0.0666040028299542,-4.188871984432393,0.9616936198372744,5.0
0.5942927430233534,-0.5320830839030216,-0.6198885912037111,-0.09745880765072096,-3.037033037630031,0.5831985323938461,5.0
0.522955312749959,-0.5681340148205035,-0.6198885912037111,-0.17246791493784655,-2.224142672359304,0.3617594116384935,5.0
0.4516178824765668,-0.5260746129461159,-0.6034826331322325,-0.3198262254410787,-1.8191649269676373,0.2924987047973439,5.0
0.43802975521419185,-0.505044925155928,-0.8085566782573174,-0.23630545205367443,-1.2036278693474813,0.44077515263951494,5.0
0.3972653734270724,-0.5380915811539394,-0.8741803669537662,-0.2857795415746756,-0.8243280207679216,0.5373499075363879,5.0
0.39386834161147904,-0.5591212689441273,-0.7511359685966083,-0.2921632996659483,-0.7399576452136917,0.3344453397868119,5.0
0.448220850660974,-0.5591212689441273,-0.8741803669537662,-0.2793957899718324,-0.5873572720699681,0.19787494483446608,5.0
0.4142505325050401,-0.5801509567343153,-0.7183241242483838,-0.2953551787115846,-0.8558751654542409,0.10715318663755757,5.0
0.4142505325050401,-0.5801509567343153,-0.7183241242483838,-0.12724965927803839,-0.7861779453784399,0.018382431926316705,5.0
0.4074564688738513,-0.5711382634459625,-1.013630723382403,-0.0458567955217475,-0.5675485515462769,0.03789248723264485,5.0
0.39386834161147904,-0.5651297661950448,-1.0628485258021056,-0.08362734476315574,-0.06572822517833192,0.1598303354069258,5.0
0.39386834161147904,-0.5651297661950448,-1.0628485258021056,-0.12671767943709897,0.3040341492949802,0.12276122939537266,5.0
0.3904713097958849,-0.5591212689441273,-1.1120662564270756,-0.21236637543247555,0.6789321156582281,0.0798391088368863,5.0
0.40066240524266516,-0.5681340148205035,-0.8085566782573174,-0.263968387561449,0.2966975894522148,0.05057402420424075,5.0
0.40066240524266516,-0.5681340148205035,-0.8085566782573174,-0.2538607770720301,0.2255330037185134,0.07496159175695058,5.0
0.38028021434910464,-0.5801509567343153,-0.9069922113019901,-0.21343033511435433,0.15143380299593043,0.026186453677036117,5.0
0.3632950552711374,-0.5651297661950448,-0.8987893040609839,-0.1612963463886562,0.10961543873684144,-0.012833656191996489,5.0
0.3632950552711374,-0.5651297661950448,-0.8987893040609839,-0.14799685685360095,0.1888502313493602,0.05447603489369453,5.0
0.3429131022316463,-0.5621255175695861,-0.8331655435698027,-0.15172071574017665,-0.15596785755499876,0.14227128581713638,5.0
0.37688318253351133,-0.5651297661950448,-0.8577744806770202,-0.1378892496083967,-0.11708409933656677,0.16275684565488727,5.0
0.40405943705825853,-0.5741425120714214,-0.9808188790341782,-0.1150141294248619,0.038450857477252305,0.14227128581713638,5.0
0.4108535006894441,-0.5861594539852327,-0.9890218580699175,-0.1075664181401399,0.21012624594515528,0.15885483199093867,5.0
0.40066240524266516,-0.5681340148205035,-0.9480070346859538,-0.11873798831143764,0.12282123750559457,0.14617329948108498,5.0
0.3836772461646983,-0.5681340148205035,-0.8905863250252448,-0.1150141294248619,0.14409724762727733,0.17348737133276665,5.0
0.3870742779802913,-0.5741425120714214,-0.8495715016412811,-0.09905474717353913,0.13162510484280074,0.1403202789851621,5.0
0.35310419767842627,-0.5501085230677506,-0.9233981693734692,-0.05117659393114138,0.23507052256588384,-0.03039270578178591,5.0
0.4278386597674129,-0.6011806445245031,-1.185892924159263,-0.07405170762624676,1.0985830165283235,-0.10453091185590253,5.0
0.5705137581682673,-0.5801509567343153,-1.3253432805878997,0.02276855854042761,2.602576764197627,-0.3015824829055139,5.0
0.624866029363694,-0.5861594539852327,-1.3663580321771305,-0.13682528992651793,4.560703431910741,-0.5298501394707553,5.0
0.4720000733701284,-0.6071891417754209,-0.9480070346859538,-0.17299989315667857,5.190179675837187,-0.6127678703397667,5.0
0.37688318253351133,-0.5621255175695861,-0.4312204682527386,-0.35866073436436574,5.103608394967699,-0.6908080960268215,5.0
0.27836949773537106,-0.5170618933637512,0.594149757372687,-0.39855918999267276,2.512337140769185,-0.5620416927084352,5.0
0.14928252659688948,-0.502040676530469,0.40548163442171425,-0.31237852064478616,0.9239730175456514,-0.18744864272491388,5.0
0.305545752260118,-0.5110533961128336,0.2578283258803633,-0.26875619964147407,0.8359343710182634,-0.19232617170282879,5.0
0.4516178824765668,-0.5110533961128336,0.3398579457252656,-0.38738763279823385,0.36566121618131125,-0.29963147607353957,5.0
0.43463272339859904,-0.5350873325284804,0.1757987065963573,-0.32993383593049763,0.2490099773189135,-0.17866912387900877,5.0
0.40066240524266516,-0.5320830839030216,0.18400166824430972,-0.3171663327248112,0.01937581530839917,-0.04795175537157532,5.0
0.4210445961362268,-0.544100078404857,0.24962536479330724,-0.23683743189461381,0.23066860455667376,-0.039172230576680594,5.0
0.3836772461646983,-0.5290788615715747,0.13478389835659518,-0.17991562703362224,0.13235876082707726,0.11593270548346268,5.0
0.295354656813338,-0.5080491474873748,0.1757987065963573,-0.07511566730812554,-0.17504289524973968,0.4749177365051272,5.0
0.44142678702978516,-0.5741425120714214,0.11017501285184157,-0.2591805689929945,0.053857621961778915,-0.009907148918529854,5.0
0.4889849945940257,-0.5621255175695861,0.09376909067772939,-0.1384212294493361,0.2093925899608787,0.1208102225633984,5.0
0.4244416279518196,-0.5651297661950448,0.10197205176478552,-0.2049186625256462,0.1565693948858662,0.14617329948108498,5.0
0.40066240524266516,-0.5651297661950448,0.10197205176478552,-0.12884559880085655,0.07513363180382968,0.12861424989129555,5.0
0.40405943705825853,-0.5681340148205035,-0.029275339089624118,-0.10118266004886725,-0.08993885476300856,0.0759370951729377,5.0
0.4720000733701284,-0.5230703643206571,0.028145397494110023,-0.10969433750389745,0.11401737464250065,0.14909979783106722,5.0
0.4210445961362268,-0.5140576447382924,0.11017501285184157,-0.13948518588700015,0.03991816720874924,0.220311499606212,5.0
0.43802975521419185,-0.5290788615715747,0.07736316401644648,-0.170339995574089,0.07439997637881716,0.301278223643249,5.0
0.4618089779233468,-0.5501085230677506,0.15118982165250006,-0.19268313464941306,0.19838775914495518,0.25445410726778284,5.0
0.5025731218564001,-0.5591212689441273,0.07736316401644648,-0.18257552461621182,0.37153044615907427,0.1637323490708744,5.0
0.44142678702978516,-0.5741425120714214,0.11017501285184157,-0.21236637543247555,0.20278968610238984,-0.026490695092332126,5.0
0.4108535006894441,-0.6071891417754209,0.18400166824430972,-0.18097958590444732,0.21159355791370835,-0.14647753494739138,5.0
0.3836772461646983,-0.5951721998616093,0.29064017022858757,-0.19002323711751434,0.12135393001115377,-0.22939527771438192,5.0
0.43463272339859904,-0.5981764484870681,0.23321943813202425,-0.1916191756265154,0.2218647327453553,-0.3493821145949465,5.0
0.40066240524266516,-0.5741425120714214,0.24962536479330724,-0.12352580039146265,0.12208758152131802,-0.2849989367317116,5.0
0.38028021434910464,-0.5380915811539394,0.20040759154021456,-0.06554004314807542,-0.08040133591563813,-0.027466198508319266,5.0
0.4074564688738513,-0.5170618933637512,0.13478389835659518,-0.11820600847049823,-0.1757765422857917,0.12568773964333416,5.0
0.4244416279518196,-0.5230703643206571,0.11837797393889765,-0.1378892496083967,-0.0870042308259024,0.09544715159470142,5.0
0.4176475643206335,-0.5260746129461159,0.11837797393889765,-0.13256945119900285,-0.11194851639485558,0.04276999985083838,5.0
0.448220850660974,-0.5591212689441273,0.13478389835659518,-0.10863037782201868,-0.042984898613983795,0.03301497312720394,5.0
0.4550149142921601,-0.5711382634459625,0.14298685944365128,-0.15012477621735848,0.19251851127074288,-0.07721684000422087,5.0
0.4176475643206335,-0.5591212689441273,0.15939278330045248,-0.17087197541502838,0.17931271250198974,-0.10745742210386397,5.0
0.4142505325050401,-0.5741425120714214,0.13478389835659518,-0.23896535125837134,0.1411626281642835,-0.05478027333449575,5.0
0.4074564688738513,-0.5861594539852327,0.20040759154021456,-0.24109326737791423,0.08467115316788824,-0.005029634813088928,5.0
0.4210445961362268,-0.6071891417754209,0.13478389835659518,-0.1033105794126248,-0.050321458456749166,0.041794499409346035,5.0
0.3904713097958849,-0.6402358240674443,0.2414223992190804,-0.09107504955944831,-0.21759490654488056,0.00570089607015637,5.0
0.4516178824765668,-0.622210384902715,0.12658093502595372,-0.0006385414840467143,-0.07159746410431965,-0.08209435113516701,5.0
0.4923820264096185,-0.5801509567343153,0.11017501285184157,-0.004362393882192899,0.13455972877990688,-0.015760163465463127,5.0
0.4244416279518196,-0.5591212689441273,0.1757987065963573,0.023300531892937393,0.18298099242337246,-0.06551080496136472,5.0
0.37688318253351133,-0.5230703643206571,0.21681351595791212,-0.03840907774859607,-0.07159746410431965,0.012529415427371222,5.0
0.4244416279518196,-0.505044925155928,0.11017501285184157,-0.10650245845826112,-0.0561906973827369,0.08959413109877856,5.0
0.43802975521419185,-0.49302795694810453,0.14298685944365128,-0.14640092057499748,-0.0510551144410257,0.0759370951729377,5.0
0.43123569158300573,-0.48401521107172796,0.11837797393889765,-0.19693897058893114,-0.0598589773041196,0.1315407482412778,5.0
0.4550149142921601,-0.48701945969718674,0.09376909067772939,-0.19374709362161988,0.2255330037185134,0.15787932857495154,5.0
0.43802975521419185,-0.48101098874028103,0.08556612510350253,-0.21662221091577594,0.11181640668967104,0.19397293117051748,5.0
0.4244416279518196,-0.48701945969718674,0.15118982165250006,-0.2405612875369748,0.04211913516157887,0.2525031004358086,5.0
0.44142678702978516,-0.4990364279050102,0.11017501285184157,-0.22300596576283385,0.17491077659633053,0.2964007184612925,5.0
0.5059701536719929,-0.5230703643206571,0.044551319668222206,-0.16236030282632027,0.363460239280257,0.24469907310791145,5.0
0.448220850660974,-0.5380915811539394,0.11837797393889765,-0.1905552167556903,0.3935401256873706,0.13739376873720066,5.0
0.3904713097958849,-0.5410958297793981,0.11837797393889765,-0.21662221091577594,0.28862738257339743,0.01740692925395326,5.0
0.37688318253351133,-0.5410958297793981,0.20861055487085606,-0.21821815043859413,0.21746279683969605,0.011553912662054815,5.0
0.40066240524266516,-0.5380915811539394,0.20861055487085606,-0.10171463988980664,-0.03784931567227258,0.04667201351478697,5.0
0.40066240524266516,-0.5380915811539394,0.20861055487085606,-0.1006506866963573,-0.017306957060754063,0.07788810200491202,5.0
0.43123569158300573,-0.5380915811539394,0.14298685944365128,-0.17353187299761796,0.014973879402739938,0.020333437642855445,5.0
0.44142678702978516,-0.5410958297793981,0.14298685944365128,-0.25811660931111574,0.11181640668967104,-0.006980640157815818,5.0
0.44142678702978516,-0.5410958297793981,0.14298685944365128,-0.19587501151534262,0.014973879402739938,-0.014784663023970778,5.0
0.49577905822521184,-0.5801509567343153,0.13478389835659518,-0.026173560872278446,0.21232721389798484,-0.028441701924306426,5.0
0.46860304155453564,-0.5711382634459625,0.13478389835659518,-0.025109601190399695,0.42948922417579816,-0.08014335025218229,5.0
0.46860304155453564,-0.5711382634459625,0.13478389835659518,-0.1575724875020805,0.5593462528587243,-0.3493821145949465,5.0
0.44142678702978516,-0.5621255175695861,0.15939278330045248,-0.2049186625256462,0.40234399749868904,-0.13769801610148627,5.0
0.37688318253351133,-0.5741425120714214,0.34806090681232177,-0.2650323472433278,0.13969531619573036,-0.1708651084490908,5.0
0.37688318253351133,-0.5741425120714214,0.34806090681232177,-0.35866073436436574,0.011305603955469529,-0.2684153905579093,5.0
0.3836772461646983,-0.5681340148205035,0.39727867333465816,-0.3836637674232286,-0.15743515162710273,-0.3132885001014013,5.0
0.43463272339859904,-0.5290788615715747,0.28243720914153153,-0.3671724118193959,-0.2762873494941053,-0.3132885001014013,5.0
0.43463272339859904,-0.5290788615715747,0.28243720914153153,-0.3102506012810286,-0.14569667377512718,-0.14550203153140426,5.0
0.5263523445655518,-0.49603217927955146,0.40548163442171425,-0.31823029240669,0.3150389801109037,0.03301497312720394,5.0
0.40405943705825853,-0.5230703643206571,0.2988431313156437,-0.28099172949465057,0.3231091869897211,-0.038196727160693465,5.0
0.40405943705825853,-0.5230703643206571,0.2988431313156437,-0.19800292945975623,0.2394724584715431,-0.001127622636387748,5.0
0.40405943705825853,-0.5230703643206571,0.28243720914153153,-0.08894713668412017,0.11475103062677719,-0.01868667371342457,5.0
0.3836772461646983,-0.5471043270303156,0.3152490534897558,-0.11448214958392249,0.08467115316788824,0.023259945659945783,5.0
0.4176475643206335,-0.5621255175695861,0.2660312869674194,-0.08894713668412017,0.24974364225141463,-0.00405413139710178,5.0
0.46520600973894227,-0.5531127716932095,0.23321943813202425,-0.07883951970627182,0.3597919683070988,0.06423106013008159,5.0
0.4516178824765668,-0.5350873325284804,0.24962536479330724,-0.12033392134582635,0.3744650879926296,0.08959413109877856,5.0
0.44142678702978516,-0.5380915811539394,0.2660312869674194,-0.17672375042114694,0.2783561987935259,0.20177694660043544,5.0
0.4210445961362268,-0.5501085230677506,0.3890757122476021,-0.15278467217784072,0.26661772094155045,0.2642091176316959,5.0
0.4074564688738513,-0.5591212689441273,0.38087275116054603,-0.1953430320799301,0.20205603011811335,0.2993272168112747,5.0
0.4176475643206335,-0.5651297661950448,0.3398579457252656,-0.17459583267949674,0.183714648407649,0.23494403894803997,5.0
0.4142505325050401,-0.6011806445245031,0.3644668289864339,-0.12724965927803839,0.14776552307454774,0.19982595166644038,5.0
0.40066240524266516,-0.6071891417754209,0.38087275116054603,-0.03574918503232859,0.16023766585902433,0.13934477556917496,5.0
0.39386834161147904,-0.5981764484870681,0.35626386789937786,0.06479494650935091,0.1037461953367414,0.09447164817871428,5.0
0.3870742779802913,-0.5621255175695861,0.2988431313156437,0.13288831424215705,0.05532493393033199,0.09447164817871428,5.0
0.4142505325050401,-0.5290788615715747,0.27423424805447544,0.13927207233342967,0.06339514416473356,0.08666762679980672,5.0
0.43463272339859904,-0.48401521107172796,0.2660312869674194,0.1270365295033944,0.05459127794605545,0.12666324305932128,5.0
0.43123569158300573,-0.4719982428639047,0.2988431313156437,0.07330659801066339,0.04505375686162889,0.11007969093652939,5.0
0.44142678702978516,-0.48401521107172796,0.2988431313156437,0.032876156052987535,0.05165665624600544,0.11300620118449081,5.0
0.4516178824765668,-0.5080491474873748,0.3152490534897558,-0.008618232609708076,0.04725472257740234,0.08666762679980672,5.0
0.448220850660974,-0.5230703643206571,0.38087275116054603,-0.04745272855613623,0.07439997637881716,0.06813307379403014,5.0
0.43123569158300573,-0.5410958297793981,0.3398579457252656,-0.06288013745494905,0.09127405255226481,0.07886360542089915,5.0
0.4278386597674129,-0.5771467081088563,0.43829347876993846,-0.03415325199793986,0.07513363180382968,0.06813307379403014,5.0
0.4448238188453807,-0.6011806445245031,0.3398579457252656,0.03181220934796758,0.0839374983021398,0.08081460630388383,5.0
0.448220850660974,-0.6402358240674443,0.41368459550877035,0.13501623360591467,0.09494233023659136,0.035941481887917966,5.0
0.4448238188453807,-0.6342273268165264,0.41368459550877035,0.24407201664890643,0.11695199410549456,0.016431426581589813,5.0
0.43463272339859904,-0.6342273268165264,0.42188755659582644,0.3201451144379508,0.07439997637881716,-0.03039270578178591,5.0
0.4210445961362268,-0.5891637026106915,0.4629023620311068,0.36163950310064635,0.06266148818045703,-0.033319216029747335,5.0
0.4278386597674129,-0.5260746129461159,0.5121201465021264,0.3291887392917732,0.08613846401791327,-0.013809159607983634,5.0
0.4074564688738513,-0.4659897719069988,0.4793083021539022,0.2626913175702145,0.06339514416473356,-0.00405413139710178,5.0
0.3972653734270724,-0.40890915319932886,0.4793083021539022,0.17225478354109525,-0.0004328828447305371,0.016431426581589813,5.0
0.43802975521419185,-0.39388796266005843,0.41368459550877035,0.08660608754571855,0.009104636002639896,-0.032343712613760206,5.0
0.4855879627784318,-0.39989643361696414,0.34806090681232177,-0.01659792373536946,0.11768565008977107,-0.046000748539601025,5.0
0.4720000733701284,-0.4029006822424229,0.35626386789937786,-0.10437453909450357,0.17050884963889584,-0.14452652811541708,5.0
0.39386834161147904,-0.4119134018247876,0.3152490534897558,-0.21023845769082536,0.03698354550869923,-0.16988960503310366,5.0
0.4074564688738513,-0.4389515868658933,0.2578283258803633,-0.30067497063254905,0.010571947971192982,-0.2050077042126825,5.0
0.4278386597674129,-0.47500249148936347,0.23321943813202425,-0.37674803597944606,0.05972686648040701,-0.20988520939463906,5.0
0.43463272339859904,-0.5080491474873748,0.2988431313156437,-0.4347337932228334,0.12795682939553032,-0.2137872230585876,5.0
0.43123569158300573,-0.5501085230677506,0.30704609240269976,-0.4320739005065658,0.12355489348987109,-0.2137872230585876,5.0
0.4176475643206335,-0.5801509567343153,0.27423424805447544,-0.40441097473143534,0.10301254158952101,-0.18257113754295734,5.0
0.4210445961362268,-0.5951721998616093,0.2578283258803633,-0.3607886537281233,0.12282123750559457,-0.12696747852562768,5.0
0.43123569158300573,-0.5831552053597739,0.2250164770449682,-0.3198262254410787,0.20058871814956022,-0.09770239984197171,5.0
0.4278386597674129,-0.5711382634459625,0.2660312869674194,-0.28258766901746873,0.1257558614427007,-0.005029634813088928,5.0
0.4176475643206335,-0.5110533961128336,0.2578283258803633,-0.2762039109261961,0.13896166021145384,0.036916985303905116,5.0
0.43123569158300573,-0.5230703643206571,0.15939278330045248,-0.12405778023240206,-0.2469411459159422,0.2251890285841269,5.0
0.4923820264096185,-0.48401521107172796,0.2578283258803633,-0.24747702222497212,0.42141903519342977,0.02911296243775015,5.0
0.4244416279518196,-0.42092612140715213,0.2250164770449682,-0.4177104642664907,0.2035233420866664,0.1530018114950158,5.0
0.3565012294940199,-0.39989643361696414,0.39727867333465816,-0.5868799368934862,-0.18678137310171516,0.18909541409058175,5.0
0.5161612491187729,-0.49302795694810453,0.2660312869674194,-0.5507053336633255,0.5123923056579242,0.19689944141847893,5.0
0.4550149142921601,-0.5591212689441273,0.3890757122476021,-0.48527185864678696,0.301833172393926,0.08081460630388383,5.0
0.44142678702978516,-0.5561170203186683,0.3398579457252656,-0.445905363394131,0.20205603011811335,0.07008408062600445,5.0
0.43463272339859904,-0.5501085230677506,0.37266979007348994,-0.46665255772547887,0.21746279683969605,0.028137459021763008,5.0
0.4244416279518196,-0.5290788615715747,0.3398579457252656,-0.4980393488756144,0.22259837978140726,0.053500531477707385,5.0
0.38028021434910464,-0.544100078404857,0.43009051768288237,-0.51878656916068,0.006903672523922573,0.1013001661416347,5.0
0.43802975521419185,-0.5741425120714214,0.27423424805447544,-0.4746322618279991,0.0883394308522148,0.055451538309681685,5.0
0.44142678702978516,-0.5801509567343153,0.38087275116054603,-0.41983838363024817,0.18004636848626632,-0.013809159607983634,5.0
0.4176475643206335,-0.5651297661950448,0.41368459550877035,-0.40547493441331417,0.09567598622086791,-0.04112323740865489,5.0
0.43123569158300573,-0.5290788615715747,0.38087275116054603,-0.4102627464933392,0.14409724762727733,-0.023564187818865486,5.0
0.40066240524266516,-0.5080491474873748,0.42188755659582644,-0.446437336746641,-0.008503094197660153,0.038867989161384606,5.0
0.32932497496927243,-0.5080491474873748,0.41368459550877035,-0.47090839645299404,-0.23960456817672754,-0.027466198508319266,5.0
0.5603226627214883,-0.5801509567343153,0.18400166824430972,-0.44111755131410607,0.0685307324194531,-0.02258868440287835,5.0
0.5025731218564001,-0.5561170203186683,0.20861055487085606,-0.42037035698275815,0.2710196568472097,-0.10843292551985113,5.0
0.448220850660974,-0.5501085230677506,0.3152490534897558,-0.43260587385907584,0.29229565354655557,-0.15233055544331423,5.0
0.43463272339859904,-0.5290788615715747,0.35626386789937786,-0.4528210948379137,0.3649275512488101,-0.18257113754295734,5.0
0.43463272339859904,-0.5501085230677506,0.3398579457252656,-0.4522891214854038,0.3165062920794569,-0.17574261363104732,5.0
0.4244416279518196,-0.5651297661950448,0.3398579457252656,-0.3714282375700523,0.21893010880824912,-0.15525706569127565,5.0
0.35310419767842627,-0.5711382634459625,0.41368459550877035,-0.362384586762512,0.03331527006142882,-0.09380038617802314,5.0
0.31233981589130494,-0.5591212689441273,0.4875112452922749,-0.3309977956123764,-0.41714919109650606,0.047647513956279315,5.0
0.29875168862893137,-0.544100078404857,0.4875112452922749,-0.3937713779126476,-0.9593206502890081,-0.017711170297437417,5.0
0.753953000502174,-0.6101933904008797,-0.012869416915511977,-0.3448292714768005,0.6583897480984852,-0.2596358479160458,5.0
0.5467345354591134,-0.544100078404857,0.34806090681232177,-0.34216936578367413,0.4426950497892248,0.024235448332309225,5.0
0.32932497496927243,-0.5531127716932095,0.35626386789937786,-0.4049429480839453,-0.32984419160516987,-0.023564187818865486,5.0
0.4787938991472457,-0.5410958297793981,0.28243720914153153,-0.3937713779126476,0.22113107676107877,-0.046976251955588195,5.0
0.4244416279518196,-0.5501085230677506,0.28243720914153153,-0.32301810448671503,0.13749434824290077,-0.03722122374470633,5.0
0.4278386597674129,-0.5380915811539394,0.2660312869674194,-0.3102506012810286,0.2277339806195676,-0.053804769918508584,5.0
0.44142678702978516,-0.5260746129461159,0.28243720914153153,-0.29429121902970584,0.3451188486215682,-0.029417202365798742,5.0
0.4210445961362268,-0.5260746129461159,0.34806090681232177,-0.30865466824663984,0.13455972877990688,0.05057402420424075,5.0
0.4074564688738513,-0.544100078404857,0.2988431313156437,-0.2910993399840695,0.09420867425231483,0.06130455285661495,5.0
0.4176475643206335,-0.5531127716932095,0.30704609240269976,-0.2895034004612514,0.043586444893075796,-0.07916784683619517,5.0
0.43123569158300573,-0.5741425120714214,0.34806090681232177,-0.21396231333318635,0.05532493393033199,-0.023564187818865486,5.0
0.448220850660974,-0.5290788615715747,0.30704609240269976,-0.2464130625430934,0.10154522962096794,0.03301497312720394,5.0
0.43123569158300573,-0.5140576447382924,0.3398579457252656,-0.25120087786733314,0.09567598622086791,0.027161957093023256,5.0
0.43123569158300573,-0.5230703643206571,0.3152490534897558,-0.2762039109261961,0.08320384231786324,0.06910857721001731,5.0
0.4278386597674129,-0.5471043270303156,0.3152490534897558,-0.21077043753176475,0.07293266538897615,0.02130894031521889,5.0
0.4278386597674129,-0.5471043270303156,0.3152490534897558,-0.2405612875369748,0.13015779287424767,0.02911296243775015,5.0
0.448220850660974,-0.5170618933637512,0.27423424805447544,-0.23151763672943468,0.0898067417022398,0.024235448332309225,5.0
0.448220850660974,-0.505044925155928,0.29064017022858757,-0.25492473675390886,0.1558357389015897,0.012529415427371222,5.0
0.448220850660974,-0.505044925155928,0.29064017022858757,-0.2565206697882976,0.17417712061205398,0.027161957093023256,5.0
0.44142678702978516,-0.5711382634459625,0.2578283258803633,-0.3161023730429324,0.28275813469918515,-0.3630391386228081,5.0
0.4142505325050401,-0.5561170203186683,0.39727867333465816,-0.1894912576821018,0.3099033971691925,-0.40791227196225827,5.0
0.4142505325050401,-0.5561170203186683,0.39727867333465816,-0.13948518588700015,0.27175330388326163,-0.3064599880874703,5.0
0.4244416279518196,-0.5410958297793981,0.3152490534897558,-0.13203747135806343,0.3260438109268272,-0.33279856842114425,5.0
0.3429131022316463,-0.48101098874028103,0.4546994009440507,-0.1485288366945403,0.1998550621652837,0.022284442987582337,5.0
0.3429131022316463,-0.48101098874028103,0.4546994009440507,-0.19693897058893114,-0.1486312977122334,0.11593270548346268,5.0
0.4618089779233468,-0.4780067401148223,0.2988431313156437,-0.1868313600995122,0.08467115316788824,0.17446287474875377,5.0
0.44142678702978516,-0.5471043270303156,0.38087275116054603,-0.20172678591317092,0.17050884963889584,-0.0645353015453776,5.0
0.44142678702978516,-0.5471043270303156,0.38087275116054603,-0.1602323867067774,0.03478257979292577,-0.16306108112119366,5.0
0.4244416279518196,-0.5380915811539394,0.3152490534897558,-0.1495927963764191,0.020109471292675693,-0.03527021988722682,5.0
0.4176475643206335,-0.5080491474873748,0.34806090681232177,-0.17246791493784655,0.07073169890421462,0.07105958404199157,5.0
0.4108535006894441,-0.4719982428639047,0.3398579457252656,-0.20864251979011456,-0.026844484856349066,0.21738500125622975,5.0
0.4176475643206335,-0.49603217927955146,0.3398579457252656,-0.2304536770475559,-0.012171374119042863,0.24177257475792918,5.0
0.4108535006894441,-0.49603217927955146,0.3316549846382096,-0.2325815964113134,-0.01363868608759594,0.17446287474875377,5.0
0.43802975521419185,-0.5290788615715747,0.3152490534897558,-0.20598262220752497,-0.010704062150489769,0.14129578240114926,5.0
0.44142678702978516,-0.5110533961128336,0.3890757122476021,-0.2480089988216968,0.060460522464683544,0.14617329948108498,5.0
0.43802975521419185,-0.49603217927955146,0.3644668289864339,-0.26343640772050964,-0.0026338507975601365,0.04374550326682553,5.0
0.44142678702978516,-0.5380915811539394,0.40548163442171425,-0.25173285770827253,0.19912140618100715,0.028137459021763008,5.0
0.44142678702978516,-0.5350873325284804,0.24962536479330724,-0.1953430320799301,0.11695199410549456,-0.001127622636387748,5.0
0.4210445961362268,-0.5380915811539394,0.3152490534897558,-0.20013084720140642,-0.15816881655960377,0.05447603489369453,5.0
0.39386834161147904,-0.5170618933637512,0.37266979007348994,-0.24747702222497212,0.3788670060018398,0.014480420958004038,5.0
0.4787938991472457,-0.5380915811539394,0.4629023620311068,-0.14640092057499748,-0.23593629720356954,0.06130455285661495,5.0
0.3904713097958849,-0.5350873325284804,0.44649643985699455,-0.21449429317412574,0.10081157363669138,0.05740254216716117,5.0
0.4889849945940257,-0.5230703643206571,0.3152490534897558,-0.1485288366945403,0.20645796602377253,-0.02258868440287835,5.0
0.4278386597674129,-0.5380915811539394,0.3398579457252656,-0.14693290041593685,0.004702704571092957,0.05057402420424075,5.0
0.40405943705825853,-0.5350873325284804,0.38087275116054603,-0.14640092057499748,0.04505375686162889,0.11398169865148838,5.0
0.4516178824765668,-0.544100078404857,0.3152490534897558,-0.14267706168842176,0.06486245501475857,0.07691259858892487,5.0
0.35989826130961294,-0.5471043270303156,0.5367290118146114,-0.14799685685360095,-0.42448576883572053,0.12861424989129555,5.0
0.448220850660974,-0.5290788615715747,0.32345202355115354,-0.14427300121123993,0.049455690530231966,0.0300884658537373,5.0
0.4889849945940257,-0.5230703643206571,0.24962536479330724,-0.16182832298538088,0.12795682939553032,0.0730105849249763,5.0
0.44142678702978516,-0.5170618933637512,0.3398579457252656,-0.1873633399404516,0.040651823193025786,0.12958974140930352,5.0
0.44142678702978516,-0.5080491474873748,0.3398579457252656,-0.17938364800373652,0.032581614077152286,0.1471488028970721,5.0
0.43123569158300573,-0.5170618933637512,0.28243720914153153,-0.1852354221988014,-0.13028990705354448,0.15787932857495154,5.0
0.3836772461646983,-0.544100078404857,0.4711053231181628,-0.2033227246249354,-0.5543427617257486,-0.11818795967972255,5.0
0.31573684770689825,-0.4990364279050102,0.4629023620311068,-0.41292265218646557,-1.1874874197969483,0.04569651009879983,5.0
0.5603226627214883,-0.5741425120714214,0.019942436407053964,-0.19853490889516878,0.09714329595236486,0.12373673281135983,5.0
0.49577905822521184,-0.5260746129461159,0.15118982165250006,-0.13363341088088163,0.16170497782757742,0.081790109719871,5.0
0.46860304155453564,-0.5380915811539394,0.2578283258803633,-0.23524149237179565,-0.022442548950689853,0.10715318663755757,5.0
0.40405943705825853,-0.48101098874028103,0.2250164770449682,-0.1570405076611411,-0.1963189098455347,0.00570089607015637,5.0
0.46520600973894227,-0.45998127465608124,0.23321943813202425,-0.23790139157649257,-0.04518586656681339,0.06715757037804301,5.0
0.40066240524266516,-0.5140576447382924,0.2414223992190804,-0.1852354221988014,-0.07746671197853197,0.21250748417629406,5.0
0.43123569158300573,-0.544100078404857,0.2250164770449682,-0.003830420529682922,-0.26748347768278696,0.0515495246457331,5.0
0.46520600973894227,-0.5801509567343153,0.23321943813202425,0.0036172972434684865,-0.3217740026228017,0.24469907310791145,5.0
0.5059701536719929,-0.5501085230677506,0.13478389835659518,-0.16927603751431758,-0.010704062150489769,0.13446725848923924,5.0
0.43123569158300573,-0.544100078404857,-0.05388422235079234,-0.31344248032666494,-0.14789763277973222,0.12471223622734698,5.0
0.448220850660974,-0.5410958297793981,0.20040759154021456,-0.16555218187195658,0.12502220545842416,0.17056086108480523,5.0
0.37688318253351133,-0.5170618933637512,0.32345202355115354,-0.0666040028299542,-0.3386480634164883,0.1276387464753084,5.0
0.31233981589130494,-0.5230703643206571,0.20040759154021456,-0.06181617777307027,-0.7348220085826331,0.13349175507325212,5.0
0.39386834161147904,-0.5531127716932095,0.09376909067772939,-0.09107504955944831,-0.6401805029378788,0.12373673281135983,5.0
0.4855879627784318,-0.5380915811539394,0.019942436407053964,-0.09373494876414523,-0.3239749437309574,0.14129578240114926,5.0
0.448220850660974,-0.5320830839030216,-0.004666455828455855,0.0030853109140996397,-0.32690956766806367,0.1871444072586075,5.0
0.40405943705825853,-0.5801509567343153,0.09376909067772939,0.09405381829572886,-0.5095897914260024,0.12666324305932128,5.0
0.4176475643206335,-0.5951721998616093,0.036348358581166085,0.09724568436450635,-0.38633565765334044,0.011553912662054815,5.0
0.48219093096283905,-0.5501085230677506,-0.07849310561196056,0.059475135123098065,-0.029045452809178682,-0.1211144580297048,5.0
0.5263523445655518,-0.5230703643206571,-0.11130494996018485,-0.027769493906667175,0.406745915507899,-0.12599197510964052,5.0
0.4991760900408046,-0.5110533961128336,-0.05388422235079234,-0.21130241737270414,0.7522976782929837,-0.05770678358245716,5.0
0.48219093096283905,-0.4990364279050102,0.044551319668222206,-0.3895155391851326,0.9951376032793529,0.012529415427371222,5.0
0.45841194610775293,-0.502040676530469,0.11017501285184157,-0.5448535489245628,1.1528735414683384,-0.06843731520932615,5.0
0.43463272339859904,-0.502040676530469,0.18400166824430972,-0.5719845013471834,1.187355345884662,-0.033319216029747335,5.0
0.3395160704160524,-0.502040676530469,0.24962536479330724,-0.46771653038421657,0.5908934333379416,0.12373673281135983,5.0
0.35310419767842627,-0.49002370832264575,0.15939278330045248,-0.23098565688849526,0.09787695193664138,0.11690820889944982,5.0
0.4142505325050401,-0.5080491474873748,0.18400166824430972,-0.24694504238403273,0.07513363180382968,0.056427038751174,5.0
0.4244416279518196,-0.49603217927955146,0.13478389835659518,-0.29588715206409455,0.04578741284590541,0.016431426581589813,5.0
0.43123569158300573,-0.49603217927955146,0.11837797393889765,-0.3304658222598665,0.07366632095380465,-0.015760163465463127,5.0
0.43123569158300573,-0.48701945969718674,0.11837797393889765,-0.36291657309188086,0.10741447302106796,0.00570089607015637,5.0
0.4244416279518196,-0.502040676530469,0.20040759154021456,-0.40228305536767783,0.05972686648040701,-0.0021031260523748925,5.0
0.43463272339859904,-0.5080491474873748,0.13478389835659518,-0.44856525611039855,0.0839374983021398,-0.021613180986891186,5.0
0.48219093096283905,-0.5741425120714214,0.06095724184233432,-0.4900596707268119,0.22479935668246143,-0.10355540843991541,5.0
0.448220850660974,-0.6071891417754209,0.13478389835659518,-0.4661205843729689,0.3033004843624791,-0.15233055544331423,5.0
0.43123569158300573,-0.6162018876517972,0.12658093502595372,-0.3496170835568256,0.20865893397660218,-0.09477588959401027,5.0
0.4074564688738513,-0.5651297661950448,0.12658093502595372,-0.30280288350787715,0.16757422570178973,-0.07624133658823372,5.0
0.40405943705825853,-0.5410958297793981,0.13478389835659518,-0.31557039969042244,0.1492328350431008,-0.05478027333449575,5.0
0.3972653734270724,-0.48401521107172796,0.13478389835659518,-0.37355615693380984,0.08100287548356169,0.007651901414883259,5.0
0.4244416279518196,-0.505044925155928,0.13478389835659518,-0.4235622230515357,0.08100287548356169,0.031063967782477036,5.0
0.43802975521419185,-0.5290788615715747,0.12658093502595372,-0.4533530941441412,0.09934426390519445,0.041794499409346035,5.0
0.40066240524266516,-0.5501085230677506,0.09376909067772939,-0.43686171258659084,0.08320384231786324,-0.008931645502542709,5.0
0.39386834161147904,-0.544100078404857,0.07736316401644648,-0.4251581690627833,0.058259555630382,-0.00015212070764799947,5.0
0.4074564688738513,-0.5380915811539394,0.09376909067772939,-0.41239065288023785,0.05972686648040701,0.02911296243775015,5.0
0.4244416279518196,-0.5350873325284804,0.11017501285184157,-0.4251581690627833,-0.0011665388290070591,0.07008408062600445,5.0
0.4244416279518196,-0.5230703643206571,0.07736316401644648,-0.44324547067786363,-0.01950792501358368,0.09056963451476568,5.0
0.4244416279518196,-0.5170618933637512,0.06095724184233432,-0.441649524666616,-0.02537717288779599,0.09739815842667572,5.0
0.4142505325050401,-0.5260746129461159,0.011739466345656245,-0.421434303687778,-0.05178877042530224,0.12568773964333416,5.0
0.4074564688738513,-0.5290788615715747,0.011739466345656245,-0.4139865988914855,-0.06792919313116152,0.12276122939537266,5.0
0.4244416279518196,-0.5320830839030216,0.003536505258600185,-0.411326706175218,-0.10314464458353712,0.15592832174297722,5.0
0.43463272339859904,-0.5320830839030216,-0.021072378002568056,-0.3905794988670114,-0.11855141130511986,0.15202630807902862,5.0
0.43123569158300573,-0.5140576447382924,0.019942436407053964,-0.3857916867869862,-0.08260229492024317,0.17934039182868952,5.0
0.4244416279518196,-0.5170618933637512,0.019942436407053964,-0.3708962642175423,-0.0782003679628085,0.15885483199093867,5.0
0.4108535006894441,-0.5290788615715747,0.052754280755278264,-0.38206783438884,-0.12001872327367293,0.12568773964333416,5.0
0.4176475643206335,-0.5170618933637512,0.019942436407053964,-0.37728002230881486,-0.12075238820617407,0.09642265501068857,5.0
0.43123569158300573,-0.5410958297793981,-0.045681261263736235,-0.35227697627309307,-0.10901389245774942,0.07398608834096346,5.0
0.448220850660974,-0.5681340148205035,0.036348358581166085,-0.3480211505224368,-0.067195537146885,0.056427038751174,5.0
0.4516178824765668,-0.5981764484870681,0.028145397494110023,-0.29695111174597333,-0.04225125157793181,0.03496597847193082,5.0
0.46520600973894227,-0.6522527659812557,0.09376909067772939,-0.2873754810974938,-0.012171374119042863,0.03399047654319108,5.0
0.48219093096283905,-0.6762867023969025,0.12658093502595372,-0.1682120778324388,0.014973879402739938,-0.01868667371342457,5.0
0.4787938991472457,-0.6943121941496554,0.15118982165250006,-0.06128420442056032,0.1110827507053945,-0.08599636479911557,5.0
0.43463272339859904,-0.6973164427751141,0.2578283258803633,0.03128023599545782,0.16830788168606625,-0.12891848535760195,5.0
0.43802975521419185,-0.6943121941496554,0.2414223992190804,0.13501623360591467,0.21893010880824912,-0.13964901103548136,5.0
0.44142678702978516,-0.6943121941496554,0.24962536479330724,0.10362944245577897,0.23580418749838494,-0.036245723303213975,5.0
0.44142678702978516,-0.6943121941496554,0.24962536479330724,0.03713199478050273,0.12208758152131802,-0.03136820919777304,5.0
0.4278386597674129,-0.7273588238536548,0.4629023620311068,0.07064670529439583,-0.02097523698213676,-0.22451774873646702,5.0
0.5127642173031796,-0.6642697604830908,0.41368459550877035,0.27918267317404716,0.5417385092360872,-0.29963147607353957,5.0
0.5127642173031796,-0.6642697604830908,0.41368459550877035,0.3956861610133317,0.8784864002098536,-0.2030566973807082,5.0
0.305545752260118,-0.48701945969718674,0.42188755659582644,0.5361287871138946,0.24020612340404418,0.0037498907254294766,5.0
0.30894278407571163,-0.4539728036991756,0.40548163442171425,0.35259582633938846,0.04725472257740234,-0.053804769918508584,5.0
0.30894278407571163,-0.4539728036991756,0.40548163442171425,0.23928420456888147,0.03184795809287576,-0.0957513930099974,5.0
0.30214872044452495,-0.42092612140715213,0.4629023620311068,0.16799894481358005,-0.03271372378233679,-0.013809159607983634,5.0
0.4720000733701284,-0.4509685550737165,0.43009051768288237,0.11373703996833903,-0.0026338507975601365,0.06130455285661495,5.0
0.4720000733701284,-0.4509685550737165,0.43009051768288237,0.03181220934796758,0.017908503339846085,0.24469907310791145,5.0
0.5093671854875867,-0.5080491474873748,0.4546994009440507,0.017980746460402458,0.005436360555369488,0.3081067594531382,5.0
0.4244416279518196,-0.643240072692903,0.4711053231181628,0.054155349690563105,-0.015839645092200986,0.3003027321252411,5.0
0.4244416279518196,-0.643240072692903,0.4711053231181628,0.1371441529696722,-0.004101158292000937,0.16958535766881805,5.0
0.39386834161147904,-0.6642697604830908,0.5039171674663872,0.2291766070563214,0.010571947971192982,0.09642265501068857,5.0
0.34631013404723937,-0.622210384902715,0.4711053231181628,0.23822025786386156,-0.027578140840625605,0.047647513956279315,5.0
0.3429131022316463,-0.6011806445245031,0.5039171674663872,0.22970858040883135,-0.09947637361037899,0.07008408062600445,5.0
0.36669208708673107,-0.5801509567343153,0.5367290118146114,0.2259847150338261,-0.11928507623762097,0.058378045583148304,5.0
0.4278386597674129,-0.5801509567343153,0.4711053231181628,0.2190689835900435,-0.09580810263722087,0.010578409803785445,5.0
0.4855879627784318,-0.5380915811539394,0.39727867333465816,0.1797025142911055,-0.0385829716565491,-0.009907148918529854,5.0
0.4991760900408046,-0.5140576447382924,0.44649643985699455,0.0882020335569662,0.014973879402739938,0.031063967782477036,5.0
0.47539686733165293,-0.502040676530469,0.40548163442171425,0.02968428998421017,0.03918451346152886,-0.008931645502542709,5.0
0.4550149142921601,-0.5170618933637512,0.43829347876993846,-0.015533964053490614,0.05899321049613047,-0.05575577675048287,5.0
0.4074564688738513,-0.5501085230677506,0.4546994009440507,0.021172612529179964,-0.0004328828447305371,-0.10648191868787685,5.0
0.3870742779802913,-0.5861594539852327,0.5121201465021264,0.07011473194188587,-0.08480327182129735,-0.1211144580297048,5.0
0.39386834161147904,-0.5951721998616093,0.4629023620311068,0.10256546979704127,-0.11341582836340865,-0.12306546486167906,5.0
0.40066240524266516,-0.5711382634459625,0.42188755659582644,0.1419319650496972,-0.16623902343842115,-0.099653406673946,5.0
0.4176475643206335,-0.5471043270303156,0.39727867333465816,0.1717228101885853,-0.1757765422857917,-0.10550641527188967,5.0
0.43802975521419185,-0.5380915811539394,0.34806090681232177,0.1770425956211202,-0.08480327182129735,-0.10355540843991541,5.0
0.4618089779233468,-0.5290788615715747,0.29064017022858757,0.16799894481358005,-0.04665317853536649,-0.1298939887735891,5.0
0.46520600973894227,-0.5170618933637512,0.2250164770449682,0.11746090534334429,0.006903672523922573,-0.13672251268549912,5.0
0.47539686733165293,-0.502040676530469,0.28243720914153153,0.03340815535921523,0.0685307324194531,-0.08989837251407455,5.0
0.45841194610775293,-0.48401521107172796,0.2988431313156437,-0.04372887615798995,0.11255006267394758,-0.06941281862531333,5.0
0.44142678702978516,-0.49002370832264575,0.2988431313156437,-0.10916235766295804,0.10961543873684144,-0.06258429471340331,5.0
0.43463272339859904,-0.5230703643206571,0.27423424805447544,-0.12086590118676571,0.1382280042271773,-0.0840453579671413,5.0
0.4516178824765668,-0.5591212689441273,0.37266979007348994,-0.08788317700224142,0.15436842693303657,-0.09672689642598456,5.0
0.43463272339859904,-0.5651297661950448,0.34806090681232177,-0.04319690280547999,0.14189628414855998,-0.07038832204130045,5.0
0.4074564688738513,-0.5741425120714214,0.44649643985699455,0.021172612529179964,0.11034909472111797,-0.14550203153140426,5.0
0.3904713097958849,-0.5741425120714214,0.37266979007348994,0.08926598026198611,0.0677970769944406,-0.12599197510964052,5.0
0.3870742779802913,-0.5651297661950448,0.3890757122476021,0.12650455615088443,0.013506571908299144,-0.08306985455115413,5.0
0.43123569158300573,-0.5501085230677506,0.2578283258803633,0.15363550857350494,0.041385479177302315,-0.09184937934604884,5.0
0.4244416279518196,-0.5410958297793981,0.2414223992190804,0.1616152126760252,0.020843127276952245,-0.09477588959401027,5.0
0.43123569158300573,-0.5501085230677506,0.20861055487085606,0.1701268641773376,-0.009970406166213247,-0.07136381950829801,5.0
0.44142678702978516,-0.5260746129461159,0.1757987065963573,0.1781065682798579,0.007637328508199095,-0.014784663023970778,5.0
0.43802975521419185,-0.5080491474873748,0.08556612510350253,0.16906291747231775,0.09640964220514446,-0.04014773399266775,5.0
0.4108535006894441,-0.4990364279050102,0.13478389835659518,0.11426903927456677,0.10154522962096794,-0.05965779041443147,5.0
0.4074564688738513,-0.48701945969718674,0.13478389835659518,0.056815242406830654,0.05972686648040701,-0.046976251955588195,5.0
0.4176475643206335,-0.4780067401148223,0.11837797393889765,0.041919806860527695,0.08613846401791327,-0.032343712613760206,5.0
0.43802975521419185,-0.4719982428639047,0.15118982165250006,0.007341149641614648,0.07366632095380465,-0.028441701924306426,5.0
0.44142678702978516,-0.4689939942384457,0.15118982165250006,-0.0416009567942324,0.11255006267394758,0.010578409803785445,5.0
0.448220850660974,-0.4719982428639047,0.07736316401644648,-0.0884151568431808,0.08613846401791327,0.04959852078825361,5.0
0.4516178824765668,-0.48101098874028103,0.10197205176478552,-0.09107504955944831,0.11915296205832415,0.07788810200491202,5.0
0.4176475643206335,-0.48701945969718674,0.10197205176478552,-0.13310143103994224,0.14189628414855998,-0.01868667371342457,5.0
0.3972653734270724,-0.505044925155928,0.2414223992190804,-0.13682528992651793,0.08173653146783824,0.0008233827083391424,5.0
0.3972653734270724,-0.5170618933637512,0.20861055487085606,-0.12778163911897775,-0.01950792501358368,-0.011858152776009346,5.0
0.4074564688738513,-0.5140576447382924,0.20861055487085606,-0.13150549151712407,-0.0510551144410257,-0.005029634813088928,5.0
0.4176475643206335,-0.5350873325284804,0.21681351595791212,-0.09160702940038769,-0.067195537146885,-0.07038832204130045,5.0
0.4244416279518196,-0.5501085230677506,0.29064017022858757,-0.10118266004886725,-0.022442548950689853,-0.1279429819416148,5.0
0.44142678702978516,-0.5290788615715747,0.21681351595791212,-0.13735726976745732,0.05459127794605545,-0.12599197510964052,5.0
0.4448238188453807,-0.4719982428639047,0.11017501285184157,-0.05064460760177256,0.2526782661885208,-0.007956142086555564,5.0
0.448220850660974,-0.4990364279050102,0.11017501285184157,-0.06394409713682782,0.21159355791370835,0.1354427619052264,5.0
0.46860304155453564,-0.5170618933637512,0.06916020292939036,-0.04745272855613623,0.18811657536508364,0.11983471914741123,5.0
0.4550149142921601,-0.5140576447382924,0.036348358581166085,-0.03255730598669226,0.13969531619573036,0.09349614476272712,5.0
0.45841194610775293,-0.5140576447382924,0.044551319668222206,-0.03681314471420734,0.1727098086435009,0.05252502806172022,5.0
0.4550149142921601,-0.5230703643206571,0.052754280755278264,-0.023513655179152094,0.23433687552983187,-0.007956142086555564,5.0
0.45841194610775293,-0.49603217927955146,0.09376909067772939,-0.04319690280547999,0.19765410316067863,-0.02258868440287835,5.0
0.43123569158300573,-0.45998127465608124,0.11017501285184157,-0.09799078749166035,0.13602703627434767,-0.025515191676344966,5.0
0.448220850660974,-0.40890915319932886,0.09376909067772939,-0.14267706168842176,0.11328371865822413,-0.03136820919777304,5.0
0.448220850660974,-0.4269346186580698,0.07736316401644648,-0.17725573026208633,0.11181640668967104,0.04374550326682553,5.0
0.4448238188453807,-0.4419558354913521,0.13478389835659518,-0.20864251979011456,0.1308914488585242,0.08081460630388383,5.0
0.4176475643206335,-0.4990364279050102,0.2250164770449682,-0.21023845769082536,0.10081157363669138,0.1510508046630415,5.0
0.4074564688738513,-0.5110533961128336,0.1922046304531585,-0.1916191756265154,0.10301254158952101,0.21738500125622975,5.0
0.43802975521419185,-0.544100078404857,0.20861055487085606,-0.1650202020310172,0.07219900989405563,0.22226250643818626,5.0
0.4618089779233468,-0.5981764484870681,0.1922046304531585,-0.0666040028299542,0.11548468213694146,0.14909979783106722,5.0
0.448220850660974,-0.5831552053597739,0.20040759154021456,0.011596988369129849,0.11181640668967104,0.09056963451476568,5.0
0.43463272339859904,-0.5471043270303156,0.1922046304531585,0.02436449157481617,0.10447985132101796,0.0515495246457331,5.0
0.4244416279518196,-0.5080491474873748,0.20861055487085606,-0.021385735815394494,0.09714329595236486,-0.005029634813088928,5.0
0.4244416279518196,-0.45998127465608124,0.18400166824430972,-0.10490651893544296,0.10888178498962105,0.0037498907254294766,5.0
0.3836772461646983,-0.3848752167836819,0.2660312869674194,-0.2070465802672964,0.0788019092085242,0.10032466272564754,5.0
0.44142678702978516,-0.39388796266005843,0.10197205176478552,-0.37781199566132484,0.02597871469277571,0.0759370951729377,5.0
0.4855879627784318,-0.4389515868658933,0.052754280755278264,-0.4522891214854038,0.11401737464250065,0.07691259858892487,5.0
0.4550149142921601,-0.502040676530469,0.06916020292939036,-0.4097307601639703,0.16684056971751315,0.11398169865148838,5.0
0.448220850660974,-0.5561170203186683,0.06916020292939036,-0.3794079286957136,0.08320384231786324,0.04667201351478697,5.0
0.4889849945940257,-0.5681340148205035,0.20040759154021456,-0.3618526134100021,0.04211913516157887,-0.01868667371342457,5.0
0.48219093096283905,-0.5501085230677506,0.21681351595791212,-0.29588715206409455,0.0509230002617289,0.09544715159470142,5.0
0.48219093096283905,-0.5501085230677506,0.21681351595791212,-0.3145064400085437,0.0237777467399461,0.18324239359465888,5.0
0.4176475643206335,-0.5591212689441273,0.3152490534897558,-0.3235500908160839,0.024511402724222656,0.13836927215318784,5.0
0.3836772461646983,-0.5531127716932095,0.2988431313156437,-0.30865466824663984,0.0237777467399461,0.04569651009879983,5.0
0.3836772461646983,-0.5531127716932095,0.2988431313156437,-0.2831196488584081,0.03404892380864922,-0.1562325572092836,5.0
0.40066240524266516,-0.5681340148205035,0.40548163442171425,-0.24215722705979295,0.002501736618263341,-0.26743987524394297,5.0
0.44142678702978516,-0.5380915811539394,0.3316549846382096,-0.23736941173555318,-0.022442548950689853,-0.2498808375521328,5.0
0.44142678702978516,-0.5380915811539394,0.3316549846382096,-0.2660963069252066,0.02304409075566957,-0.16306108112119366,5.0
0.4448238188453807,-0.5741425120714214,0.2578283258803633,-0.2480089988216968,0.060460522464683544,-0.10355540843991541,5.0
0.43463272339859904,-0.6071891417754209,0.2414223992190804,-0.22460190528565202,0.10154522962096794,-0.08599636479911557,5.0
0.43463272339859904,-0.6071891417754209,0.2414223992190804,-0.1905552167556903,0.10081157363669138,-0.09282488276203596,5.0
0.4176475643206335,-0.6582612632321734,0.2988431313156437,-0.11714204878861945,0.14776552307454774,-0.07916784683619517,5.0
0.4278386597674129,-0.6642697604830908,0.35626386789937786,-0.01659792373536946,0.15436842693303657,-0.13379600243753767,5.0
0.4074564688738513,-0.6071891417754209,0.3644668289864339,0.015320840767276033,0.1558357389015897,-0.1728161152810651,5.0
0.38028021434910464,-0.5501085230677506,0.30704609240269976,-0.04904867456738383,0.06999804340929411,-0.13282049902155052,5.0
0.40066240524266516,-0.544100078404857,0.2988431313156437,-0.03202533263418228,0.03991816720874924,-0.08209435113516701,5.0
0.43463272339859904,-0.5591212689441273,0.18400166824430972,0.014256881085397233,0.07073169890421462,-0.05770678358245716,5.0
0.43463272339859904,-0.5471043270303156,0.2414223992190804,0.023832518222306243,0.09200770853654135,-0.029417202365798742,5.0
0.4142505325050401,-0.544100078404857,0.24962536479330724,0.016916786778523655,0.06339514416473356,-0.001127622636387748,5.0
0.39386834161147904,-0.5260746129461159,0.28243720914153153,0.02755637062045257,0.046521066593125805,-0.006980640157815818,5.0
0.3972653734270724,-0.5260746129461159,0.29064017022858757,-0.004894380211561722,0.08687212000218979,0.07496159175695058,5.0
0.3972653734270724,-0.5260746129461159,0.29064017022858757,-0.029365426941055903,0.08173653146783824,0.06813307379403014,5.0
0.43802975521419185,-0.5290788615715747,0.2988431313156437,-0.057560339045555166,-0.04005028362510219,0.07788810200491202,5.0
0.4923820264096185,-0.5471043270303156,0.29064017022858757,-0.05649639234053526,0.10594716328957103,0.026186453677036117,5.0
0.39386834161147904,-0.5591212689441273,0.3152490534897558,-0.01872584309912704,0.13162510484280074,0.08081460630388383,5.0
0.39386834161147904,-0.5591212689441273,0.3152490534897558,0.025428451256694972,-0.0011665388290070591,0.11690820889944982,5.0
0.40066240524266516,-0.5531127716932095,0.2988431313156437,0.040323886802997984,-0.004101158292000937,0.13739376873720066,5.0
0.43123569158300573,-0.5410958297793981,0.2578283258803633,-0.010746151973465652,0.028913334155769594,0.13349175507325212,5.0
0.43123569158300573,-0.5410958297793981,0.2578283258803633,-0.01127812532597563,0.07219900989405563,0.11788371231543694,5.0
0.4244416279518196,-0.5290788615715747,0.3152490534897558,-0.012874071337223108,0.02597871469277571,0.006676398742519815,5.0
0.39386834161147904,-0.48101098874028103,0.3152490534897558,-0.05117659393114138,-0.011437718134766324,0.04667201351478697,5.0
0.40066240524266516,-0.48401521107172796,0.3398579457252656,-0.1160780891067407,0.021576778787116484,0.1988504482504532,5.0
0.4448238188453807,-0.5410958297793981,0.2578283258803633,-0.12937757864179592,0.037717201492975784,0.26030712776370574,5.0
0.4448238188453807,-0.5410958297793981,0.2578283258803633,-0.0799034793881506,0.07733459835849918,0.2368950457800143,5.0
0.4244416279518196,-0.5290788615715747,0.30704609240269976,-0.07458369395561558,0.020843127276952245,0.24567456462591936,5.0
0.43123569158300573,-0.5080491474873748,0.32345202355115354,-0.1219298608686445,-0.034181035750889883,0.2027524500164226,5.0
0.448220850660974,-0.5110533961128336,0.3152490534897558,-0.12139788102770512,0.04578741284590541,0.24567456462591936,5.0
0.4142505325050401,-0.5410958297793981,0.35626386789937786,-0.08362734476315574,0.04285279114585539,0.29737623377525885,5.0
0.4074564688738513,-0.544100078404857,0.2988431313156437,-0.05915628505680277,0.03478257979292577,0.3500533706466478,5.0
0.4278386597674129,-0.5380915811539394,0.2660312869674194,-0.09852276733259972,0.05605858879608046,0.29347422011131025,5.0
0.4278386597674129,-0.5380915811539394,0.2660312869674194,-0.11129027053828619,0.04725472257740234,0.11983471914741123,5.0
0.47539686733165293,-0.5711382634459625,0.2250164770449682,-0.07883951970627182,0.07733459835849918,0.13349175507325212,5.0
0.4074564688738513,-0.5591212689441273,0.27423424805447544,-0.044792835839868726,0.003969048586816426,0.13739376873720066,5.0
0.44142678702978516,-0.5380915811539394,0.32345202355115354,-0.09533088828696341,0.00030077313954600995,0.0300884658537373,5.0
0.44142678702978516,-0.5380915811539394,0.32345202355115354,-0.14374102137030054,0.14629821558010694,0.009602907131421997,5.0
0.3870742779802913,-0.48701945969718674,0.37266979007348994,-0.07458369395561558,0.11988661804260067,0.13836927215318784,5.0
0.3836772461646983,-0.49603217927955146,0.37266979007348994,-0.07564765363749433,0.05165665624600544,0.08666762679980672,5.0
0.5059701536719929,-0.5140576447382924,0.21681351595791212,-0.14640092057499748,0.03038064612432268,-0.06160879724640574,5.0
0.5059701536719929,-0.5140576447382924,0.21681351595791212,-0.19587501151534262,0.09347501826803828,-0.09672689642598456,5.0
0.4889849945940257,-0.5320830839030216,0.21681351595791212,-0.1607643665477168,0.12355489348987109,-0.05673128016647004,5.0
0.4108535006894441,-0.5621255175695861,0.2988431313156437,-0.12884559880085655,0.13749434824290077,-0.029417202365798742,5.0
0.39386834161147904,-0.5501085230677506,0.32345202355115354,-0.12086590118676571,0.06706342128979607,-0.029417202365798742,5.0
0.40405943705825853,-0.544100078404857,0.41368459550877035,-0.12778163911897775,0.025245058708499187,-0.05478027333449575,5.0
0.44142678702978516,-0.5501085230677506,0.30704609240269976,-0.1660841600907886,0.022310434771393023,-0.028441701924306426,5.0
0.45841194610775293,-0.5170618933637512,0.24962536479330724,-0.1676800979914994,0.07586728750847417,-0.07429032975625945,5.0
0.45841194610775293,-0.5170618933637512,0.24962536479330724,-0.19002323711751434,0.10154522962096794,-0.06941281862531333,5.0
0.4244416279518196,-0.48101098874028103,0.2578283258803633,-0.25811660931111574,0.11695199410549456,-0.099653406673946,5.0
0.4142505325050401,-0.4659897719069988,0.37266979007348994,-0.31557039969042244,0.09054039656798828,-0.04307424424062919,5.0
0.4210445961362268,-0.49603217927955146,0.32345202355115354,-0.34216936578367413,0.048722034545955424,-0.014784663023970778,5.0
0.43802975521419185,-0.5110533961128336,0.30704609240269976,-0.3102506012810286,0.10668081927384755,-0.026490695092332126,5.0
0.43802975521419185,-0.5110533961128336,0.30704609240269976,-0.31237852064478616,0.12795682939553032,-0.09087387593006167,5.0
0.43463272339859904,-0.5410958297793981,0.3152490534897558,-0.3049308028716347,0.11988661804260067,-0.114285946015774,5.0
0.43463272339859904,-0.5410958297793981,0.3152490534897558,-0.31823029240669,0.09934426390519445,-0.14452652811541708,5.0
0.4108535006894441,-0.5230703643206571,0.34806090681232177,-0.3528089626024619,0.10741447302106796,-0.15330605885930138,5.0
0.4108535006894441,-0.5230703643206571,0.34806090681232177,-0.3794079286957136,0.07586728750847417,-0.1513550520273271,5.0
0.4108535006894441,-0.5741425120714214,0.3398579457252656,-0.3857916867869862,0.09127405255226481,-0.19525267005281102,5.0
0.4108535006894441,-0.5921679512361506,0.32345202355115354,-0.35227697627309307,0.0883394308522148,-0.19622818536677736,5.0
0.40066240524266516,-0.5921679512361506,0.3152490534897558,-0.3288698892254777,0.053857621961778915,-0.252807335902115,5.0
0.40066240524266516,-0.5741425120714214,0.28243720914153153,-0.3129104939972961,-0.007769438213383631,-0.22549326405043335,5.0
0.4244416279518196,-0.5561170203186683,0.30704609240269976,-0.34216936578367413,-0.009236750181936709,-0.18257113754295734,5.0
0.448220850660974,-0.5290788615715747,0.21681351595791212,-0.32727394321423015,0.01570753538701647,-0.1474530383633785,5.0
0.44142678702978516,-0.5320830839030216,0.2578283258803633,-0.3166343593723012,0.014973879402739938,-0.16306108112119366,5.0
0.43123569158300573,-0.5230703643206571,0.29064017022858757,-0.31344248032666494,0.011305603955469529,-0.12696747852562768,5.0
0.43802975521419185,-0.5080491474873748,0.2250164770449682,-0.3187622787360588,0.02304409075566957,-0.08989837251407455,5.0
0.43802975521419185,-0.5170618933637512,0.2578283258803633,-0.29482319887064523,0.02304409075566957,-0.05770678358245716,5.0
0.4550149142921601,-0.5290788615715747,0.28243720914153153,-0.2655643270842672,0.022310434771393023,-0.011858152776009346,5.0
0.44142678702978516,-0.5471043270303156,0.28243720914153153,-0.22726180124613427,0.03404892380864922,0.0037498907254294766,5.0
0.448220850660974,-0.5711382634459625,0.28243720914153153,-0.1676800979914994,0.01937581530839917,-0.010882650847269595,5.0
0.4244416279518196,-0.5260746129461159,0.2578283258803633,-0.13576133024463916,-0.021708892966413297,-0.008931645502542709,5.0
0.4278386597674129,-0.5230703643206571,0.28243720914153153,-0.16555218187195658,-0.06866284911543807,0.0037498907254294766,5.0
0.4278386597674129,-0.5170618933637512,0.23321943813202425,-0.19268313464941306,-0.07013015213576655,0.004725393397792922,5.0
0.4244416279518196,-0.5170618933637512,0.28243720914153153,-0.1905552167556903,-0.08993885476300856,0.018382431926316705,5.0
0.43123569158300573,-0.5230703643206571,0.2578283258803633,-0.1857674012286871,-0.07966767098313701,0.03301497312720394,5.0
0.4210445961362268,-0.505044925155928,0.29064017022858757,-0.16927603751431758,-0.05325608239385532,0.014480420958004038,5.0
0.44142678702978516,-0.48701945969718674,0.23321943813202425,-0.17831968832185774,0.006903672523922573,0.02130894031521889,5.0
0.4618089779233468,-0.45998127465608124,0.29064017022858757,-0.18789531937586415,0.06412879958974606,0.012529415427371222,5.0
0.4550149142921601,-0.4569770260306225,0.2414223992190804,-0.24002930769603542,0.12428854947414765,0.09056963451476568,5.0
0.4516178824765668,-0.4659897719069988,0.2578283258803633,-0.2772678706080749,0.18664926339653057,0.16958535766881805,5.0
0.4278386597674129,-0.48701945969718674,0.20040759154021456,-0.3203582117704476,0.19618679119212556,0.17251186791677953,5.0
0.4244416279518196,-0.502040676530469,0.2414223992190804,-0.33844551338552786,0.22993493962417264,0.15495281832699007,5.0
0.43802975521419185,-0.502040676530469,0.23321943813202425,-0.34004144641991657,0.2710196568472097,0.18909541409058175,5.0
0.43123569158300573,-0.5410958297793981,0.27423424805447544,-0.3682363715012747,0.28275813469918515,0.22323802175215263,5.0
0.4278386597674129,-0.5471043270303156,0.2988431313156437,-0.396431283605774,0.2526782661885208,0.2612826192817137,5.0
0.4210445961362268,-0.5861594539852327,0.38087275116054603,-0.4352657925290611,0.15363477094876005,0.2612826192817137,5.0
0.4278386597674129,-0.5951721998616093,0.3644668289864339,-0.46558861102045895,0.06999804340929411,0.20470345684839691,5.0
0.4278386597674129,-0.5951721998616093,0.3644668289864339,-0.4623967449516815,0.038450857477252305,0.1617813422389001,5.0
0.4176475643206335,-0.6162018876517972,0.2414223992190804,-0.38206783438884,0.03991816720874924,0.09252064134674,5.0
0.4142505325050401,-0.5741425120714214,0.28243720914153153,-0.3198262254410787,0.02597871469277571,0.044721006682812675,5.0
0.4176475643206335,-0.5290788615715747,0.20861055487085606,-0.2724800585280498,0.052390312230281975,-0.006980640157815818,5.0
0.4176475643206335,-0.5110533961128336,0.18400166824430972,-0.2655643270842672,0.029646990140046126,-0.00015212070764799947,5.0
0.43123569158300573,-0.48401521107172796,0.18400166824430972,-0.2442851464235505,-0.011437718134766324,-0.012833656191996489,5.0
0.44142678702978516,-0.4780067401148223,0.18400166824430972,-0.23630545205367443,0.006903672523922573,0.001798884637078888,5.0
0.4550149142921601,-0.48401521107172796,0.18400166824430972,-0.23630545205367443,0.06339514416473356,0.04374550326682553,5.0
0.44142678702978516,-0.502040676530469,0.1922046304531585,-0.25545671659484825,0.0692643878444656,0.02521095174829637,5.0
0.43123569158300573,-0.505044925155928,0.20040759154021456,-0.2522648375492119,0.058259555630382,0.027161957093023256,5.0
0.43463272339859904,-0.502040676530469,0.28243720914153153,-0.2629044278795703,0.049455690530231966,0.047647513956279315,5.0
0.43463272339859904,-0.502040676530469,0.28243720914153153,-0.2676922399595953,0.024511402724222656,0.07105958404199157,5.0
0.43802975521419185,-0.5140576447382924,0.1922046304531585,-0.26928817948241346,0.029646990140046126,0.09544715159470142,5.0
0.44142678702978516,-0.5080491474873748,0.28243720914153153,-0.27673589076713545,0.04505375686162889,0.11203069776850368,5.0
0.44142678702978516,-0.5080491474873748,0.28243720914153153,-0.27886381013089306,0.03624988952442269,0.06423106013008159,5.0
0.43463272339859904,-0.5110533961128336,0.20040759154021456,-0.28152370933558996,0.050189344277452363,0.06228005627260207,5.0
0.43123569158300573,-0.5200661156951981,0.15118982165250006,-0.26875619964147407,0.043586444893075796,0.08276561313585812,5.0
0.43123569158300573,-0.5200661156951981,0.15118982165250006,-0.23311357625225285,0.028913334155769594,0.056427038751174,5.0
0.43123569158300573,-0.5501085230677506,0.15118982165250006,-0.18895927824668923,0.010571947971192982,0.010578409803785445,5.0
0.4142505325050401,-0.5501085230677506,0.13478389835659518,-0.17778770848091835,0.026712370677052264,-0.03136820919777304,5.0
0.4142505325050401,-0.5501085230677506,0.13478389835659518,-0.1676800979914994,0.02304409075566957,-0.025515191676344966,5.0
0.43123569158300573,-0.5591212689441273,0.18400166824430972,-0.14480498105217932,-0.0004328828447305371,0.007651901414883259,5.0
0.4278386597674129,-0.5591212689441273,0.18400166824430972,-0.13363341088088163,0.01570753538701647,0.0037498907254294766,5.0
0.4244416279518196,-0.5380915811539394,0.20040759154021456,-0.15544457138253764,0.005436360555369488,0.012529415427371222,5.0
0.43123569158300573,-0.5140576447382924,0.23321943813202425,-0.16927603751431758,0.003969048586816426,0.02521095174829637,5.0
0.43802975521419185,-0.5080491474873748,0.13478389835659518,-0.14640092057499748,0.03624988952442269,0.07008408062600445,5.0
0.43802975521419185,-0.5110533961128336,0.1922046304531585,-0.1495927963764191,0.05459127794605545,0.06325555968858924,5.0
0.43463272339859904,-0.5350873325284804,0.23321943813202425,-0.134165390721821,0.053857621961778915,0.059353548999135454,5.0
0.43463272339859904,-0.5290788615715747,0.1757987065963573,-0.12299382055052328,0.06632976586478358,-0.012833656191996489,5.0
0.4210445961362268,-0.5290788615715747,0.2250164770449682,-0.10969433750389745,0.05459127794605545,-0.008931645502542709,5.0
0.4278386597674129,-0.5260746129461159,0.23321943813202425,-0.1107582906973468,0.06632976586478358,-0.06941281862531333,5.0
0.4278386597674129,-0.5260746129461159,0.23321943813202425,-0.1107582906973468,0.06632976586478358,-0.06941281862531333,5.0
0.4278386597674129,-0.5501085230677506,0.2250164770449682,-0.08788317700224142,0.060460522464683544,-0.05185376903552391,5.0
0.43123569158300573,-0.544100078404857,0.20861055487085606,-0.08575525763848388,0.06412879958974606,-0.05868228699844431,5.0
0.43463272339859904,-0.5350873325284804,0.20861055487085606,-0.07883951970627182,0.06192783331470855,-0.052829272451511054,5.0
0.44142678702978516,-0.544100078404857,0.20040759154021456,-0.07617962699000431,0.053857621961778915,-0.026490695092332126,5.0
0.44142678702978516,-0.5290788615715747,0.28243720914153153,-0.07351973427373681,0.0677970769944406,0.002774388053066033,5.0
0.44142678702978516,-0.5320830839030216,0.2414223992190804,-0.09958672701447852,0.10081157363669138,0.0300884658537373,5.0
0.43463272339859904,-0.5140576447382924,0.2414223992190804,-0.10916235766295804,0.09054039656798828,0.06715757037804301,5.0
0.43802975521419185,-0.4990364279050102,0.28243720914153153,-0.13735726976745732,0.07733459835849918,0.09642265501068857,5.0
0.43802975521419185,-0.5110533961128336,0.2414223992190804,-0.1352293504036998,0.06999804340929411,0.10715318663755757,5.0
0.43123569158300573,-0.4990364279050102,0.21681351595791212,-0.14480498105217932,0.10594716328957103,0.11495720206747553,5.0
0.43123569158300573,-0.505044925155928,0.30704609240269976,-0.14427300121123993,0.10814812900534448,0.10812868410455512,5.0
0.43123569158300573,-0.5140576447382924,0.2414223992190804,-0.15597655122347703,0.09420867425231483,0.11300620118449081,5.0
0.43123569158300573,-0.544100078404857,0.2414223992190804,-0.1671481197726674,0.08540480915216479,0.060329052415122604,5.0
0.43123569158300573,-0.544100078404857,0.21681351595791212,-0.18257552461621182,0.08687212000218979,0.026186453677036117,5.0
0.43463272339859904,-0.544100078404857,0.20040759154021456,-0.18417146251692262,0.0883394308522148,0.007651901414883259,5.0
0.43463272339859904,-0.544100078404857,0.1922046304531585,-0.2038547036548211,0.0883394308522148,-0.007956142086555564,5.0
0.44142678702978516,-0.544100078404857,0.20040759154021456,-0.2022587657541103,0.07660094293348668,-0.01673566688145027,5.0
0.44142678702978516,-0.5320830839030216,0.20040759154021456,-0.19427907310772327,0.07439997637881716,-0.03136820919777304,5.0
0.4244416279518196,-0.5230703643206571,0.1922046304531585,-0.170339995574089,0.06412879958974606,0.0037498907254294766,5.0
0.4176475643206335,-0.5200661156951981,0.13478389835659518,-0.18257552461621182,0.05532493393033199,-0.006980640157815818,5.0
0.4244416279518196,-0.5170618933637512,0.23321943813202425,-0.18204354477527243,0.06486245501475857,-0.023564187818865486,5.0
0.43123569158300573,-0.5080491474873748,0.18400166824430972,-0.19906688833058134,0.06632976586478358,0.018382431926316705,5.0
0.4244416279518196,-0.5140576447382924,0.1922046304531585,-0.18895927824668923,0.06412879958974606,-0.015760163465463127,5.0
0.43802975521419185,-0.5230703643206571,0.18400166824430972,-0.19800292945975623,0.06486245501475857,0.012529415427371222,5.0
0.43802975521419185,-0.5260746129461159,0.18400166824430972,-0.20545064236658558,0.052390312230281975,0.015455923723320445,5.0
0.4244416279518196,-0.5290788615715747,0.20040759154021456,-0.19268313464941306,0.06632976586478358,0.001798884637078888,5.0
0.43123569158300573,-0.5380915811539394,0.2414223992190804,-0.21130241737270414,0.06559611043977107,-0.012833656191996489,5.0
0.43123569158300573,-0.5380915811539394,0.2414223992190804,-0.2219420060809551,0.06266148818045703,-0.015760163465463127,5.0
0.4278386597674129,-0.5380915811539394,0.1757987065963573,-0.23417753593413157,0.06412879958974606,-0.0021031260523748925,5.0
0.4278386597674129,-0.5380915811539394,0.1757987065963573,-0.23470951253085628,0.08687212000218979,-0.00307862946836204,5.0
0.43123569158300573,-0.5531127716932095,0.18400166824430972,-0.24960493834451497,0.06706342128979607,-0.039172230576680594,5.0
0.44142678702978516,-0.5380915811539394,0.18400166824430972,-0.23364555609319218,0.05679224478035699,-0.023564187818865486,5.0
0.43123569158300573,-0.5380915811539394,0.1757987065963573,-0.25545671659484825,0.07439997637881716,-0.006980640157815818,5.0
0.43123569158300573,-0.544100078404857,0.2250164770449682,-0.238433371417432,0.06486245501475857,-0.01966217712941171,5.0
0.4244416279518196,-0.5290788615715747,0.20040759154021456,-0.23896535125837134,0.06486245501475857,-0.03039270578178591,5.0
0.4244416279518196,-0.5290788615715747,0.18400166824430972,-0.2416252472188536,0.048722034545955424,-0.006980640157815818,5.0
0.4278386597674129,-0.5410958297793981,0.21681351595791212,-0.24215722705979295,0.025245058708499187,-0.025515191676344966,5.0
0.43123569158300573,-0.5380915811539394,0.2250164770449682,-0.2629044278795703,0.02597871469277571,-0.05087826561953674,5.0
0.43123569158300573,-0.5380915811539394,0.2250164770449682,-0.24215722705979295,0.0509230002617289,-0.027466198508319266,5.0
0.43123569158300573,-0.5410958297793981,0.2250164770449682,-0.21343033511435433,0.05605858879608046,-0.038196727160693465,5.0
0.43123569158300573,-0.5320830839030216,0.2250164770449682,-0.21928210849836555,0.07219900989405563,-0.021613180986891186,5.0
0.43123569158300573,-0.5320830839030216,0.2250164770449682,-0.22992169720661648,0.06632976586478358,-0.03527021988722682,5.0
0.43123569158300573,-0.5350873325284804,0.1757987065963573,-0.21236637543247555,0.07660094293348668,-0.028441701924306426,5.0
0.4278386597674129,-0.5350873325284804,0.2250164770449682,-0.2049186625256462,0.07293266538897615,-0.05575577675048287,5.0
0.4278386597674129,-0.5350873325284804,0.2250164770449682,-0.2006628270423458,0.06559611043977107,-0.0645353015453776,5.0
0.44142678702978516,-0.544100078404857,0.2250164770449682,-0.19481105264451754,0.08026922061781323,-0.08014335025218229,5.0
0.4244416279518196,-0.5410958297793981,0.2250164770449682,-0.1916191756265154,0.06192783331470855,-0.0889228690980874,5.0
0.43802975521419185,-0.5410958297793981,0.20861055487085606,-0.1676800979914994,0.06192783331470855,-0.09380038617802314,5.0
0.43123569158300573,-0.5350873325284804,0.13478389835659518,-0.13735726976745732,0.08100287548356169,-0.09087387593006167,5.0
0.43463272339859904,-0.5350873325284804,0.13478389835659518,-0.13735726976745732,0.08026922061781323,-0.04795175537157532,5.0
0.4448238188453807,-0.5260746129461159,0.15939278330045248,-0.12990955848273533,0.08026922061781323,-0.06941281862531333,5.0
0.44142678702978516,-0.5080491474873748,0.12658093502595372,-0.12512173991428083,0.05899321049613047,-0.01868667371342457,5.0
0.4278386597674129,-0.5080491474873748,0.18400166824430972,-0.12724965927803839,0.09200770853654135,-0.03136820919777304,5.0
0.43123569158300573,-0.5200661156951981,0.13478389835659518,-0.15810446734301986,0.08320384231786324,-0.03722122374470633,5.0
0.43123569158300573,-0.5170618933637512,0.18400166824430972,-0.15970040686583803,0.08907308683649133,-0.014784663023970778,5.0
0.43802975521419185,-0.502040676530469,0.1757987065963573,-0.17565979073926816,0.0839374983021398,-0.023564187818865486,5.0
0.43123569158300573,-0.5230703643206571,0.1922046304531585,-0.166616139931728,0.0839374983021398,-0.021613180986891186,5.0
0.43463272339859904,-0.5230703643206571,0.15939278330045248,-0.1575724875020805,0.06119417733043202,-0.046976251955588195,5.0
0.43123569158300573,-0.5290788615715747,0.21681351595791212,-0.1602323867067774,0.05459127794605545,-0.014784663023970778,5.0
0.43802975521419185,-0.5230703643206571,0.20040759154021456,-0.166616139931728,0.07513363180382968,-0.006980640157815818,5.0
0.4448238188453807,-0.5080491474873748,0.23321943813202425,-0.1682120778324388,0.06412879958974606,-0.012833656191996489,5.0
0.43123569158300573,-0.5230703643206571,0.21681351595791212,-0.17087197541502838,0.08687212000218979,-0.01966217712941171,5.0
0.43123569158300573,-0.5230703643206571,0.18400166824430972,-0.16289228266725964,0.10154522962096794,-0.027466198508319266,5.0
0.43123569158300573,-0.5230703643206571,0.1922046304531585,-0.17459583267949674,0.10961543873684144,-0.011858152776009346,5.0
0.4278386597674129,-0.5260746129461159,0.1922046304531585,-0.18204354477527243,0.07733459835849918,-0.012833656191996489,5.0
0.4278386597674129,-0.5080491474873748,0.15118982165250006,-0.17991562703362224,0.060460522464683544,0.0300884658537373,5.0
0.43802975521419185,-0.5170618933637512,0.15118982165250006,-0.19215115516330966,0.06266148818045703,-0.001127622636387748,5.0
0.44142678702978516,-0.5200661156951981,0.15118982165250006,-0.1953430320799301,0.057525899646105466,0.03789248723264485,5.0
0.4244416279518196,-0.5260746129461159,0.2414223992190804,-0.2033227246249354,0.048722034545955424,-0.00307862946836204,5.0
0.43123569158300573,-0.5260746129461159,0.20040759154021456,-0.18097958590444732,0.05312396709603045,0.04276999985083838,5.0
0.43463272339859904,-0.5170618933637512,0.20040759154021456,-0.18895927824668923,0.0685307324194531,0.07886360542089915,5.0
0.43802975521419185,-0.5140576447382924,0.18400166824430972,-0.18842729881127668,0.03624988952442269,0.05252502806172022,5.0
0.43123569158300573,-0.5140576447382924,0.20040759154021456,-0.19374709362161988,0.06706342128979607,0.06910857721001731,5.0
0.4278386597674129,-0.5230703643206571,0.18400166824430972,-0.17885166816279713,0.0685307324194531,0.048623017372266444,5.0
0.43463272339859904,-0.5200661156951981,0.15939278330045248,-0.17512781089832877,0.06999804340929411,0.027161957093023256,5.0
0.4244416279518196,-0.5110533961128336,0.15939278330045248,-0.18204354477527243,0.07293266538897615,0.06325555968858924,5.0
0.44142678702978516,-0.505044925155928,0.15939278330045248,-0.19215115516330966,0.0780682537835117,0.020333437642855445,5.0
0.44142678702978516,-0.5170618933637512,0.2250164770449682,-0.19427907310772327,0.07586728750847417,0.028137459021763008,5.0
0.43463272339859904,-0.5290788615715747,0.2250164770449682,-0.1894912576821018,0.07366632095380465,0.0515495246457331,5.0
0.43463272339859904,-0.5140576447382924,0.1922046304531585,-0.21343033511435433,0.06999804340929411,0.019357934970492,5.0
0.43802975521419185,-0.5110533961128336,0.20861055487085606,-0.202790744783996,0.08320384231786324,0.035941481887917966,5.0
0.44142678702978516,-0.5230703643206571,0.18400166824430972,-0.19800292945975623,0.0839374983021398,0.03203947119846419,5.0
0.448220850660974,-0.5140576447382924,0.20861055487085606,-0.19587501151534262,0.057525899646105466,0.038867989161384606,5.0
0.43123569158300573,-0.5080491474873748,0.13478389835659518,-0.19374709362161988,0.0839374983021398,0.022284442987582337,5.0
0.43123569158300573,-0.4990364279050102,0.18400166824430972,-0.202790744783996,0.07660094293348668,0.007651901414883259,5.0
0.44142678702978516,-0.505044925155928,0.20861055487085606,-0.19959886817152073,0.07733459835849918,0.028137459021763008,5.0
0.43123569158300573,-0.5170618933637512,0.1757987065963573,-0.19427907310772327,0.12062027402687724,-0.00307862946836204,5.0
0.4244416279518196,-0.5170618933637512,0.20040759154021456,-0.16289228266725964,0.08760577486793826,0.022284442987582337,5.0
0.43123569158300573,-0.5200661156951981,0.1757987065963573,-0.15278467217784072,0.0883394308522148,0.012529415427371222,5.0
0.43123569158300573,-0.5200661156951981,0.1757987065963573,-0.1687440576733782,0.07513363180382968,0.022284442987582337,5.0
0.4244416279518196,-0.502040676530469,0.18400166824430972,-0.1836394834870369,0.09787695193664138,0.02911296243775015,5.0
0.4244416279518196,-0.502040676530469,0.20861055487085606,-0.170339995574089,0.0788019092085242,0.03399047654319108,5.0
0.4176475643206335,-0.5230703643206571,0.18400166824430972,-0.1650202020310172,0.06119417733043202,0.012529415427371222,5.0
0.4176475643206335,-0.5140576447382924,0.15118982165250006,-0.1660841600907886,0.06999804340929411,0.008627404459058553,5.0
0.4448238188453807,-0.502040676530469,0.07736316401644648,-0.16980801735525697,0.07293266538897615,0.006676398742519815,5.0
0.448220850660974,-0.505044925155928,0.15118982165250006,-0.17140395525596777,0.04725472257740234,0.009602907131421997,5.0
0.4550149142921601,-0.502040676530469,0.21681351595791212,-0.202790744783996,0.053857621961778915,0.0300884658537373,5.0
0.43123569158300573,-0.49302795694810453,0.21681351595791212,-0.23683743189461381,0.08100287548356169,0.038867989161384606,5.0
0.43123569158300573,-0.502040676530469,0.15939278330045248,-0.24109326737791423,0.07733459835849918,0.03984349257737175,5.0
0.4244416279518196,-0.5170618933637512,0.20040759154021456,-0.24375316658261117,0.06632976586478358,0.060329052415122604,5.0
0.43123569158300573,-0.5170618933637512,0.1757987065963573,-0.2442851464235505,0.053857621961778915,0.026186453677036117,5.0
0.43123569158300573,-0.5170618933637512,0.1757987065963573,-0.23098565688849526,0.0692643878444656,0.018382431926316705,5.0
0.44142678702978516,-0.5260746129461159,0.18400166824430972,-0.24322118674167173,0.0788019092085242,0.00570089607015637,5.0
0.43463272339859904,-0.5290788615715747,0.18400166824430972,-0.23577347221273506,0.06266148818045703,0.011553912662054815,5.0
0.43802975521419185,-0.5320830839030216,0.18400166824430972,-0.2219420060809551,0.0685307324194531,-0.013809159607983634,5.0
0.4108535006894441,-0.5290788615715747,0.20040759154021456,-0.21449429317412574,0.07219900989405563,-0.0021031260523748925,5.0
0.4244416279518196,-0.5380915811539394,0.11837797393889765,-0.19800292945975623,0.06632976586478358,0.008627404459058553,5.0
0.4210445961362268,-0.5230703643206571,0.18400166824430972,-0.21130241737270414,0.07660094293348668,0.048623017372266444,5.0
0.4244416279518196,-0.5380915811539394,0.1922046304531585,-0.21289835527341494,0.007637328508199095,0.06520656354606873,5.0
0.43463272339859904,-0.544100078404857,0.20040759154021456,-0.21289835527341494,0.037717201492975784,0.09447164817871428,5.0
0.43463272339859904,-0.5320830839030216,0.20040759154021456,-0.22034606818024433,0.0677970769944406,0.1013001661416347,5.0
0.44142678702978516,-0.5230703643206571,0.09376909067772939,-0.21555825285600452,0.04725472257740234,0.11788371231543694,5.0
0.4550149142921601,-0.5290788615715747,0.11017501285184157,-0.22247398592189446,0.07219900989405563,0.15592832174297722,5.0
0.44142678702978516,-0.5290788615715747,0.15118982165250006,-0.22619784156425551,0.10227888560524447,0.15690382515896437,5.0
0.4278386597674129,-0.5290788615715747,0.13478389835659518,-0.2485409786626362,0.0883394308522148,0.1471488028970721,5.0
0.43123569158300573,-0.5350873325284804,0.13478389835659518,-0.23417753593413157,0.09127405255226481,0.12373673281135983,5.0
0.43463272339859904,-0.5380915811539394,0.18400166824430972,-0.23470951253085628,0.08467115316788824,0.15202630807902862,5.0
0.43123569158300573,-0.5410958297793981,0.18400166824430972,-0.23736941173555318,0.12502220545842416,0.11983471914741123,5.0
0.4448238188453807,-0.544100078404857,0.18400166824430972,-0.23630545205367443,0.13896166021145384,0.11983471914741123,5.0
0.4278386597674129,-0.5380915811539394,0.11017501285184157,-0.22087804639907635,0.13015779287424767,0.1188592157314241,5.0
0.4244416279518196,-0.5320830839030216,0.13478389835659518,-0.2198140883393049,0.11401737464250065,0.10422667638959614,5.0
0.43463272339859904,-0.5380915811539394,0.24962536479330724,-0.2038547036548211,0.1110827507053945,0.09349614476272712,5.0
0.4278386597674129,-0.5380915811539394,0.2250164770449682,-0.21236637543247555,0.1037461953367414,0.11690820889944982,5.0
0.44142678702978516,-0.5230703643206571,0.2250164770449682,-0.21077043753176475,0.07586728750847417,0.12568773964333416,5.0
0.44142678702978516,-0.5290788615715747,0.14298685944365128,-0.21662221091577594,0.10521350730529448,0.1315407482412778,5.0
0.44142678702978516,-0.5260746129461159,0.14298685944365128,-0.2070465802672964,0.08467115316788824,0.1530018114950158,5.0
0.43123569158300573,-0.5110533961128336,0.11017501285184157,-0.20757856010823578,0.0898067417022398,0.1530018114950158,5.0
0.43123569158300573,-0.5230703643206571,0.15118982165250006,-0.20545064236658558,0.08026922061781323,0.09349614476272712,5.0
0.4244416279518196,-0.5260746129461159,0.15118982165250006,-0.20757856010823578,0.08320384231786324,0.09739815842667572,5.0
0.43802975521419185,-0.544100078404857,0.21681351595791212,-0.22406992544471263,0.08467115316788824,0.08276561313585812,5.0
0.4448238188453807,-0.5290788615715747,0.15118982165250006,-0.22460190528565202,0.08687212000218979,0.09349614476272712,5.0
0.44142678702978516,-0.5501085230677506,0.21681351595791212,-0.22779378108707368,0.09054039656798828,0.081790109719871,5.0
0.4244416279518196,-0.5260746129461159,0.20861055487085606,-0.22672982140519488,0.08100287548356169,0.0759370951729377,5.0
0.4176475643206335,-0.5350873325284804,0.18400166824430972,-0.23364555609319218,0.08100287548356169,0.055451538309681685,5.0
0.4244416279518196,-0.5320830839030216,0.1757987065963573,-0.22938972060989185,0.06559611043977107,0.07105958404199157,5.0
0.4176475643206335,-0.5350873325284804,0.18400166824430972,-0.22300596576283385,0.0692643878444656,0.024235448332309225,5.0
0.43123569158300573,-0.5410958297793981,0.18400166824430972,-0.23364555609319218,0.06559611043977107,0.02521095174829637,5.0
0.43123569158300573,-0.5531127716932095,0.14298685944365128,-0.23896535125837134,0.0692643878444656,0.009602907131421997,5.0
0.4176475643206335,-0.5501085230677506,0.13478389835659518,-0.22885774076895246,0.06339514416473356,-0.020637677570904057,5.0
0.43463272339859904,-0.5501085230677506,0.15939278330045248,-0.21183439559153616,0.043586444893075796,-0.026490695092332126,5.0
0.4278386597674129,-0.5471043270303156,0.13478389835659518,-0.2043866834957605,0.0788019092085242,-0.020637677570904057,5.0
0.43123569158300573,-0.5591212689441273,0.11837797393889765,-0.22832576092801302,0.07293266538897615,0.0300884658537373,5.0
0.43123569158300573,-0.5531127716932095,0.11837797393889765,-0.23151763672943468,0.05532493393033199,0.020333437642855445,5.0
0.43123569158300573,-0.544100078404857,0.14298685944365128,-0.24215722705979295,0.052390312230281975,-0.0021031260523748925,5.0
0.4176475643206335,-0.5290788615715747,0.15118982165250006,-0.24375316658261117,0.029646990140046126,0.024235448332309225,5.0
0.43463272339859904,-0.5200661156951981,0.09376909067772939,-0.2538607770720301,0.03184795809287576,0.05252502806172022,5.0
0.4244416279518196,-0.5290788615715747,0.08556612510350253,-0.2543927569129695,0.04578741284590541,0.014480420958004038,5.0
0.43802975521419185,-0.5380915811539394,0.15118982165250006,-0.2485409786626362,0.06412879958974606,0.026186453677036117,5.0
0.4448238188453807,-0.5350873325284804,0.13478389835659518,-0.2708841190052316,0.06559611043977107,0.02130894031521889,5.0
0.4448238188453807,-0.5350873325284804,0.13478389835659518,-0.2666282802777165,0.10594716328957103,0.026186453677036117,5.0
0.43123569158300573,-0.5410958297793981,0.13478389835659518,-0.26928817948241346,0.0839374983021398,0.04667201351478697,5.0
0.4278386597674129,-0.544100078404857,0.15118982165250006,-0.27407599805086796,0.08320384231786324,0.010578409803785445,5.0
0.4278386597674129,-0.5501085230677506,0.13478389835659518,-0.2682242198005347,0.09200770853654135,0.031063967782477036,5.0
0.4176475643206335,-0.5531127716932095,0.15118982165250006,-0.2591805689929945,0.10521350730529448,0.04276999985083838,5.0
0.4278386597674129,-0.5471043270303156,0.15118982165250006,-0.22938972060989185,0.06632976586478358,0.05252502806172022,5.0
0.4278386597674129,-0.5561170203186683,0.14298685944365128,-0.23470951253085628,0.06632976586478358,0.060329052415122604,5.0
0.4244416279518196,-0.5561170203186683,0.15118982165250006,-0.22619784156425551,0.08540480915216479,0.04276999985083838,5.0
0.43463272339859904,-0.5471043270303156,0.20040759154021456,-0.21023845769082536,0.0780682537835117,0.09349614476272712,5.0
0.43123569158300573,-0.5501085230677506,0.18400166824430972,-0.21449429317412574,0.0677970769944406,0.06325555968858924,5.0
0.43123569158300573,-0.5501085230677506,0.15118982165250006,-0.22034606818024433,0.07586728750847417,0.06423106013008159,5.0
0.4244416279518196,-0.5531127716932095,0.13478389835659518,-0.22779378108707368,0.08173653146783824,0.07105958404199157,5.0
0.4244416279518196,-0.5501085230677506,0.15118982165250006,-0.21130241737270414,0.09640964220514446,0.060329052415122604,5.0
0.4142505325050401,-0.5561170203186683,0.15118982165250006,-0.2070465802672964,0.09714329595236486,0.05252502806172022,5.0
0.4278386597674129,-0.5471043270303156,0.11017501285184157,-0.2006628270423458,0.10081157363669138,0.06130455285661495,5.0
0.43123569158300573,-0.5591212689441273,0.18400166824430972,-0.19427907310772327,0.06486245501475857,0.08276561313585812,5.0
0.4210445961362268,-0.5501085230677506,0.11017501285184157,-0.1852354221988014,0.0677970769944406,0.08374111655184528,5.0
0.43123569158300573,-0.5561170203186683,0.15118982165250006,-0.1974709500243437,0.08026922061781323,0.08374111655184528,5.0
0.4244416279518196,-0.5591212689441273,0.1757987065963573,-0.19481105264451754,0.08907308683649133,0.06228005627260207,5.0
0.4244416279518196,-0.5651297661950448,0.09376909067772939,-0.1671481197726674,0.06632976586478358,0.06715757037804301,5.0
0.4244416279518196,-0.5651297661950448,0.09376909067772939,-0.16555218187195658,0.07733459835849918,0.047647513956279315,5.0
0.4244416279518196,-0.5651297661950448,0.09376909067772939,-0.16236030282632027,0.0788019092085242,0.06910857721001731,5.0
0.4244416279518196,-0.5651297661950448,0.15118982165250006,-0.1453369608931187,0.0883394308522148,0.044721006682812675,5.0
0.4244416279518196,-0.5651297661950448,0.15118982165250006,-0.14267706168842176,0.05312396709603045,0.04276999985083838,5.0
0.43123569158300573,-0.5651297661950448,0.2414223992190804,-0.12884559880085655,0.06412879958974606,0.07788810200491202,5.0
0.43123569158300573,-0.5771467081088563,0.1922046304531585,-0.1198019479933164,0.060460522464683544,0.08666762679980672,5.0
0.43123569158300573,-0.5771467081088563,0.1922046304531585,-0.11341818990204376,0.060460522464683544,0.047647513956279315,5.0
0.43123569158300573,-0.5801509567343153,0.18400166824430972,-0.10224661973074602,0.05679224478035699,0.023259945659945783,5.0
0.4278386597674129,-0.5771467081088563,0.18400166824430972,-0.09107504955944831,0.04578741284590541,0.038867989161384606,5.0
0.4278386597674129,-0.5771467081088563,0.18400166824430972,-0.10650245845826112,0.05532493393033199,0.0300884658537373,5.0
0.4244416279518196,-0.5621255175695861,0.18400166824430972,-0.1033105794126248,0.06412879958974606,0.02911296243775015,5.0
0.4278386597674129,-0.5741425120714214,0.15118982165250006,-0.10011870685541792,0.0509230002617289,0.05252502806172022,5.0
0.4278386597674129,-0.5741425120714214,0.15118982165250006,-0.08469129795660507,0.05532493393033199,0.020333437642855445,5.0
0.4176475643206335,-0.5771467081088563,0.21681351595791212,-0.08894713668412017,0.032581614077152286,0.009602907131421997,5.0
0.4244416279518196,-0.5741425120714214,0.20040759154021456,-0.09639484796884219,0.03698354550869923,0.0037498907254294766,5.0
0.43802975521419185,-0.5711382634459625,0.15939278330045248,-0.08894713668412017,0.04798837856167889,0.024235448332309225,5.0
0.43802975521419185,-0.5711382634459625,0.15939278330045248,-0.10011870685541792,0.04285279114585539,-0.0021031260523748925,5.0
0.4176475643206335,-0.5591212689441273,0.15118982165250006,-0.09692682780978157,0.06192783331470855,-0.007956142086555564,5.0
0.4176475643206335,-0.5621255175695861,0.15118982165250006,-0.10490651893544296,0.049455690530231966,-0.020637677570904057,5.0
0.4278386597674129,-0.5711382634459625,0.15118982165250006,-0.09639484796884219,0.03624988952442269,-0.036245723303213975,5.0
0.4244416279518196,-0.5741425120714214,0.15118982165250006,-0.09586286812790282,0.041385479177302315,-0.011858152776009346,5.0
0.4244416279518196,-0.5681340148205035,0.15118982165250006,-0.10969433750389745,0.06486245501475857,-0.014784663023970778,5.0
0.44142678702978516,-0.5771467081088563,0.18400166824430972,-0.11714204878861945,0.08760577486793826,-0.014784663023970778,5.0
0.43123569158300573,-0.5801509567343153,0.18400166824430972,-0.11235423022016496,0.035516235777202296,0.004725393397792922,5.0
0.43463272339859904,-0.5651297661950448,0.15118982165250006,-0.12033392134582635,0.0685307324194531,-0.020637677570904057,5.0
0.43802975521419185,-0.5561170203186683,0.13478389835659518,-0.11554610926580129,0.08613846401791327,-0.028441701924306426,5.0
0.43123569158300573,-0.5561170203186683,0.14298685944365128,-0.14054914556887893,0.07513363180382968,-0.01673566688145027,5.0
0.43123569158300573,-0.5501085230677506,0.20040759154021456,-0.15118873589923726,0.0692643878444656,-0.010882650847269595,5.0
0.4244416279518196,-0.544100078404857,0.20861055487085606,-0.17885166816279713,0.0788019092085242,-0.006005136741828676,5.0
0.4244416279518196,-0.5320830839030216,0.1922046304531585,-0.18629938106962649,0.07439997637881716,-0.013809159607983634,5.0
0.4176475643206335,-0.5651297661950448,0.20040759154021456,-0.20545064236658558,0.06486245501475857,0.023259945659945783,5.0
0.4142505325050401,-0.5651297661950448,0.18400166824430972,-0.21183439559153616,0.058259555630382,0.018382431926316705,5.0
0.4244416279518196,-0.5621255175695861,0.18400166824430972,-0.2006628270423458,0.06266148818045703,0.024235448332309225,5.0
0.4278386597674129,-0.5711382634459625,0.15118982165250006,-0.202790744783996,0.04725472257740234,0.06325555968858924,5.0
0.43802975521419185,-0.5891637026106915,0.10197205176478552,-0.1974709500243437,0.07366632095380465,0.044721006682812675,5.0
0.44142678702978516,-0.5861594539852327,0.12658093502595372,-0.1868313600995122,0.06486245501475857,0.023259945659945783,5.0
0.43463272339859904,-0.5801509567343153,0.14298685944365128,-0.19481105264451754,0.07513363180382968,0.016431426581589813,5.0
0.43802975521419185,-0.5771467081088563,0.14298685944365128,-0.18895927824668923,0.08687212000218979,0.01740692925395326,5.0
0.4244416279518196,-0.5741425120714214,0.15939278330045248,-0.2065146012374107,0.09787695193664138,0.027161957093023256,5.0
0.4176475643206335,-0.5831552053597739,0.15118982165250006,-0.19693897058893114,0.0839374983021398,-0.005029634813088928,5.0
0.4278386597674129,-0.5681340148205035,0.15118982165250006,-0.19959886817152073,0.07660094293348668,0.008627404459058553,5.0
0.43123569158300573,-0.5621255175695861,0.13478389835659518,-0.2022587657541103,0.09567598622086791,-0.012833656191996489,5.0
0.4244416279518196,-0.5591212689441273,0.18400166824430972,-0.21130241737270414,0.08173653146783824,0.011553912662054815,5.0
0.43463272339859904,-0.5681340148205035,0.18400166824430972,-0.20917449800894658,0.0839374983021398,-0.015760163465463127,5.0
0.4244416279518196,-0.5651297661950448,0.2250164770449682,-0.20864251979011456,0.08320384231786324,-0.020637677570904057,5.0
0.4244416279518196,-0.5591212689441273,0.18400166824430972,-0.1953430320799301,0.0788019092085242,-0.01966217712941171,5.0
0.4244416279518196,-0.5651297661950448,0.18400166824430972,-0.1868313600995122,0.08467115316788824,-0.006980640157815818,5.0
0.4210445961362268,-0.5471043270303156,0.11837797393889765,-0.20119480607223153,0.08907308683649133,-0.025515191676344966,5.0
0.4210445961362268,-0.5561170203186683,0.11837797393889765,-0.20172678591317092,0.09567598622086791,-0.027466198508319266,5.0
0.4210445961362268,-0.5501085230677506,0.13478389835659518,-0.19374709362161988,0.08320384231786324,-0.026490695092332126,5.0
0.4108535006894441,-0.5741425120714214,0.1757987065963573,-0.17672375042114694,0.0788019092085242,-0.04209874082464205,5.0
0.4244416279518196,-0.5591212689441273,0.1922046304531585,-0.2070465802672964,0.08540480915216479,-0.028441701924306426,5.0
