acc_x,acc_y,acc_z,gyro_x,gyro_y,gyro_z,activity
-1.2081571515177065,0.7146205498048107,2.3811001915711496,0.04260596227331556,-0.11798016596949439,-0.31606711365246654,0.0
-1.2081571515177065,0.7146205498048107,2.3811001915711496,0.15394745260158207,-0.1380248107546799,-0.3415557407048093,0.0
-1.2126437782721273,0.7238769565486851,2.3811001915711496,0.0014328042880622038,-0.1305080704882343,-0.3324059845056388,0.0
-1.2171304050265492,0.733133403800048,2.3686632061331356,-0.20617267282966925,-0.11497347353011363,-0.25071164618228553,0.0
-1.2171304050265492,0.7794155185343966,2.396646423368667,-0.31403474280084054,-0.006231281071278371,-0.19646660834146026,0.0
-1.2081571515177065,0.7609026645391594,2.393537177009164,-0.3006969724276695,0.0388691651113922,-0.21280546325212435,0.0
-1.2171304050265492,0.7285051801743666,2.353117192039466,-0.31345484589152756,-0.11697793311903552,-0.20561636454063079,0.0
-1.235076912044235,0.6637101911910365,2.3095877430064164,-0.3314318481227912,-0.18813641660564792,-0.20038792331681435,0.0
-1.2395635387986566,0.6498255405677364,2.3002600039279057,-0.32911223219374497,-0.23724580183014868,-0.17097796534660914,0.0
-1.2799430225156743,0.6590819675653551,2.359335684758473,-0.2786606352476261,-0.1199846316704121,-0.16640308724702385,0.0
-1.2709697690068313,0.672966618188655,2.4184111478851915,-0.2067525980307766,-0.052333960104407794,-0.206269927664862,0.0
-1.2395635387986566,0.6313126865724993,2.4246296406041994,-0.10410964268111401,-0.11597570026857666,-0.27816094666481356,0.0
-1.2081571515177065,0.5850305515844064,2.359335684758473,-0.004366228461605179,-0.21319222564312776,-0.2513651933640085,0.0
-1.2440501655530778,0.5757741245867879,2.359335684758473,0.1487283167612277,-0.3229366433124271,-0.20561636454063079,0.0
-1.2619965154979884,0.5804023482124693,2.4184111478851915,0.2362937614991402,-0.4747748284770068,-0.21999457790612612,0.0
-1.2664831422524099,0.594286978582025,2.440175872401717,0.37431081025612006,-0.46976367644870415,-0.19908082895336848,0.0
-1.2216170317809707,0.6174280562029437,2.43395737968271,0.4612963651576682,-0.3194288466718085,-0.23633343281679017,0.0
-1.1991838980088632,0.6590819675653551,2.340680206601452,0.3603931429736362,-0.23674469151691505,-0.24875097275210017,0.0
-1.226103658535392,0.6868512688119551,2.322024728444431,0.22759520883816484,-0.25729043439134264,-0.23306566502315904,0.0
-1.2395635387986566,0.6822230451862736,2.3095877430064164,0.04144615430879236,-0.2858540645174242,-0.23502633845334425,0.0
-1.2081571515177065,0.668338414816718,2.365553959773632,-0.4369743021649161,-0.3865783865325938,-0.129804022594071,0.0
-1.1229114002564737,0.7516462577952852,2.4619405969182413,-0.8452264227591372,-0.47327147308932277,-0.07229120500273349,0.0
-1.087018543293877,0.8673516053923895,2.440175872401717,-1.1050232370615667,-0.5128596523464602,-0.15921398853553034,0.0
-1.2081571515177065,0.8025565961553152,2.359335684758473,-1.2465197804416022,-0.4667569656733359,-0.2500580830580543,0.0
-1.3203226633054677,0.5618894942172321,2.2442937871606907,-1.1166212884150042,-0.42917327656509946,-0.17947417436405677,0.0
-1.3023761562877816,0.3027095129667316,2.219419816284663,-0.8255097015081401,-0.5439288340387098,0.002214032616312816,0.0
-1.248536635234724,0.27031201341163047,2.297150757568403,-0.34998877555516233,-0.23574244644246456,0.13946051709363194,0.0
-1.1318846537653167,0.27031201341163047,2.322024728444431,0.0078117480929397656,-0.04481721983796218,0.17605958971783892,0.0
-1.0645854095217697,0.27956844040924905,2.284713772130388,0.10349583974132891,-0.09242324661878096,0.12573586685236784,0.0
-1.006259418787066,0.25642737291520257,2.2505122798796977,0.09131786407090252,-0.23073129441416196,-0.0631414408323088,0.0
-1.046638902504084,0.28419665897149443,2.2629490476138634,0.2618095225727533,-0.27482951538636835,-0.29123203378184653,0.0
-1.0690720362761914,0.40915843103449934,2.365553959773632,0.4554973111891551,-0.14754601672204323,-0.6095132099428286,0.0
-1.1318846537653167,0.5202355626010764,2.427738886963702,0.6207698258935844,0.03937028153662163,-0.759177204463255,0.0
-1.2216170317809707,0.5526330672196136,2.334461713882445,0.8028595490106515,0.2738926096321031,-0.7278065571203562,0.0
-1.2889162760245172,0.5341202030975043,2.2069828308466484,0.9327579844536604,0.35557454416052947,-0.4585420572889237,0.0
-1.2709697690068313,0.5017227086058392,2.0577393321462516,0.7309515400855963,0.17116380969202422,-0.13960734191747273,0.0
-1.248536635234724,0.5063509221046485,2.042193100348734,0.21773684821266628,-0.09793552729630467,0.24991128214797578,0.0
-1.248536635234724,0.5063509221046485,2.042193100348734,-0.48916564642256277,0.02433680100373039,0.5989094628150845,0.0
-1.1632910410462667,0.4970944951070299,2.132361027070488,-0.8649431440101343,0.5034037979232738,0.581917044780189,0.0
-1.1229114002564737,0.43229950106026377,2.107487165046384,-0.9542483431325232,0.7208881675609548,0.32637716330500444,0.0
-1.100478266484366,0.34899165175240154,2.085722440529859,-0.6080458991296528,0.6637609562047578,-0.07555898076761877,0.0
-1.037665648995241,0.2888248724703037,2.119924150484398,0.279206627894704,0.5234484060364842,-0.5376221590578606,0.0
-1.046638902504084,0.27031201341163047,2.1883273526896274,0.8707083078623098,0.5349741143767403,-0.8088473642044948,0.0
-0.9120404140169905,0.3860173622745939,2.586310015890686,0.9756708649951217,0.7845298863331381,-0.8748564266839234,0.0
-0.9120404140169905,0.3860173622745939,2.586310015890686,0.5645191749789524,0.7945522392857101,-0.5278188556769672,0.0
-0.7101426812863506,0.4970944951070299,2.8132845647267475,-0.11512781127113586,0.43675531947975543,-0.046149016818972946,0.0
-0.43197245080332053,0.5387484165963135,2.878578520572474,-0.5599138615289916,0.04287809651322763,0.3355269513891914,0.0
-0.43197245080332053,0.5109791356034579,2.7075704062074757,-0.7721585634318673,-0.4181487029860604,0.5858383916405597,0.0
-0.7056560545319289,0.5757741245867879,2.52101606004496,-0.7843365399864124,-0.7784511988061663,0.70413180258812,0.0
-1.0331790222408197,0.5850305515844064,2.306478496646913,-0.7089490930218907,-0.6561788643941353,0.6806038489659624,0.0
-1.338269013250378,0.5063509221046485,2.1354702734299917,-0.5848497398391891,-0.44921788467831,0.607405671832532,0.0
-1.558113331535092,0.4646970006153649,1.964462159064994,-0.19631431220417067,-0.2743283806251516,0.43159947119302355,0.0
-1.6971984467766068,0.4415559280578824,1.8058909212860863,0.2838458597527969,-0.18563084059149657,0.29435300066539916,0.0
-1.786930746255873,0.40915843103449934,1.7343783638694292,0.9014432118492257,0.04788925465352611,0.18586290904124064,0.0
-1.7420646357844338,0.4276712875614545,1.7779077040505546,1.2592437072055336,0.24081896223893573,0.16364204978252891,0.0
-1.504273889018422,0.418414860563836,1.9022773407268474,1.1073089628742752,0.23430445482294898,0.2910852009867515,0.0
-1.3203226633054677,0.3767609346440458,2.1230333968439017,0.9147809822223967,0.25485019769737655,0.5257113494516871,0.0
-1.1094515199932093,0.3767609346440458,2.269167540332871,0.6457057042037816,0.4583033318766167,0.7374630595911712,0.0
-1.1094515199932093,0.3767609346440458,2.269167540332871,0.5018896014782884,0.7013446453129943,0.8570636286722102,0.0
-0.8851206534904618,0.43229950106026377,2.4495036114802273,0.46187626206698124,0.5645399406813058,0.9028124415530797,0.0
-0.777441925529897,0.4276712875614545,2.5023605818879386,0.46071646824835516,0.24282342793985345,0.8570636286722102,0.0
-0.7909018057931614,0.4415559280578824,2.64227645036175,0.5332044023745176,-0.01174355783330477,0.8472602615212839,0.0
-0.8626876767911295,0.4739534276129835,2.7231166380049934,0.6317880086295032,-0.20818106139083337,0.8171967723118639,0.0
-0.9613931512428512,0.5202355626010764,2.741772116162013,0.6932578166033354,-0.025774807903235514,0.8211181191722344,0.0
-1.006259418787066,0.5387484165963135,2.688914928050454,0.7094950998148657,-0.00422681613436013,0.908040882776896,0.0
-1.0735586630306129,0.543376640221995,2.5147975673259526,0.8567906122880312,-0.1645839629558522,0.9452934866403178,0.0
-1.1543177875374238,0.5526330672196136,2.4184111478851915,0.9669722698964547,-0.2322346498018461,0.9466005810037638,0.0
-1.1902106445000202,0.6266844832005621,2.440175872401717,0.8828862844168546,-0.15857057807709068,0.9786248074134019,0.0
-1.2081571515177065,0.6405691135701178,2.4837051037309177,0.8306949401592082,-0.0698730258194441,0.9995385085386347,0.0
-1.2216170317809707,0.6451973371957993,2.4432851187612203,0.8910048977308254,-0.17260182575952304,1.0518229207767993,0.0
-1.3248091329871137,0.6822230451862736,2.393537177009164,0.9472555486454576,-0.19364870339516743,1.3531115832478369,0.0
-1.4638943267650164,0.6914794721838923,2.3375709602419485,1.0742544146665183,-0.13702257790422104,1.3603007616718714,0.0
-1.4594077000105947,0.7146205498048107,2.4028649160876747,1.0823731411476667,-0.12800249447408296,1.2465822128813882,0.0
-1.2934029027789389,0.672966618188655,2.4557221041992343,0.973931145975388,-0.2918674616201773,1.0792722212593273,0.0
-1.226103658535392,0.6266844832005621,2.393537177009164,0.7692251887689645,-0.5173696696135459,1.0563977829338764,0.0
-1.2216170317809707,0.6035434055796436,2.3126969893659206,0.723412795389144,-0.695265908890056,0.9694750193292149,0.0
-1.2619965154979884,0.594286978582025,2.216310569925159,0.6671621444745123,-0.5915348760995182,0.7962830074165982,0.0
-1.2126437782721273,0.6220562595748808,2.18210885997062,0.367351962468981,-0.10044110331045597,0.5440108618500281,0.0
-1.0645854095217697,0.6498255405677364,2.2318568017226768,0.10755516408068579,0.19972742759411416,0.25644681773523803,0.0
-1.1318846537653167,0.7053641228071924,2.2909322648493955,-0.06003696832102699,0.5885935290923184,0.34140893979473097,0.0
-1.3023761562877816,0.7609026645391594,2.3158062357254234,0.16902494906743504,1.298173947153491,0.4139535059764054,0.0
-1.4010817092758912,0.6590819675653551,2.2660582939733676,0.45085807933106226,1.7637107822558526,0.5074118370533457,0.0
-1.3023761562877816,0.40915843103449934,1.9986637601676085,-0.14876222809641124,-1.0946554003101159,1.4400343468524985,0.0
-1.3023761562877816,0.43229950106026377,1.9147143261648616,-0.6573376739653514,-3.676906646494522,1.94131093396204,0.0
-1.1139381467476306,0.6590819675653551,2.3779909452116463,0.04840499855945724,-1.0009467693681164,1.289716773265333,0.0
-0.9658797779972729,0.6914794721838923,2.427738886963702,0.1730842698703176,0.24382564856632072,1.0851542415498832,0.0
-1.1184247735020518,0.7609026645391594,2.6516041894402598,0.13829005568994185,1.5271839762354613,1.3870964193176274,0.0
-1.136371280519738,0.7238769565486851,2.6142932331262183,0.1794632136751952,1.565268751208948,1.4027818067591096,0.0
-1.2036705247632848,0.6498255405677364,2.5769822768121755,0.8382336848556601,1.0075265427603386,1.4485306834100118,0.0
-1.2889162760245172,0.6220562595748808,2.3779909452116463,1.3717450090347976,0.2102508664119364,1.6923065561891013,0.0
-1.504273889018422,0.6174280562029437,2.007991499246119,0.6967371980592136,-0.26430607656854627,2.334750865031589,0.0
-1.4100549627847339,0.594286978582025,1.880512616210323,-0.4706087189901917,-0.01174355783330477,2.8373344827345424,0.0
-1.145344534028581,0.4461841415566917,2.1292517807109843,-0.8028934674187835,-0.00422681613436013,2.9111860476246143,0.0
-0.9927995385238017,0.3119659399643501,2.318915482084927,-0.34998877555516233,-0.6040627561702747,2.8785082421482375,0.0
-1.1184247735020518,0.27031201341163047,2.2629490476138634,0.1208929468315168,-0.9668707791085654,2.941249536834035,0.0
-1.2978895295333603,0.3258505829924961,2.107487165046384,-0.15108184402545768,-0.8225493953303894,3.2497273777291076,0.0
-1.2934029027789389,0.34899165175240154,2.007991499246119,-0.8359479590429516,-0.2953752582607959,3.463439888838842,0.0
-1.1632910410462667,0.29345308596911296,2.0795039478108523,-0.8405871909010444,0.13508345152348858,3.477164475310073,0.0
-1.1767507642367556,0.1823759468073818,2.3095877430064164,-0.6161645124436238,-0.3560103151535778,3.7712639593570767,0.0
-1.0825319165394554,0.06204239583834034,2.340680206601452,-0.260683604724568,-0.9824054188506569,3.8372730856065393,0.0
-0.8582010500367081,-0.14159899810926826,2.203873584487145,-0.4404537402043829,-1.2194333107362982,3.494156893344969,0.0
-0.5127314182373562,-0.3220993549434473,2.157234997946516,-0.8730618704912826,-1.0074612767841034,2.951053031525027,0.0
-0.18969507728288712,-0.5396253792606116,2.331352467522941,-0.749542329342511,-0.7774489292837325,2.214496653113777,0.0
-0.14034218298425133,-0.8126900060709759,1.9333696954699586,-0.698510835487079,2.0678882873462285,0.640736992605616,0.0
-0.5396511787638852,-0.9654210616585547,2.2474030335201944,-0.3784040353212377,-0.16508508549307743,0.331605604528821,0.0
-0.40056606352237006,-0.9885621797869618,2.2909322648493955,0.6602032683955787,-1.0189869362283928,0.18063446781742415,0.0
-0.3512133262965094,-0.7525232609670717,2.30336925028741,1.619363846782682,-0.7929835201298573,0.5459715352802135,0.0
-0.2928871784890302,-0.8126900060709759,2.054630085786748,2.216664623156492,-0.23925026753106643,3.1784898740258614,0.0
-0.43197245080332053,-0.8080617824452946,1.9147143261648616,1.9829633112321206,-0.8917034008920925,4.737217726159279,0.0
-0.5800308195536784,-0.6599589504833971,1.8649664932647292,1.0319215159097535,-2.7247860008622222,4.840479775122327,0.0
-0.48132518802918123,-0.8913696456776063,1.8214370442316798,-0.7814370271480527,-5.072514882279172,4.907795931965202,0.0
-0.40056606352237006,-0.9561646144071918,1.6815212846097933,-2.263090690394786,-7.1185720790997316,4.933284559017545,0.0
-0.14482880973867232,-0.9561646144071918,1.429672873749628,-3.0187052185612706,-9.415688158784537,4.490827664653298,0.0
-0.15380206324751536,-0.7988053351939314,1.3705973017709856,-2.975212356235111,-11.677225186197909,3.9902048479205936,0.0
-0.4454321739938094,-0.8774849748005614,1.6473196835071788,-2.8128394109526313,-11.722826738109816,3.8869433091178105,0.0
-0.36018642273257695,-1.3588191786767276,1.8432017687482045,-3.6241244950818725,-9.885234169768568,3.4967712096119263,0.0
-0.11342257953049734,-1.8910637614204124,1.6348826980691646,-3.9535095609213404,-7.798085193823355,3.694144562903342,0.0
0.26793990923145056,-1.6781659607289292,1.0192532251105555,-3.968587050314245,-7.216289690339532,3.525527413147803,0.0
0.24550677545934385,-1.372703849553772,0.7145477349907544,-4.981098766777621,-8.316239271910794,3.283712213798899,0.0
0.24550677545934385,-1.372703849553772,0.7145477349907544,-5.2791693429305955,-8.7436917232074,2.311222783869366,0.0
-0.6607897869877141,-1.372703849553772,0.9508499684793641,-4.695786205547475,-6.575863620111828,1.0073812022593758,0.0
-0.5396511787638852,-1.3773320731794534,0.6119428228309864,-4.517756128588925,-4.8024135630322125,1.951767816409673,0.0
-0.3646730494869983,-1.4097296385592237,0.1393383830667482,-4.522395077529075,-5.405256237527479,2.6641424708219272,0.0
-0.34672669954208807,-1.090382856507022,0.0709350992225756,-3.915235968821561,-5.174241571608709,2.1046995787237304,0.0
-0.6248969300251178,-1.0626135147529334,-0.013014361993152307,-3.9146561002040423,-2.0868653599607705,0.05907328907623269,0.0
-0.6248969300251178,-1.0626135147529334,-0.013014361993152307,-4.227804165749922,1.399399355033911,0.2616752589590546,0.0
-0.7325756579856821,-1.1551778252366076,-0.7623411290676219,-3.2640043555047242,1.540212991067435,1.6583217201193108,0.0
-0.7325756579856821,-1.1551778252366076,-0.7623411290676219,-2.624370567206972,0.5720566687237599,2.3608930073806382,0.0
-0.30634705875229457,-0.993190322397666,-0.7654503754271252,-2.2700495664737192,0.48486249630178063,0.7381166386579106,0.0
-0.30634705875229457,-0.993190322397666,-0.7654503754271252,-0.21139180159707513,1.7742341721777084,-1.5656637371341717,0.0
0.4518912920171806,-1.4606399364117648,-0.6286438621647424,1.1067290942567565,1.0225600966371797,-1.334958935529607,0.0
0.15128792776204347,-1.7429609294585149,-1.1136852057280515,0.46361598108671465,-0.5023362135286379,0.31526673367564856,0.0
-0.05509658879579362,-1.6179992156250254,-1.1105759593685482,0.1203130428492552,-0.6085728223333271,-0.13176468805300218,0.0
-0.2614809482808552,-1.3541909550510465,-1.0608281264684156,0.0031725162348469837,-0.5800092166552288,-1.1794128569485922,0.0
0.23653352195050045,-1.6411403337534323,-0.8493999182817963,0.4305614611707521,-0.837582900311264,-1.1395460005882458,0.0
0.366645383683173,-1.7984996129666926,-0.7343580206840142,1.9789040045751343,0.3219997620061453,-0.8493677358615476,0.0
0.3128061767756661,-1.7151917497343812,-0.08141764583732475,2.5959215587835303,1.7406594633672732,-1.1486958524424657,0.0
0.01668943927494995,-1.580973588649528,-0.3239383176189792,2.238120893676457,1.0726716169202062,-2.4277023222968195,0.0
0.24999340221376484,-1.4837810545401722,-0.5042742254884496,1.6245830038418823,0.998506508226167,-2.946624842737962,0.0
0.4474046652627589,-1.5346913523927137,-0.39545087503563636,1.7249062725330124,0.9764573610680889,-2.6316115937956925,0.0
0.9902852459655553,-1.854038134444915,-0.5540221128145438,2.39991397034142,-2.343937859959623,-0.12588269167620866,0.0
0.640329301557333,-1.6550250046304769,-0.4296524761382511,1.3183939275421137,-0.3720460163129362,-2.3741110070053075,0.0
0.1557745545164648,-1.0394725586544804,-0.476291117104842,0.0031725162348469837,0.4036816965345713,-5.0268895315794815,0.0
-0.15380206324751536,-0.7617796272034573,-0.48250955539788704,0.6468654980224076,1.0025153907320359,-5.973236819159966,0.0
0.3217794302845084,-0.7062411057252345,-0.4856188017573905,0.41896338152552026,2.3074218041419887,-5.6627981772946425,0.0
0.3531855034199086,-0.8959978693032873,-0.48872804811689413,0.4734743417122132,2.6872677733140873,-5.655608998870606,0.0
-0.11790920628491904,-2.3723980463115555,-0.7592318827081184,-0.4068193233791073,1.3287419451885574,-1.3931252405182617,0.0
0.3756186371920153,-1.0718699620042962,-0.3550307267880527,-0.5013436229771078,0.46932790545565584,-0.9055734949600828,0.0
0.33972593730219414,-1.1736907197393334,-0.04721601752172899,-0.23342813877711852,-0.8110237358861001,-1.3924717252215553,0.0
0.09744840670898561,-0.8821131984262433,-0.18402255799709297,-0.14818231704120105,-1.5191007496636222,-1.37547930718666,0.0
-0.4454321739938094,-0.5396253792606116,-0.31771987932593415,-0.4137781428744523,-1.2274511735399691,-1.0859545577566683,0.0
-0.2928871784890302,-0.530369013024226,-0.35192148042854904,-0.9629468250640126,-1.6629210964725147,-1.6375547561341235,0.0
0.4159982779818088,-0.24341971533681692,-0.16536713426603383,0.0321676976655554,-0.9112469231400528,-2.478026061104798,0.0
0.8242803701975103,-0.14622722173494995,-0.6006606449292106,0.14234938002929873,-0.33897236891976884,-0.6036311896522729,0.0
1.0351515135097695,-0.6044204290051747,-0.6068791376482178,-0.07859389575339815,-0.7954891450399754,-1.7414699377736804,0.0
0.49675724541584443,-0.294330053696847,-0.715702542526993,0.06580210564964513,-0.13000696017500069,-1.8081325793198484,0.0
0.43843141175391653,-0.42854825528918883,-0.6815009414243784,-0.09889051391370823,0.5404863522702932,-1.6251372002563054,0.0
0.43843141175391653,-0.42854825528918883,-0.6815009414243784,0.4230227164742999,1.6439440238579723,-1.0735370018788502,0.0
0.4159982779818088,-0.07680402937968267,-0.8183074546867612,0.38416917088161867,2.7038045847866794,-0.116732927505784,0.0
0.4159982779818088,-0.07680402937968267,-0.8183074546867612,0.24267269823106918,1.6700020535219202,-0.6454587194428045,0.0
0.4159982779818088,-0.07680402937968267,-0.8183074546867612,-0.04090015812524005,0.240317827477719,-0.9055734949600828,0.0
0.4159982779818088,-0.07680402937968267,-0.8183074546867612,-0.11628761923565908,-0.6461565114415636,-0.43305339835156453,0.0
0.057068765919192486,-0.0999451070006012,-0.28351822379735775,-0.6613969806223369,-1.0846330962535107,-0.37619415584133925,0.0
0.057068765919192486,-0.0999451070006012,-0.28351822379735775,-0.5071426486538265,-0.511356296958776,-0.8539426617886576,0.0
0.23653352195050045,-0.30821472457389143,-0.44519870793576877,-0.7246065076159024,-0.3920906733221133,-1.309470308477264,0.0
0.5191903791879519,-0.26656079295773555,-0.4731818707453382,-0.5291789575420757,0.628181708349456,-0.43828183957538086,0.0
0.5191903791879519,-0.26656079295773555,-0.4731818707453382,0.23165452964104744,-0.7198205831663189,-1.529718227634196,0.0
0.6448156141662041,-0.48871508140807,-0.3239383176189792,0.25775020176987073,0.4217218633948476,-1.6676182453435435,0.0
0.6448156141662041,-0.48871508140807,-0.3239383176189792,0.16902494906743504,2.305918350962371,-1.7904865184481809,0.0
0.44291803850833755,-0.03052187413784535,-0.5633497974670925,0.04144615430879236,2.3084239758724885,-0.742838365495099,0.0
0.44291803850833755,-0.03052187413784535,-0.5633497974670925,0.014190684824868773,1.3723390558475301,-0.606898957445904,0.0
0.6851952549559962,0.11758095782405173,-0.2648628000662986,0.07855998480501641,0.45880446663783364,0.1401140802178631,0.0
0.819793743443089,0.057414172212658925,-0.19335029707560358,0.046665286612672455,0.07244394726577649,0.15906717168294363,0.0
0.7166016422369434,0.2101452379271097,0.05538889463803922,0.11393410258085192,-1.524111901691925,0.32637716330500444,0.0
0.7166016422369434,0.2101452379271097,0.05538889463803922,0.2821061407330635,4.547410574678666,-0.10562249787642813,0.0
0.3262660570389301,0.3582480793829496,-0.9862064315441794,0.06116287732802665,2.720341396259271,0.16887049100634538,0.0
0.3128061767756661,0.14997846244258897,0.5248841152557548,0.1736641738525792,0.03435912339632316,-0.05007034574402177,0.0
0.5012438721702661,0.06204239583834034,-0.1000730695683839,0.12553217515313528,0.27289038900563606,0.0009069223103586991,0.0
0.5102171256791088,0.029644891219802957,-0.10629156228739108,0.11335420213506461,0.11253323072415172,0.01659223601774042,0.0
0.5102171256791088,0.029644891219802957,-0.10629156228739108,0.017670108718438344,-0.0803964646372663,0.006135359548548092,0.0
0.5775165269954314,-0.03515009776352709,-0.056543729387258684,0.026368661379413717,-0.3169232462096738,0.00809602500747928,0.0
0.5775165269954314,-0.03515009776352709,-0.056543729387258684,0.13829005568994185,-0.3595181362421795,0.027049110494119236,0.0
0.5685432734865895,-0.025893650512163982,-0.13738397145646408,0.16206610128029586,-0.17761299001181732,0.04404153251464155,0.0
0.5685432734865895,-0.025893650512163982,-0.13738397145646408,0.172504365888056,0.15462698599544056,0.0649552854530262,0.0
0.5461101397144806,-0.007380796516926761,-0.17780406527808604,0.1736641738525792,0.2312977440475809,0.047962859446876824,0.0
0.5461101397144806,-0.007380796516926761,-0.17780406527808604,0.13771015170768025,0.47183348146980725,0.029663331106027455,0.0
0.5730299002410107,-0.021265467393971185,-0.17469481891858235,0.13249101940380015,0.5309651829749048,0.0512306352117621,0.0
0.550596766468902,-0.025893650512163982,-0.053434483027755005,-0.015964301033888552,0.26888145760380056,-0.004321514927830701,0.0
0.550596766468902,-0.025893650512163982,-0.053434483027755005,-0.2902587148928581,0.6532375173869358,-0.006935734543332163,0.0
0.5775165269954314,-0.021265467393971185,-0.025451320218185434,0.017670108718438344,0.2583580187859783,-0.014778390898819648,0.0
0.739034776009053,-0.14622722173494995,0.024296512681946953,0.20845838449648071,-0.4908105540843484,-0.05072390089699883,0.0
0.739034776009053,-0.14622722173494995,0.024296512681946953,0.024628949432628923,-0.26430607656854627,-0.010203508315403922,0.0
0.5775165269954314,-0.01663724376828982,-0.20578722808765554,0.060003069363503456,-0.075385300384972,0.022474228408906893,0.0
0.3980517709641231,-0.06754758212831984,-0.19024105071610015,-0.04437958201880964,0.2578569084727447,-0.07948030769985406,0.0
0.31729280353008743,-0.007380796516926761,-0.10629156228739108,-0.0571374554826676,0.12205443669151506,-0.05464522782923412,0.0
0.31729280353008743,-0.007380796516926761,-0.10629156228739108,0.22469569599980543,-0.2527803926762735,0.7028247082246741,0.0
0.1961541953062579,-0.05829117538444572,-0.02856056657768893,0.3082018128618867,-0.5539511869912818,0.46100944510573716,0.0
0.54162351296006,-0.13234259136539406,-0.16847638062553733,0.3487950633284042,-0.42766992117741537,0.6309336892247226,0.0
0.54162351296006,-0.13234259136539406,-0.16847638062553733,0.47405423862152624,-0.13702257790422104,1.4465700099798264,0.0
0.09744840670898561,0.034273114845484697,-0.21822421352566965,0.3574936018434824,-0.16608731834353632,2.1491412972411545,0.0
0.40702502447296574,-0.20176578372066134,-0.1715855725590789,0.35459408900512296,0.13508345152348858,1.200833336230486,0.0
0.8556867574784603,-0.3220993549434473,-0.23998888361623236,0.2125177194452605,0.5139272367410959,0.5165616251375327,0.0
0.770441163290003,-0.25267616258818004,-0.2026779817281521,0.06812171981045438,1.020555557592312,0.16233493947657482,0.0
0.9005530250226745,-0.19713756009498,-0.14049321781596777,-0.05829726344719082,0.7374249790335469,0.24860415589951337,0.0
0.9633654854390259,-0.29895827732252866,-0.06898068761229163,-0.05945707141171402,0.5986158331489237,-0.14548933829426625,0.0
0.6941685084648389,-0.26193256933205417,-0.050325236668251505,0.020569625093272044,0.5800745315274308,-0.311492219610373,0.0
0.6178961677852242,-0.2341633085929427,-0.025451320218185434,-0.0304618935174799,0.28040711704809,-0.1866632890180585,0.0
0.6178961677852242,-0.2341633085929427,-0.025451320218185434,0.14582880392286832,0.2463312245804721,-0.30495668402311066,0.0
0.5864897805042734,-0.2480479389624986,0.04606118277250953,0.033907409612340185,0.07645287255561613,-0.17359218595851736,0.0
0.5550833932233226,-0.2387914917111355,0.0025318425913843177,0.06406239547109749,0.10952653217277515,-0.12130781357662337,0.0
0.5550833932233226,-0.2387914917111355,0.0025318425913843177,0.13423073135058494,0.08647519494820886,-0.05203100921013942,5.0
0.5550833932233226,-0.2387914917111355,0.0025318425913843177,0.14640870790512991,0.20323524868271603,-0.12065425842364631,5.0
0.5550833932233226,-0.2387914917111355,0.0025318425913843177,0.09827670743744882,0.21576315320145587,-0.20038792331681435,5.0
0.5730299002410107,-0.21102223097202408,-0.02856056657768893,0.0014328042880622038,0.146108012878536,-0.22718367661761957,5.0
0.5864897805042734,-0.21102223097202408,0.011859554456913762,0.11683362249215991,0.26988367823026777,-0.2030021439287226,5.0
0.5999496607675366,-0.18788115335110545,-0.0036866501276228624,0.2583300986791837,0.30095288437050066,-0.18404906840615026,5.0
0.5999496607675366,-0.18788115335110545,-0.0036866501276228624,0.32849844516809407,0.29894841866958294,0.005481804395571046,5.0
0.5685432734865895,-0.18788115335110545,0.024296512681946953,0.08841834592783168,0.2703848129914847,0.05972684422920974,5.0
0.5236770059423735,-0.21102223097202408,0.0709350992225756,0.029848081736508998,0.2723892542444191,0.12246809905873662,5.0
0.5236770059423735,-0.21102223097202408,0.0709350992225756,0.05652364900640816,0.2568546633982943,0.17998092063570126,5.0
0.5954630340131153,-0.22953508496726138,0.182867736854364,0.02694856536167531,0.170161589065557,0.2603681327105923,5.0
0.5954630340131153,-0.22953508496726138,0.182867736854364,0.1179934304566831,-0.8566252389020409,0.22572974945907873,5.0
0.5012438721702661,-0.1739965229815499,0.17354002498883442,0.38184955495257245,-1.5346353894057139,-0.021313938069310624,5.0
0.5012438721702661,-0.1739965229815499,0.17354002498883442,0.579016795754338,-1.5992793777003311,-0.11215804143494458,5.0
0.6268694212940669,-0.22027863771589856,-0.4607448853073243,-0.5749913509218961,2.741388176102983,-0.11281159658792163,5.0
0.48329767929813067,-0.18788115335110545,0.033624224547476586,0.04782509457719565,0.16915935621509812,0.025742000188165123,5.0
0.48329767929813067,-0.18788115335110545,0.033624224547476586,0.09131786407090252,-0.078893115361578,-0.0017072963087360012,5.0
0.5012438721702661,-0.1601118521045055,0.08337205744760876,-0.17195835909508086,-0.45723574748198087,0.1218145518770137,5.0
0.5012438721702661,-0.1601118521045055,0.08337205744760876,-0.05481783955362121,-0.2828473537420559,0.05253774551771623,5.0
0.5012438721702661,-0.1601118521045055,0.08337205744760876,0.04840499855945724,-0.1846286077410377,-0.021313938069310624,5.0
0.5012438721702661,-0.1601118521045055,0.08337205744760876,0.06580210564964513,-0.12549690623594,0.0028675857764763465,5.0
0.5864897805042734,-0.20639400734634275,-0.059652975746762184,0.07218104503392983,-0.09392659589446924,0.004174696082430464,5.0
0.5864897805042734,-0.20639400734634275,-0.059652975746762184,0.10175612779454411,-0.07488418395974257,-0.004975070080807758,5.0
0.5775165269954314,-0.22027863771589856,-0.031669812937192364,0.09073796008864092,-0.07738976608588971,-0.010203508315403922,5.0
0.5775165269954314,-0.22027863771589856,-0.031669812937192364,0.08435902070435622,-0.03880382579120695,0.014631570558809258,5.0
0.5640566467321682,-0.18788115335110545,-0.053434483027755005,0.058843263167217406,-0.02276811164385737,0.0009069223103586991,5.0
0.5864897805042734,-0.21565041409021687,-0.07519915311831782,0.06638200963190673,0.10050644874263705,0.019860007796998657,5.0
0.5864897805042734,-0.21565041409021687,-0.07519915311831782,0.08203940632251733,0.09349081878942506,0.011363798779551028,5.0
0.5550833932233226,-0.1739965229815499,-0.053434483027755005,0.04550547864814925,-0.0017212363002114183,0.0015604774633357632,5.0
0.5461101397144806,-0.18788115335110545,-0.0036866501276228624,0.03680692598717388,-0.0824009242261882,0.023781338714861006,5.0
0.5595700199777431,-0.22490686134157997,-0.0036866501276228624,0.033907409612340185,-0.10144333616091486,-0.00040018799559541436,5.0
0.5595700199777431,-0.22490686134157997,-0.0036866501276228624,0.011291164913560784,-0.11046342570304876,-0.04941679059104472,5.0
0.5999496607675366,-0.26656079295773555,-0.031669812937192364,0.02810837332619851,0.06091827559749544,-0.07751964224092289,5.0
0.6941685084648389,-0.25730434570637284,-0.08452689219682825,0.034487310058127496,0.23179885436081452,-0.13372534554067925,5.0
0.6941685084648389,-0.25730434570637284,-0.08452689219682825,0.07971979199593586,-0.20918329424129223,-0.18274195810019617,5.0
0.6941685084648389,-0.25730434570637284,-0.08452689219682825,0.18642205438938578,-0.058347354151163044,0.02182067325592982,5.0
0.54162351296006,-0.19250937697678722,-0.04721601752172899,0.21773684821266628,-0.01825806687279042,0.1113576694293808,5.0
0.5909764072586947,-0.27118901658341726,-0.053434483027755005,0.025788757397152126,0.027343496499109065,-0.040920579580783566,5.0
0.4922709328069733,-0.25267616258818004,0.033624224547476586,0.09421738132985479,-0.00222235196144137,-0.011510617624951272,5.0
0.5909764072586947,-0.29895827732252866,-0.006795896487126298,0.30182287612995784,-0.023770343730316754,0.2198477451110312,5.0
0.6537888676750461,-0.30821472457389143,-0.1000730695683839,0.05594374502414657,0.13207676519610365,-0.045495461665995905,5.0
0.6537888676750461,-0.30821472457389143,-0.1000730695683839,0.03274760164781699,0.02483791742895983,-0.12849691228811688,5.0
0.5685432734865895,-0.21102223097202408,-0.0036866501276228624,0.20033974289071552,0.05690934419566001,-0.05725944844114235,5.0
0.5595700199777431,-0.21102223097202408,-0.00990511563364881,0.21483733537430688,-0.02176587955739799,-0.031117259260975055,5.0
0.5595700199777431,-0.21102223097202408,-0.00990511563364881,0.21599714333883008,-0.0984366437215341,-0.008896398009449807,5.0
0.5281636326967946,-0.18325292972542412,-0.00990511563364881,0.2826860517882737,-0.1199846316704121,0.047962859446876824,5.0
0.5595700199777431,-0.22027863771589856,-0.04099752480272206,0.1730842698703176,-0.10996230927781933,-0.061180775373377634,5.0
0.5595700199777431,-0.22027863771589856,-0.04099752480272206,0.1806230145667698,-0.06436074514192038,-0.04157413473376062,5.0
0.5864897805042734,-0.21102223097202408,-0.031669812937192364,0.18874167031843217,0.02433680100373039,-0.017392609767016037,5.0
0.5775165269954314,-0.21102223097202408,-0.03477903208371488,0.1736641738525792,0.04037251438708049,-0.013471281589272298,5.0
0.5775165269954314,-0.21102223097202408,-0.03477903208371488,0.13191111542153855,0.018824523382204583,-0.0075892886999024585,5.0
0.5685432734865895,-0.18325292972542412,-0.016123608352655742,0.08841834592783168,-0.0037257004731301815,-0.012817726934498622,5.0
0.5550833932233226,-0.18788115335110545,-0.016123608352655742,0.05420403307736176,-0.01825806687279042,-0.03177081341754534,5.0
0.5550833932233226,-0.20639400734634275,0.0025318425913843177,0.043185866255577146,-0.05634288845024533,-0.02981014895502094,5.0
0.5191903791879519,-0.24341971533681692,-0.0005774037681191172,0.04260596227331556,-0.025774807903235514,-0.0324243685705224,5.0
0.5550833932233226,-0.2341633085929427,-0.025451320218185434,0.06696191273004976,-0.01174355783330477,0.006135359548548092,5.0
0.54162351296006,-0.22027863771589856,-0.04721601752172899,0.008391652075201376,-0.0698730258194441,0.04273442619431448,5.0
0.5281636326967946,-0.20176578372066134,-0.016123608352655742,-0.0008868045680355931,-0.1901408823065657,0.05907328907623269,5.0
0.4339447849994941,-0.12308614411403132,0.027405759041450387,0.11103458620601823,-0.16308061979215976,0.10416857071788728,5.0
0.5685432734865895,-0.21102223097202408,-0.056543729387258684,0.4120045620301753,0.16665376797695508,0.0904439204766232,5.0
0.6627621211838888,-0.25730434570637284,-0.019232854712159488,0.12669198311765847,0.06292274129841316,0.08456192409982968,5.0
0.5820031537498528,-0.21102223097202408,-0.00990511563364881,0.11683362249215991,-0.14253485246974895,0.041427315888360364,5.0
0.5326502594512162,-0.22953508496726138,0.00564106173790683,0.053044226881075726,-0.34398352094807144,0.03619887865017096,5.0
0.5640566467321682,-0.2480479389624986,-0.08452689219682825,0.15916658136898787,-0.12048575420763735,0.05841973392325564,5.0
0.5640566467321682,-0.294330053696847,-0.06276219489328469,0.1174135264744215,-0.04632056911365048,0.07149082901154265,5.0
0.54162351296006,-0.3174711313177656,-0.037888278443218563,0.29660373321665473,-0.12098686452087096,0.0930581410885314,5.0
0.5326502594512162,-0.33135580219481003,-0.04099752480272206,0.30182287612995784,-0.021264763896168038,0.16298848665829777,5.0
0.5640566467321682,-0.32672757856912865,-0.056543729387258684,0.1829426304958162,0.0619205084479543,0.11070411427640373,5.0
0.5730299002410107,-0.3128429076920842,0.011859554456913762,0.13713024772541865,0.09298970847619145,0.04077376073538331,5.0
0.5775165269954314,-0.26193256933205417,-0.0036866501276228624,-0.23052862593875928,0.055406001031967564,0.02508844503518805,5.0
0.5147037524335305,-0.2341633085929427,0.09580901567264191,0.1788833096929336,-0.1305080704882343,-0.004321514927830701,5.0
0.5371368862056386,-0.20176578372066134,-0.016123608352655742,0.15626706853062847,-0.15255718097433754,-0.018699719201114233,5.0
0.5595700199777431,-0.21102223097202408,-0.037888278443218563,0.1748239818171024,-0.0949288287449281,0.005481804395571046,5.0
0.5864897805042734,-0.21102223097202408,-0.050325236668251505,0.16960484597674802,-0.014249138335953026,-0.008242843852879517,5.0
0.5640566467321682,-0.19250937697678722,-0.037888278443218563,0.1487283167612277,0.0012854607231662016,0.004174696082430464,5.0
0.5685432734865895,0.03890131821742171,-0.06587144125278813,0.07160114193578682,-0.1415326196192901,0.06168750968814093,5.0
0.6672487479383094,-0.19713756009498,-0.14360246417547126,-0.08613264044985029,-0.03679936314628714,0.025742000188165123,5.0
0.6537888676750461,-0.20639400734634275,-0.15603939518752322,-0.33839069590993054,0.14410354717761828,0.04077376073538331,5.0
0.6178961677852242,-0.21102223097202408,-0.09074535770285445,-0.3465093375156957,0.11303435326137698,0.04273442619431448,5.0
0.5550833932233226,-0.20639400734634275,-0.00990511563364881,-0.13716414845117944,-0.009739093373886204,0.14795672611107957,5.0
0.5326502594512162,-0.13234259136539406,-0.0036866501276228624,0.10233603177680571,-0.12198909737132979,0.2544861443050529,5.0
0.46983779903486667,-0.1647400757301868,0.027405759041450387,0.09769680345518722,-0.34749134203667337,0.27605345638204165,5.0
0.47432442578928763,-0.25730434570637284,-0.019232854712159488,0.0043323241993701925,-0.4046185778408533,0.1610278291706207,5.0
0.5236770059423735,-0.30821472457389143,-0.06587144125278813,-0.12266655596758798,-0.25729043439134264,0.040120205582406254,5.0
0.5640566467321682,-0.33135580219481003,-0.08763611134335077,-0.14992203606093446,-0.09693329444584582,-0.018699719201114233,5.0
0.6537888676750461,-0.3498686156825584,-0.12494698601844996,-0.03800063821393205,0.14410354717761828,-0.045495461665995905,5.0
0.5954630340131153,-0.27581719970161006,0.0305149781879729,0.15104793269027408,0.05340153533104982,-0.11411870689387575,5.0
0.6537888676750461,-0.28507364695297277,-0.27419048471884705,0.1765636937638872,-0.1375237004414463,-0.05464522782923412,5.0
0.6313560480484911,-0.3683815101852842,-0.1498209024685163,0.16322590924481906,0.02333456815327154,-0.07817319739389994,5.0
0.5371368862056386,-0.26656079295773555,-0.112510055006398,0.07044133485538219,-0.05884847057639247,-0.05007034574402177,5.0
0.5685432734865895,-0.2341633085929427,-0.08763611134335077,0.07450065963679836,0.07144171441531763,-0.04157413473376062,5.0
0.54162351296006,-0.24341971533681692,-0.037888278443218563,0.06464229856924052,0.043379212938457055,-0.02262104750340882,5.0
0.5461101397144806,-0.20176578372066134,-0.04721601752172899,-0.017704012980673332,0.013312245760678777,-0.03177081341754534,5.0
0.5461101397144806,-0.19250937697678722,-0.07519915311831782,-0.06873553512789955,0.026341263648650207,-0.018046164421789714,5.0
0.5236770059423735,-0.1786247060997427,-0.07519915311831782,-0.06757572716337636,0.018323406956975166,-0.017392609767016037,5.0
0.5461101397144806,-0.20176578372066134,-0.06587144125278813,-0.09425128205561545,0.028846845774797347,-0.0330779227270927,5.0
0.5371368862056386,-0.20639400734634275,-0.07519915311831782,-0.11396800330661264,0.023835684578500965,-0.012817726934498622,5.0
0.5461101397144806,-0.21102223097202408,-0.059652975746762184,-0.12962540375472711,0.030350195050485633,-0.017392609767016037,5.0
0.5461101397144806,-0.22027863771589856,-0.037888278443218563,-0.13716414845117944,0.015316711461596483,0.027702665647096284,5.0
0.5281636326967946,-0.20639400734634275,-0.06898068761229163,-0.147602420131888,0.01682006073728477,-0.0036679607712604098,5.0
0.5371368862056386,-0.22027863771589856,-0.06898068761229163,-0.1586205887219098,0.020327872657892872,-0.0075892886999024585,5.0
0.5550833932233226,-0.2387914917111355,-0.07830839947782126,-0.14470289314763157,-0.004727932559589561,-0.015431945553593323,5.0
0.5550833932233226,-0.2387914917111355,-0.07519915311831782,-0.13310482764829676,0.0007843442979367726,-0.018046164421789714,5.0
0.5640566467321682,-0.2341633085929427,-0.09385460406235788,-0.1365842515418664,0.012310014438218863,-0.023274602158182497,5.0
0.5550833932233226,-0.22027863771589856,-0.07519915311831782,-0.12672589091636785,0.03235465769540545,-0.046149016818972946,5.0
0.550596766468902,-0.22027863771589856,-0.0720899339717953,-0.10352974577180105,0.04538367863937478,-0.04876323543806765,5.0
0.5595700199777431,-0.21565041409021687,-0.053434483027755005,-0.11802733825539231,0.05340153533104982,-0.0376528058087118,5.0
0.550596766468902,-0.21102223097202408,-0.06276219489328469,-0.11918714621991554,0.05590711745719697,-0.05464522782923412,5.0
0.5281636326967946,-0.20176578372066134,-0.056543729387258684,-0.14238329136448233,0.031853541270176006,-0.05203100921013942,5.0
0.5236770059423735,-0.20176578372066134,-0.053434483027755005,-0.14296318827379534,0.004793272643774299,-0.042227689886737675,5.0
0.5236770059423735,-0.21102223097202408,-0.06898068761229163,-0.13426463561281998,-0.03730047804351762,-0.024581711716831538,5.0
0.5236770059423735,-0.24341971533681692,-0.06898068761229163,-0.1290455068454141,-0.07588641681020143,0.004174696082430464,5.0
0.5057304989246878,-0.26193256933205417,-0.050325236668251505,-0.10642925861016046,-0.0803964646372663,0.02116711810295277,5.0
0.5102171256791088,-0.26656079295773555,-0.050325236668251505,-0.05481783955362121,-0.107456733263668,0.030970437426354525,5.0
0.5326502594512162,-0.2897018705786542,-0.06587144125278813,0.02172943305779524,-0.15055271527341982,0.012670907092691606,5.0
0.5775165269954314,-0.27118901658341726,-0.09696385042186138,-0.04843890282169223,-0.18563084059149657,0.013324462245668673,5.0
0.6223827945396448,-0.26656079295773555,-0.10629156228739108,0.1736641738525792,-0.026777040753694373,0.08913681017066909,5.0
0.5550833932233226,-0.35449683930824005,-0.06587144125278813,-0.02060353289198132,-0.11397124067965475,0.0009069223103586991,5.0
0.5371368862056386,-0.33135580219481003,-0.10318231592788739,0.029268177754247407,-0.27883842234022055,-0.03961346927482945,5.0
0.5775165269954314,-0.25730434570637284,-0.16536713426603383,0.07740017755883956,-0.06135404964654171,-0.05725944844114235,5.0
0.5775165269954314,-0.21565041409021687,-0.1622578879065304,0.12379246674282479,0.012811130863448301,-0.0892836270232558,5.0
0.5461101397144806,-0.2341633085929427,-0.1342747250969606,0.18468234244260098,0.027343496499109065,-0.02915659479845064,5.0
0.5461101397144806,-0.19713756009498,-0.14049321781596777,0.07044133485538219,0.09900309335495296,-0.10170116695856579,5.0
0.5147037524335305,-0.12308614411403132,-0.112510055006398,0.047245190594934046,-0.003224584047900751,-0.07229120500273349,5.0
0.54162351296006,-0.06754758212831984,-0.12805623237795363,0.012450972878083952,-0.07989534821203687,-0.05137745604997589,5.0
0.5550833932233226,-0.1554836689863127,-0.14360246417547126,-0.0049461324438667634,-0.06937190939421467,-0.0036679607712604098,5.0
0.5461101397144806,-0.24341971533681692,-0.13738397145646408,-0.179497103791533,-0.11597570026857666,0.029663331106027455,5.0
0.5550833932233226,-0.26656079295773555,-0.13738397145646408,-0.21081190468776215,-0.10044110331045597,0.05972684422920974,5.0
0.5595700199777431,-0.25267616258818004,-0.15603939518752322,-0.13020531480993733,0.05139706963013213,-0.01935327391816333,5.0
0.5012438721702661,-0.21565041409021687,-0.112510055006398,-0.04437958201880964,0.028345729349567913,0.03815954012347508,5.0
0.5012438721702661,-0.21565041409021687,-0.112510055006398,-0.10179002675206768,-0.06185516607177114,0.0512306352117621,5.0
0.5775165269954314,-0.2480479389624986,-0.18402255799709297,-0.32447300033565213,-0.10996230927781933,-0.08732296156432463,5.0
0.550596766468902,-0.25730434570637284,-0.19335029707560358,-0.4143580680755597,-0.06385963177268884,-0.11607937235280692,5.0
0.550596766468902,-0.25730434570637284,-0.19335029707560358,0.30646209384215334,-0.04030717506689523,0.1505709467229878,5.0
0.5461101397144806,-0.27118901658341726,-0.2151149671661662,-0.43349486412544946,-0.08089758106249573,-0.1356860109996104,5.0
0.5371368862056386,-0.25730434570637284,-0.2026779817281521,-0.0681556240726894,0.021330105508351734,-0.06640921261156701,5.0
0.5371368862056386,-0.25730434570637284,-0.2026779817281521,0.15742687649515166,0.13608568437394747,0.03554532349719392,5.0
0.5461101397144806,-0.18788115335110545,-0.15603939518752322,0.4421595408159841,0.13458234121025497,0.012670907092691606,5.0
0.5236770059423735,-0.2341633085929427,-0.12183773965894647,0.1203130428492552,0.08246626965836926,-0.0017072963087360012,5.0
0.4204849047362298,-0.25267616258818004,-0.10940080864689451,-0.08265321655628072,-0.13451700189006974,0.06887661637088856,5.0
0.48329767929813067,-0.25730434570637284,-0.1000730695683839,-0.44799248490083504,-0.14002927645559765,-0.046149016818972946,5.0
0.5236770059423735,-0.22490686134157997,-0.037888278443218563,-0.10121012984275465,-0.344484631261305,0.01920645264402161,5.0
0.5595700199777431,-0.1786247060997427,-0.12805623237795363,0.41896338152552026,-0.2883596405315756,0.09371168827025438,5.0
0.5461101397144806,-0.1786247060997427,-0.17780406527808604,0.7315314087031148,-0.19715651225977768,0.25187192369314465,5.0
0.4922709328069733,-0.21102223097202408,-0.19024105071610015,0.565679025381167,-0.275330625699602,0.23422595847652652,5.0
0.5775165269954314,-0.2804454233272914,-0.13738397145646408,0.36387255272130853,-0.16708955119399516,0.1172396578349202,5.0
0.5550833932233226,-0.22027863771589856,-0.050325236668251505,0.13307092338606175,-0.1901408823065657,-0.020660383352261526,5.0
0.4653511722804446,-0.21102223097202408,-0.037888278443218563,0.2049789747488083,-0.31592102558320656,0.0002533671573816424,5.0
0.4788110525437093,-0.2341633085929427,-0.10629156228739108,0.28094633276854025,-0.3520013837517423,0.06234106484111797,5.0
0.5775165269954314,-0.27581719970161006,-0.1498209024685163,0.4496982855124361,-0.31642213589644025,0.09240458593555437,5.0
0.5954630340131153,-0.26656079295773555,-0.15603939518752322,0.4833327023377118,-0.25929490009226025,0.002214032616312816,5.0
0.5775165269954314,-0.21102223097202408,-0.16847638062553733,0.32675872614836066,-0.11798016596949439,-0.04810968227790414,5.0
0.5012438721702661,-0.2341633085929427,-0.1467116561090126,0.18642205438938578,-0.1435370853202078,-0.016739055112242364,5.0
0.46983779903486667,-0.2480479389624986,-0.1715855725590789,0.09305757513356874,-0.21870450020865556,0.01201735193971456,5.0
0.48329767929813067,-0.2897018705786542,-0.2026779817281521,0.1232125627605632,-0.1861319631287218,0.06234106484111797,5.0
0.5640566467321682,-0.294330053696847,-0.21200572080666277,0.2096181924610039,0.007298853241922481,0.07279793931749676,5.0
0.5864897805042734,-0.2897018705786542,-0.2151149671661662,0.33893670270290566,0.29944952898281657,0.04534864282059567,5.0
0.5820031537498528,-0.30358650094821,-0.16847638062553733,0.44621887576476393,0.33101984543628327,0.028356220800073335,5.0
0.5999496607675366,-0.2897018705786542,-0.1715855725590789,0.4879719341958045,0.3866437258527791,-0.030463704107997994,5.0
0.5236770059423735,-0.27581719970161006,-0.17469481891858235,0.24789184114437215,0.3245053380202964,-0.15856042541129917,5.0
0.5102171256791088,-0.22490686134157997,-0.12183773965894647,0.04956480475574329,0.018824523382204583,-0.16509597694106973,5.0
0.5326502594512162,-0.2804454233272914,-0.12805623237795363,0.034487310058127496,0.1330789980465625,-0.15071777154682858,5.0
0.6313560480484911,-0.21565041409021687,-0.17780406527808604,0.2594899066437069,-0.15857057807709068,-0.021967492848635146,5.0
0.5550833932233226,-0.21565041409021687,-0.2151149671661662,0.15626706853062847,0.027343496499109065,-0.010203508315403922,5.0
0.5550833932233226,-0.21102223097202408,-0.19335029707560358,0.1771435977461488,0.08998300992481487,0.029009775953050407,5.0
0.5371368862056386,-0.2341633085929427,-0.15914864154702665,0.13597043976089546,0.06643055016302336,-0.020660383352261526,5.0
0.5147037524335305,-0.2341633085929427,-0.1498209024685163,0.13133121143927695,0.03285577412063487,-0.008896398009449807,5.0
0.5147037524335305,-0.21102223097202408,-0.1342747250969606,0.09653699549066402,0.025339033854189254,-0.008896398009449807,5.0
0.5191903791879519,-0.2341633085929427,-0.14360246417547126,0.08145950278231502,0.02784461292433849,-0.021313938069310624,5.0
0.5236770059423735,-0.2341633085929427,-0.12805623237795363,0.07276094901619143,0.020828989083122307,-0.011510617624951272,5.0
0.5191903791879519,-0.2341633085929427,-0.16536713426603383,0.03274760164781699,0.029347962200026775,-0.008242843852879517,5.0
0.5326502594512162,-0.24341971533681692,-0.16536713426603383,0.04260596227331556,0.03836805174216067,0.0015604774633357632,5.0
0.5326502594512162,-0.24341971533681692,-0.16536713426603383,0.03622702200491229,0.043379212938457055,0.028356220800073335,5.0
0.5595700199777431,-0.26193256933205417,-0.11561930136590144,0.03274760164781699,0.0052943890690037194,0.03619887865017096,5.0
0.5595700199777431,-0.26193256933205417,-0.11561930136590144,-0.0014667085502971908,0.030350195050485633,0.041427315888360364,5.0
0.5102171256791088,-0.27118901658341726,-0.12805623237795363,-0.02060353289198132,-0.043814986987503336,0.015285125711786307,5.0
0.5057304989246878,-0.2480479389624986,-0.11561930136590144,-0.0316217014820031,-0.06035181985208076,0.05841973392325564,5.0
0.46983779903486667,-0.25730434570637284,-0.1342747250969606,-0.011904973158057355,-0.16408285264261857,0.07737282538833616,5.0
0.46983779903486667,-0.25730434570637284,-0.1342747250969606,-0.026402565641648702,-0.01976141538447923,0.04926996975283094,5.0
0.5371368862056386,-0.25730434570637284,-0.18091331163758953,-0.10294983471659085,-0.06836967654375581,0.05972684422920974,5.0
0.5147037524335305,-0.2804454233272914,-0.1715855725590789,-0.0588771603565038,-0.03880382579120695,0.043387977361664484,5.0
0.5595700199777431,-0.30821472457389143,-0.1498209024685163,0.005492132163893388,0.06793389943871166,0.005481804395571046,5.0
0.5371368862056386,-0.30821472457389143,-0.13116547873745715,0.04144615430879236,0.07695398898084553,-0.02719593033592624,5.0
0.550596766468902,-0.29895827732252866,-0.12805623237795363,0.019409820665223138,0.13809015007486516,-0.016739055112242364,5.0
0.49675724541584443,-0.26656079295773555,-0.13738397145646408,0.08029969559139558,0.05991604274703658,0.00940313332061986,5.0
0.48778430605255235,-0.27581719970161006,-0.14360246417547126,0.09537718929437798,0.004793272643774299,0.01659223601774042,5.0
0.5057304989246878,-0.33135580219481003,-0.1467116561090126,0.053044226881075726,0.030851308419717165,0.0048282512354075125,5.0
0.5371368862056386,-0.34524039205687695,-0.17780406527808604,0.05014470873800489,0.07244394726577649,-0.00040018799559541436,5.0
0.5236770059423735,-0.3591250629339215,-0.1498209024685163,0.12843169506444327,-0.033792666122909515,-0.013471281589272298,5.0
0.4159982779818088,-0.3776379574366473,-0.006795896487126298,0.19106127917452995,-0.29437303763432865,0.014631570558809258,5.0
0.48778430605255235,-0.30821472457389143,-0.18402255799709297,0.07218104503392983,0.07595175613038667,-0.012817726934498622,5.0
0.49675724541584443,-0.30821472457389143,-0.1342747250969606,0.05652364900640816,0.022332335302812683,-0.0010537411557589443,5.0
0.48329767929813067,-0.294330053696847,-0.14360246417547126,0.08493892424455853,-0.01976141538447923,-0.0017072963087360012,5.0
0.5012438721702661,-0.3174711313177656,-0.10940080864689451,0.02810837332619851,0.008301086092381345,0.017245791170717492,5.0
0.5147037524335305,-0.3591250629339215,-0.08141764583732475,0.16670533313838864,-0.007233513157737752,-0.00040018799559541436,5.0
0.39356514420970173,-0.42854825528918883,-0.050325236668251505,0.017670108718438344,-0.053837309380096086,0.08456192409982968,5.0
0.4922709328069733,-0.4192918080378258,-0.059652975746762184,0.22237608007075904,-0.14554155102112554,0.031623992579331565,5.0
0.5461101397144806,-0.41466366542712146,-0.1342747250969606,0.21831674512197927,0.14761135604222853,-0.011510617624951272,5.0
0.5236770059423735,-0.28507364695297277,-0.13116547873745715,0.17076465394127122,-0.05784623772593362,-0.02523526637160521,5.0
0.46086454552602324,-0.20639400734634275,-0.03477903208371488,0.23977318539270978,-0.7463797475914828,-0.010857062471974217,5.0
0.5371368862056386,-0.20639400734634275,-0.3332660566974899,-0.03974035016071686,0.0814640368079104,0.01201735193971456,5.0
0.6223827945396448,-0.2480479389624986,-0.2586443073472914,-0.14586270111215477,0.15963815024773476,-0.013471281589272298,5.0
0.5685432734865895,-0.24341971533681692,-0.267972046425802,-0.2885189958731247,0.1571325620095919,-0.0330779227270927,5.0
0.5012438721702661,-0.30821472457389143,-0.1498209024685163,-0.22240998433299414,-0.005730164646048944,-0.033731477880069756,5.0
0.4563779187716023,-0.30821472457389143,-0.10629156228739108,-0.11396800330661264,-0.25678932407810906,0.006135359548548092,5.0
0.46086454552602324,-0.30358650094821,-0.1000730695683839,-0.04669919794785603,-0.3520013837517423,0.03554532349719392,5.0
0.5147037524335305,-0.20176578372066134,-0.17469481891858235,-0.0878723453236865,-0.03329154969768009,0.043387977361664484,5.0
0.5685432734865895,-0.26656079295773555,-0.29284596287586817,-0.15050193297024747,0.10902542185954155,0.06887661637088856,5.0
0.5685432734865895,-0.2897018705786542,-0.24620737633523945,-0.16847894934740837,0.17667609648154373,0.03815954012347508,5.0
0.49675724541584443,-0.2897018705786542,-0.17780406527808604,0.47579395764125965,0.39716716467060137,0.27736058263050406,5.0
0.6493022409206247,-0.25730434570637284,-0.2648628000662986,0.4699949036727464,0.45479553523599825,0.4119928325462201,5.0
0.3980517709641231,-0.25730434570637284,-0.18091331163758953,0.34357593456099833,0.22929327834666313,0.5093724785985146,5.0
0.26793990923145056,-0.26193256933205417,-0.16536713426603383,-0.05307813467978501,-0.24125473323198401,0.3976146351232329,5.0
0.29485966975797967,-0.33598402582049136,-0.07519915311831782,-0.2850395578336578,-0.41163419557007364,0.3231093955113732,5.0
0.48329767929813067,-0.3220993549434473,-0.09696385042186138,-0.23922719274563184,-0.2713216942977666,0.3021956625011238,5.0
0.5550833932233226,-0.34061216843119557,-0.12805623237795363,-0.12788569888089088,-0.16157726440447565,0.2825889919693039,5.0
0.5147037524335305,-0.3683815101852842,-0.12805623237795363,-0.05365803158909804,-0.24526366463381954,0.23684017908843458,5.0
0.5550833932233226,-0.26656079295773555,-0.0720899339717953,-0.6068860487274382,-0.009237977330656514,0.027702665647096284,5.0
0.4115116512273871,-0.19713756009498,-0.0036866501276228624,-0.3639064711294408,-0.8050103143353637,0.11397189004128902,5.0
0.5775165269954314,-0.13697081499107538,-0.3270475639784829,-0.7576609992400705,-0.8395873415641983,0.14991739954126485,5.0
0.6448156141662041,-0.30358650094821,-0.3115013866069273,-0.44509297206247556,-0.22822571840001057,0.1904377871408259,5.0
0.739034776009053,-0.3776379574366473,-0.2244426518187148,-0.12150676214896194,0.26186583987458023,0.151224509847219,5.0
0.6627621211838888,-0.35449683930824005,-0.2244426518187148,-0.11222829843277642,0.46131004265198494,0.0015604774633357632,5.0
0.640329301557333,-0.26656079295773555,-0.2026779817281521,0.31690036552286205,0.6612553312946401,0.01005668847359691,5.0
0.7928739829165588,-0.33598402582049136,0.26992645123284087,0.25775020176987073,0.3199952963052274,0.16494916008848304,5.0
0.29485966975797967,-0.2897018705786542,-0.2151149671661662,-0.4387140211846495,-0.17059736005860535,0.08390836894685262,5.0
0.38907851745527966,-0.2897018705786542,-0.2897367165163646,-0.4305953512870899,-0.22722347332556003,0.048616414599853885,5.0
0.5147037524335305,-0.27581719970161006,-0.1342747250969606,-0.16557943650904913,-0.01174355783330477,0.1113576694293808,5.0
0.5461101397144806,-0.30821472457389143,-0.15914864154702665,0.058843263167217406,0.3054629260855698,0.048616414599853885,5.0
0.5640566467321682,-0.42854825528918883,-0.16536713426603383,0.05594374502414657,0.36459462759066763,-0.020660383352261526,5.0
0.4922709328069733,0.11295275445211467,-0.04721601752172899,0.04898490254171883,-0.023770343730316754,0.01855290147667159,5.0
0.5730299002410107,-0.22953508496726138,-0.15914864154702665,-0.07917379266271113,0.0012854607231662016,-0.03634569649916445,5.0
0.5775165269954314,-0.3220993549434473,-0.2306611445377219,-0.23168844804917965,0.18168724850984647,-0.10758316333535929,5.0
0.5102171256791088,-0.43317647891487016,-0.09696385042186138,0.09421738132985479,0.16815712336463925,0.00809602500747928,5.0
0.4115116512273871,-0.5025996712701372,-0.13116547873745715,0.039706442362007564,0.01682006073728477,-0.10235472211154284,5.0
0.3442125640566158,-0.3915225472987142,-0.1342747250969606,-0.2792405321569391,-0.25929490009226025,-0.17816706405810265,5.0
0.4249715314906515,-0.33598402582049136,-0.06898068761229163,-0.48800585260393675,-0.6752212518808787,-0.25790074489377895,5.0
0.366645383683173,-0.34061216843119557,0.11135522025717853,0.46477577490534067,-2.044771604689481,-0.02719593033592624,5.0
0.46086454552602324,-0.3683815101852842,-0.17780406527808604,0.5506015076964683,-2.3614768431627153,0.027049110494119236,5.0
0.5775165269954314,-0.3868943236730329,-0.48872804811689413,0.19280099112131474,-1.4920404504772413,-0.06902343322347526,5.0
0.5012438721702661,-0.3637532865596028,-0.339484549416497,-0.0878723453236865,-1.3311822063305068,-0.29515334875720073,5.0
0.3711320104375943,-0.33135580219481003,-0.3643584658665631,0.12959149949249216,-1.3442112211624804,-0.22195523539380313,5.0
0.3442125640566158,-0.30821472457389143,-0.4669633780263313,0.23165452964104744,-0.9172603446907893,-0.12784335713513983,5.0
0.4115116512273871,-0.3220993549434473,-0.48872804811689413,0.21541723228361986,-0.5940404521136694,-0.1343789006936563,5.0
0.40702502447296574,-0.35449683930824005,-0.494946540835901,0.3464754473993578,-0.0914210137683221,0.03750598497049803,5.0
0.3845918907008587,-0.400778994550077,-0.4638541316668279,0.4166437938882682,0.2683803472905669,0.0930581410885314,5.0
0.380105263946437,-0.38226610004735123,-0.4389802152167615,0.5639393063614336,0.5885935290923184,0.03489176834421685,5.0
0.4249715314906515,-0.40540721817575875,-0.4203247914857024,0.515807297052567,0.882247546468906,0.01855290147667159,5.0
0.4249715314906515,-0.4100354418014401,-0.3767953968786153,0.3424161124505782,0.9904886454224962,0.01855290147667159,5.0
0.3845918907008587,-0.40540721817575875,-0.35813997314755613,0.33545726466343884,1.0606448716106665,0.040120205582406254,5.0
0.4115116512273871,-0.4192918080378258,-0.31771987932593415,0.2067186796226445,1.0025153907320359,-0.03699925065573475,5.0
0.4922709328069733,-0.4239200316635071,-0.2772997310783505,0.37547063236654055,1.1964473556158877,-0.14418222798831212,5.0
0.46086454552602324,-0.4100354418014401,-0.17469481891858235,0.25775020176987073,1.0030165743892192,-0.2592078551997331,5.0
0.4788110525437093,-0.3637532865596028,-0.20578722808765554,0.1469886118873915,0.6627586866823243,-0.26182207581164135,5.0
0.46086454552602324,-0.3591250629339215,-0.22755189817821822,0.1475685158696531,0.49538593511960294,-0.21280546325212435,5.0
0.46983779903486667,-0.3128429076920842,-0.19645948900914517,0.12727188709992007,0.277400430720705,-0.15594620479939095,5.0
0.4653511722804446,-0.3128429076920842,-0.2306611445377219,0.11451400656311352,0.14861358889268733,-0.15921398853553034,5.0
0.5057304989246878,-0.26656079295773555,-0.17780406527808604,0.19744022297940753,0.13758903976163156,-0.16509597694106973,5.0
0.49675724541584443,-0.29895827732252866,-0.18091331163758953,0.22411578494459525,0.08346850250882812,-0.11215804143494458,5.0
0.47432442578928763,-0.30821472457389143,-0.1715855725590789,0.2362937614991402,0.048891487503984976,-0.0997405014996346,5.0
0.5147037524335305,-0.30821472457389143,-0.21200572080666277,0.2026593588197619,0.021330105508351734,-0.13045757774704805,5.0
0.5236770059423735,-0.27581719970161006,-0.20578722808765554,0.2832659486975867,0.05490488460673811,-0.06379499598528586,5.0
0.5236770059423735,-0.27581719970161006,-0.20578722808765554,0.20207944776455172,0.07144171441531763,-0.06640921261156701,5.0
0.5236770059423735,-0.27581719970161006,-0.20578722808765554,0.1487283167612277,0.06292274129841316,-0.08274808346473934,5.0
0.49675724541584443,-0.34061216843119557,-0.2026779817281521,0.19396079908583794,0.08998300992481487,-0.08340163463208936,5.0
0.48329767929813067,-0.3220993549434473,-0.1498209024685163,0.18642205438938578,0.061419392022724895,-0.05333811951609353,5.0
0.48329767929813067,-0.3220993549434473,-0.1498209024685163,0.16554552517386545,0.08797854422389716,-0.06248788567933175,5.0
0.4922709328069733,-0.30358650094821,-0.18713180435659646,0.16322590924481906,0.06843501586394106,-0.04680257197195002,5.0
0.49675724541584443,-0.2897018705786542,-0.15914864154702665,0.1475685158696531,0.043379212938457055,-0.07163764984975642,5.0
0.49675724541584443,-0.2897018705786542,-0.15914864154702665,0.15858668445967486,0.028345729349567913,-0.07621253592059583,5.0
0.5147037524335305,-0.2804454233272914,-0.16536713426603383,0.15858668445967486,0.030350195050485633,-0.06444855113826292,5.0
0.5012438721702661,-0.26656079295773555,-0.15603939518752322,0.14176947604703713,0.02433680100373039,-0.058566558747096445,5.0
0.5012438721702661,-0.26656079295773555,-0.15603939518752322,0.13365082736832334,0.013813362185908201,-0.055298782982211164,5.0
0.5057304989246878,-0.2897018705786542,-0.15603939518752322,0.12959149949249216,0.0007843442979367726,-0.038306360961688865,5.0
0.5236770059423735,-0.30821472457389143,-0.1498209024685163,0.12611207913539688,0.007298853241922481,-0.05137745604997589,5.0
0.5147037524335305,-0.30821472457389143,-0.1342747250969606,0.13249101940380015,0.008802202517610783,-0.02654237568115256,5.0
0.5191903791879519,-0.2897018705786542,-0.1498209024685163,0.13017140347475376,0.015817827886825925,-0.04157413473376062,5.0
0.5236770059423735,-0.27581719970161006,-0.16847638062553733,0.13365082736832334,0.01631894431205535,-0.043534798199878245,5.0
0.5236770059423735,-0.2897018705786542,-0.15293014882801972,0.11045468222375664,0.025840150279418675,-0.02719593033592624,5.0
0.5102171256791088,-0.25730434570637284,-0.1467116561090126,0.08783844194557008,-0.01976141538447923,-0.021967492848635146,5.0
0.5057304989246878,-0.25730434570637284,-0.16536713426603383,0.07276094901619143,-0.012244673924284428,-0.0324243685705224,5.0
0.5012438721702661,-0.25730434570637284,-0.1498209024685163,0.06174278131028824,-0.04882614818379971,-0.004975070080807758,5.0
0.5012438721702661,-0.2897018705786542,-0.14360246417547126,0.07624037047843495,-0.039806058641665795,0.0002533671573816424,5.0
0.5236770059423735,-0.29895827732252866,-0.1622578879065304,0.06986143087312059,-0.03329154969768009,-0.016739055112242364,5.0
0.5147037524335305,-0.29895827732252866,-0.1467116561090126,0.07682027401863725,-0.028781504926613136,-0.017392609767016037,5.0
0.5236770059423735,-0.29895827732252866,-0.16847638062553733,0.07624037047843495,-0.026275924328464945,-0.027849485488903293,5.0
0.5102171256791088,-0.30821472457389143,-0.18091331163758953,0.08551882778476085,-0.013246906106243744,-0.02719593033592624,5.0
0.5057304989246878,-0.30358650094821,-0.1715855725590789,0.07855998480501641,-0.026777040753694373,-0.013471281589272298,5.0
0.5012438721702661,-0.3174711313177656,-0.17780406527808604,0.08725853884742706,-0.03529601387059886,-0.006282179390355108,5.0
0.5057304989246878,-0.30358650094821,-0.15914864154702665,0.08435902070435622,-0.050329497459488,0.006135359548548092,5.0
0.5147037524335305,-0.29895827732252866,-0.15603939518752322,0.07971979199593586,-0.05534065865578438,0.022474228408906893,5.0
0.49675724541584443,-0.29895827732252866,-0.16536713426603383,0.08493892424455853,-0.057345121300704176,0.012670907092691606,5.0
0.5012438721702661,-0.29895827732252866,-0.15603939518752322,0.08609873176702244,-0.04682168553887991,0.013324462245668673,5.0
0.49675724541584443,-0.294330053696847,-0.16847638062553733,0.07102123795352522,-0.05784623772593362,0.02312778356188394,5.0
0.5147037524335305,-0.30358650094821,-0.16536713426603383,0.07624037047843495,-0.048325031758570273,0.023781338714861006,5.0
0.5147037524335305,-0.3128429076920842,-0.18713180435659646,0.08493892424455853,-0.04481721983796218,0.031623992579331565,5.0
0.5102171256791088,-0.33135580219481003,-0.16847638062553733,0.08667863486516546,-0.025273692242005562,0.014631570558809258,5.0
0.5057304989246878,-0.34524039205687695,-0.16536713426603383,0.09769680345518722,-0.026275924328464945,0.006135359548548092,5.0
0.5012438721702661,-0.34524039205687695,-0.16536713426603383,0.10117622558051967,-0.03529601387059886,-0.00040018799559541436,5.0
0.5057304989246878,-0.3498686156825584,-0.18402255799709297,0.09073796008864092,-0.016253602699871656,0.00678891470152516,5.0
0.48329767929813067,-0.32672757856912865,-0.1715855725590789,0.10291593575906731,-0.03679936314628714,-0.012164171781521566,5.0
0.5012438721702661,-0.3128429076920842,-0.17780406527808604,0.10059632159825807,-0.037801594468747035,0.0002533671573816424,5.0
0.49675724541584443,-0.30821472457389143,-0.16847638062553733,0.09769680345518722,-0.04581945268842104,0.00809602500747928,5.0
0.5102171256791088,-0.30821472457389143,-0.17469481891858235,0.08261931008374929,-0.059349587001621906,0.01005668847359691,5.0
0.49675724541584443,-0.30821472457389143,-0.17780406527808604,0.06696191273004976,-0.058347354151163044,0.03293110288528569,5.0
0.5057304989246878,-0.30821472457389143,-0.19335029707560358,0.06870162379271598,-0.05083061388471742,0.013978015405832208,5.0
0.48778430605255235,-0.29895827732252866,-0.18091331163758953,0.058843263167217406,-0.05584177508101381,0.011363798779551028,5.0
0.5012438721702661,-0.29895827732252866,-0.1995687353686486,0.03912654191622028,-0.039806058641665795,0.003521140929453392,5.0
0.5102171256791088,-0.3128429076920842,-0.18713180435659646,0.018250012700699942,-0.04581945268842104,0.007442469854502213,5.0
0.5147037524335305,-0.29895827732252866,-0.18713180435659646,0.04028634634426916,-0.04080829149212466,0.00809602500747928,5.0
0.5147037524335305,-0.29895827732252866,-0.17780406527808604,0.02752846934393692,-0.049327264609029135,-0.017392609767016037,5.0
0.5191903791879519,-0.33135580219481003,-0.17780406527808604,0.024049045450367314,-0.06335851534745941,-0.008242843852879517,5.0
0.5102171256791088,-0.3220993549434473,-0.1622578879065304,0.03564711802265068,-0.07338083468405428,-0.008242843852879517,5.0
0.4922709328069733,-0.29895827732252866,-0.15914864154702665,0.0333275056300786,-0.09091989734309266,-0.0010537411557589443,5.0
0.5057304989246878,-0.33135580219481003,-0.1715855725590789,0.04492557466588766,-0.11347012425442533,0.015285125711786307,5.0
0.5147037524335305,-0.30358650094821,-0.1498209024685163,0.07218104503392983,-0.11697793311903552,0.00809602500747928,5.0
0.5236770059423735,-0.3128429076920842,-0.1715855725590789,0.07971979199593586,-0.107456733263668,-0.00040018799559541436,5.0
0.54162351296006,-0.29895827732252866,-0.19335029707560358,0.10871497204520898,-0.09242324661878096,-0.004975070080807758,5.0
0.5236770059423735,-0.3174711313177656,-0.17780406527808604,0.13075130745701535,-0.09442771231969867,-0.02850303964547359,5.0
0.5550833932233226,-0.3128429076920842,-0.18713180435659646,0.14466899595834512,-0.07789088251111914,-0.052684564363116464,5.0
0.5685432734865895,-0.3174711313177656,-0.19335029707560358,0.15336754861932048,-0.037801594468747035,-0.10170116695856579,5.0
0.5550833932233226,-0.35449683930824005,-0.19645948900914517,0.1835225344780778,0.012811130863448301,-0.13176468805300218,5.0
0.5640566467321682,-0.3591250629339215,-0.19335029707560358,0.1829426304958162,0.04738813822829669,-0.1807812846700109,5.0
0.550596766468902,-0.34061216843119557,-0.16847638062553733,0.21309761635457347,0.07945957110699269,-0.18404906840615026,5.0
0.5281636326967946,-0.35449683930824005,-0.21200572080666277,0.22875501680268803,0.08096292038268099,-0.21345902637635547,5.0
0.5236770059423735,-0.33135580219481003,-0.21200572080666277,0.23339424866078082,0.07795622183130442,-0.24548320495846893,5.0
0.4922709328069733,-0.28507364695297277,-0.18713180435659646,0.24093299335723298,0.058913809896577726,-0.2546329771001477,5.0
0.4788110525437093,-0.30358650094821,-0.20578722808765554,0.22643540087364167,0.03135242484494658,-0.2500580830580543,5.0
0.46086454552602324,-0.26656079295773555,-0.2088964744471591,0.235133953534617,0.03335689054586429,-0.2565936345878248,5.0
0.46086454552602324,-0.2480479389624986,-0.21822421352566965,0.23397414557009383,0.041374747237539346,-0.2167267941699867,5.0
0.46983779903486667,-0.2387914917111355,-0.22755189817821822,0.22469569599980543,0.027343496499109065,-0.19123816711764383,5.0
0.4563779187716023,-0.18788115335110545,-0.22133340545921124,0.18932157430069377,0.025339033854189254,-0.12000070327066928,5.0
0.4563779187716023,-0.1554836689863127,-0.2151149671661662,0.13829005568994185,0.015817827886825925,-0.11411870689387575,5.0
0.4922709328069733,-0.1554836689863127,-0.1995687353686486,0.06870162379271598,-0.009237977330656514,-0.08209452831176231,5.0
0.5147037524335305,-0.16936829935586858,-0.2151149671661662,0.022889241022318426,-0.023770343730316754,-0.05333811951609353,5.0
0.5236770059423735,-0.18325292972542412,-0.21200572080666277,-0.03916044617845527,-0.004727932559589561,-0.04810968227790414,5.0
0.5236770059423735,-0.2341633085929427,-0.2244426518187148,-0.07163504796625896,-0.003224584047900751,-0.07621253592059583,5.0
0.5371368862056386,-0.2480479389624986,-0.23687963725672878,-0.10352974577180105,0.006296621919462584,-0.06902343322347526,5.0
0.550596766468902,-0.27581719970161006,-0.2026779817281521,-0.10584936170084741,0.006797736816693061,-0.09516562340004933,5.0
0.5326502594512162,-0.27118901658341726,-0.18713180435659646,-0.07743408778887495,0.03235465769540545,-0.11738648265876103,5.0
0.5057304989246878,-0.25730434570637284,-0.1622578879065304,-0.044959478928122645,0.05089595320490268,-0.13241824320597922,5.0
0.4922709328069733,-0.26656079295773555,-0.16847638062553733,-0.010745172266482753,0.06091827559749544,-0.12784335713513983,5.0
0.5012438721702661,-0.25730434570637284,-0.17780406527808604,0.034487310058127496,0.045884795064604196,-0.1363395661525875,5.0
0.5236770059423735,-0.22953508496726138,-0.19335029707560358,0.03506721404038909,0.03385800697109373,-0.1415680073764039,5.0
0.5191903791879519,-0.24341971533681692,-0.16847638062553733,0.05420403307736176,0.041374747237539346,-0.14744999578194332,5.0
0.5012438721702661,-0.22027863771589856,-0.2026779817281521,0.05246432289881413,0.02333456815327154,-0.13111113290002513,5.0
0.4922709328069733,-0.19713756009498,-0.2088964744471591,0.04608538263041084,0.009804433840070681,-0.11804003781173808,5.0
0.4922709328069733,-0.19713756009498,-0.2088964744471591,0.013610780842607162,-0.010240209608115764,-0.09385851309409521,5.0
0.5057304989246878,-0.18325292972542412,-0.19335029707560358,0.011291164913560784,-0.00422681613436013,-0.07163764984975642,5.0
0.5057304989246878,-0.18325292972542412,-0.19335029707560358,-0.007845652355174752,-0.02176587955739799,-0.09581917855302638,5.0
0.5057304989246878,-0.18325292972542412,-0.19335029707560358,-0.01886382094519653,-0.043814986987503336,-0.10889027364131341,5.0
0.5371368862056386,-0.2341633085929427,-0.18091331163758953,-0.004366228461605179,-0.042812754137044474,-0.12784335713513983,5.0
0.5371368862056386,-0.2341633085929427,-0.18091331163758953,0.05420403307736176,-0.029783737777071998,-0.14548933829426625,5.0
0.5281636326967946,-0.27118901658341726,-0.19335029707560358,0.08725853884742706,0.0022876920456261053,-0.1748992962644715,5.0
0.5147037524335305,-0.27581719970161006,-0.2151149671661662,0.09827670743744882,0.02183121887758324,-0.1729386387767944,5.0
0.4922709328069733,-0.24341971533681692,-0.19024105071610015,0.08841834592783168,0.004292157746543825,-0.15921398853553034,5.0
0.4788110525437093,-0.20176578372066134,-0.2151149671661662,0.08957815300823631,-0.01675471874310135,-0.10889027364131341,5.0
0.47432442578928763,-0.21565041409021687,-0.23377039089722534,0.11335420213506461,0.00579550549423316,-0.078826752546877,5.0
0.4922709328069733,-0.22490686134157997,-0.2244426518187148,0.13655034374315705,0.0032899248960849637,-0.04941679059104472,5.0
0.4922709328069733,-0.2387914917111355,-0.2244426518187148,0.16612542915612705,-0.02076364747093861,-0.035692142342594164,5.0
0.4922709328069733,-0.2341633085929427,-0.2151149671661662,0.16786514110291184,-0.005730164646048944,-0.04680257197195002,5.0
0.5012438721702661,-0.2341633085929427,-0.22133340545921124,0.18758186235390897,0.0002832278727073434,-0.04418835335285532,5.0
0.5012438721702661,-0.20639400734634275,-0.21200572080666277,0.18990147828295537,0.011808898012989443,-0.05007034574402177,5.0
0.5057304989246878,-0.20176578372066134,-0.2088964744471591,0.1771435977461488,0.020327872657892872,-0.043534798199878245,5.0
0.5012438721702661,-0.1739965229815499,-0.22755189817821822,0.16264600526255746,0.023835684578500965,-0.02654237568115256,5.0
0.5147037524335305,-0.13697081499107538,-0.22755189817821822,0.1493082207434893,0.020828989083122307,-0.014778390898819648,5.0
0.5236770059423735,-0.14159899810926826,-0.21200572080666277,0.12727188709992007,0.010305550265300105,-0.014778390898819648,5.0
0.5326502594512162,-0.1601118521045055,-0.2026779817281521,0.12205275479604,0.0027888084708555345,0.002214032616312816,5.0
0.5461101397144806,-0.18788115335110545,-0.17780406527808604,0.11103458620601823,0.019325639807434007,-0.004321514927830701,5.0
0.5326502594512162,-0.1739965229815499,-0.18091331163758953,0.1174135264744215,0.020327872657892872,-0.0075892886999024585,5.0
0.5057304989246878,-0.1554836689863127,-0.15293014882801972,0.10175612779454411,0.0052943890690037194,0.014631570558809258,5.0
0.5147037524335305,-0.12308614411403132,-0.15914864154702665,0.08725853884742706,0.011808898012989443,0.003521140929453392,5.0
0.5236770059423735,-0.104573290118794,-0.16536713426603383,0.0901580569904979,-0.01775695082956073,0.029009775953050407,5.0
0.5550833932233226,-0.12771436773971265,-0.1715855725590789,0.07624037047843495,0.012811130863448301,0.01789934632369454,5.0
0.5461101397144806,-0.14622722173494995,-0.19024105071610015,0.07218104503392983,0.052399302480590965,0.02508844503518805,5.0
0.5147037524335305,-0.16936829935586858,-0.19024105071610015,0.06870162379271598,0.04087363081230991,0.012670907092691606,5.0
0.5102171256791088,-0.15085544536063128,-0.16536713426603383,0.08319921362395159,0.030851308419717165,0.02443489386783806,5.0
0.5236770059423735,-0.1647400757301868,-0.17469481891858235,0.1203130428492552,0.02483791742895983,0.02443489386783806,5.0
0.5236770059423735,-0.1647400757301868,-0.1622578879065304,0.11045468222375664,0.021330105508351734,0.004174696082430464,5.0
0.5147037524335305,-0.1786247060997427,-0.17780406527808604,0.12669198311765847,-0.0192602989592498,0.005481804395571046,5.0
0.5012438721702661,-0.20176578372066134,-0.17780406527808604,0.13713024772541865,-0.01976141538447923,-0.018046164421789714,5.0
0.5012438721702661,-0.20176578372066134,-0.18713180435659646,0.13539053577863386,-0.0698730258194441,0.0048282512354075125,5.0
0.5236770059423735,-0.21565041409021687,-0.19335029707560358,0.14060966808251393,-0.03629824672105771,0.006135359548548092,5.0
0.5191903791879519,-0.18325292972542412,-0.18713180435659646,0.1493082207434893,-0.06686632726806753,0.04273442619431448,5.0
0.5012438721702661,-0.1554836689863127,-0.2026779817281521,0.15220774065479728,-0.048325031758570273,0.05972684422920974,5.0
0.5147037524335305,-0.1647400757301868,-0.19024105071610015,0.1197331388669936,-0.03329154969768009,0.08848325501769203,5.0
0.5057304989246878,-0.1786247060997427,-0.17469481891858235,0.10581545390213815,-0.03429378254813895,0.09894012949407083,5.0
0.5191903791879519,-0.14622722173494995,-0.17469481891858235,0.08145950278231502,-0.03930494221643637,0.08848325501769203,5.0
0.5191903791879519,-0.14159899810926826,-0.1715855725590789,0.05710355122043261,-0.053837309380096086,0.10351501556491023,5.0
0.5281636326967946,-0.0999451070006012,-0.16847638062553733,0.006072036146154985,-0.04882614818379971,0.10743633851151846,5.0
0.5550833932233226,-0.104573290118794,-0.19645948900914517,-0.02060353289198132,-0.04732279890811141,0.10416857071788728,5.0
0.5685432734865895,-0.13697081499107538,-0.19335029707560358,-0.04263986299907625,0.0027888084708555345,0.0917510307825773,5.0
0.5461101397144806,-0.21102223097202408,-0.17780406527808604,-0.03916044617845527,0.025840150279418675,0.09109747562960026,5.0
0.550596766468902,-0.22027863771589856,-0.1715855725590789,-0.029302085552956707,0.03987139796185106,0.06691595091195739,5.0
0.5371368862056386,-0.20176578372066134,-0.1467116561090126,-0.023503045730340715,0.009804433840070681,0.05253774551771623,5.0
0.5326502594512162,-0.20639400734634275,-0.112510055006398,-0.015384397051626955,-0.014249138335953026,0.041427315888360364,5.0
0.5236770059423735,-0.20639400734634275,-0.13116547873745715,-0.003206420497081971,-0.009739093373886204,0.05057708005878506,5.0
0.5236770059423735,-0.21102223097202408,-0.15293014882801972,0.011871068895822368,-0.028781504926613136,0.04926996975283094,5.0
0.5281636326967946,-0.22490686134157997,-0.13738397145646408,0.0310078897010322,-0.009237977330656514,0.04208087104133744,5.0
0.5550833932233226,-0.24341971533681692,-0.14049321781596777,0.05710355122043261,0.009804433840070681,0.030970437426354525,5.0
0.54162351296006,-0.24341971533681692,-0.1498209024685163,0.06290258750657429,0.01682006073728477,0.01855290147667159,5.0
0.5371368862056386,-0.22490686134157997,-0.1342747250969606,0.06696191273004976,0.0348602398215526,-0.013471281589272298,5.0
0.5371368862056386,-0.22027863771589856,-0.14049321781596777,0.069281526890859,0.030350195050485633,0.01659223601774042,5.0
0.5236770059423735,-0.18325292972542412,-0.15914864154702665,0.04028634634426916,0.041374747237539346,0.0009069223103586991,5.0
0.5191903791879519,-0.1786247060997427,-0.16847638062553733,0.028688277308460096,0.018323406956975166,0.019860007796998657,5.0
0.5191903791879519,-0.19250937697678722,-0.18713180435659646,0.011871068895822368,0.0002832278727073434,0.0342382131912398,5.0
0.5326502594512162,-0.20176578372066134,-0.15603939518752322,-0.0003069076587225893,0.018323406956975166,0.023781338714861006,5.0
0.5191903791879519,-0.21565041409021687,-0.18402255799709297,-0.015964301033888552,0.0173211741065163,0.01789934632369454,5.0
0.5147037524335305,-0.2387914917111355,-0.17469481891858235,-0.0316217014820031,0.0388691651113922,-0.009549953162426865,5.0
0.5371368862056386,-0.2387914917111355,-0.20578722808765554,-0.04437958201880964,0.04538367863937478,-0.018699719201114233,5.0
0.5236770059423735,-0.24341971533681692,-0.21822421352566965,-0.03974035016071686,0.07545063970515725,-0.027849485488903293,5.0
0.5371368862056386,-0.28507364695297277,-0.2026779817281521,-0.043219774054286446,0.11052876502323401,-0.02392815706205786,5.0
0.5326502594512162,-0.27581719970161006,-0.18402255799709297,-0.022923141748079117,0.11203212041091812,-0.02523526637160521,5.0
0.5147037524335305,-0.27581719970161006,-0.16536713426603383,0.014190684824868773,0.10902542185954155,-0.05007034574402177,5.0
0.5102171256791088,-0.294330053696847,-0.19024105071610015,0.04608538263041084,0.10601872330816499,-0.024581711716831538,5.0
0.5102171256791088,-0.27581719970161006,-0.1498209024685163,0.06406239547109749,0.11804550528967962,-0.061180775373377634,5.0
0.5147037524335305,-0.2341633085929427,-0.1498209024685163,0.08899824991009328,0.14510578002807717,-0.07948030769985406,5.0
0.5326502594512162,-0.18325292972542412,-0.15914864154702665,0.09653699549066402,0.11754439497644602,-0.09647273370600341,5.0
0.5371368862056386,-0.1739965229815499,-0.1342747250969606,0.08319921362395159,0.09900309335495296,-0.08993718217623285,5.0
0.5236770059423735,-0.16936829935586858,-0.11561930136590144,0.08377911716415391,0.07695398898084553,-0.09059073732920993,5.0
0.5147037524335305,-0.16936829935586858,-0.09696385042186138,0.09537718929437798,0.013312245760678777,-0.05464522782923412,5.0
0.5102171256791088,-0.19713756009498,-0.10940080864689451,0.12669198311765847,-0.018759183298019847,-0.02850303964547359,5.0
0.5102171256791088,-0.20639400734634275,-0.14049321781596777,0.14350918799382192,-0.049327264609029135,-0.018046164421789714,5.0
0.5236770059423735,-0.21102223097202408,-0.14360246417547126,0.172504365888056,-0.0648618615671498,-0.030463704107997994,5.0
0.5371368862056386,-0.20639400734634275,-0.14049321781596777,0.18700195837164738,-0.05985070342685134,-0.024581711716831538,5.0
0.5236770059423735,-0.21102223097202408,-0.15603939518752322,0.18468234244260098,-0.04481721983796218,-0.047456127124927076,5.0
0.5281636326967946,-0.20639400734634275,-0.1498209024685163,0.1788833096929336,-0.05584177508101381,-0.044841908505832376,5.0
0.550596766468902,-0.20176578372066134,-0.15293014882801972,0.1812029185490314,-0.054338425805325524,-0.04810968227790414,5.0
0.54162351296006,-0.18788115335110545,-0.12805623237795363,0.18642205438938578,-0.04682168553887991,-0.043534798199878245,5.0
0.5326502594512162,-0.18325292972542412,-0.12805623237795363,0.1806230145667698,-0.03830271089397647,-0.042227689886737675,5.0
0.5326502594512162,-0.1554836689863127,-0.1467116561090126,0.16380581322708065,-0.05684400487547476,-0.04418835335285532,5.0
0.5326502594512162,-0.1554836689863127,-0.1467116561090126,0.1475685158696531,-0.04581945268842104,-0.03895991611466592,5.0
0.5461101397144806,-0.16936829935586858,-0.15603939518752322,0.13886995613572914,-0.029783737777071998,-0.0376528058087118,5.0
0.5371368862056386,-0.14622722173494995,-0.16847638062553733,0.09305757513356874,-0.0017212363002114183,-0.03961346927482945,5.0
0.5371368862056386,-0.14622722173494995,-0.16847638062553733,0.06812171981045438,-0.003224584047900751,-0.03438503203664005,5.0
0.5371368862056386,-0.1554836689863127,-0.14360246417547126,0.058843263167217406,-0.016253602699871656,-0.025888821026378888,5.0
0.5236770059423735,-0.16936829935586858,-0.16536713426603383,0.025788757397152126,-0.009739093373886204,0.0015604774633357632,5.0
0.5236770059423735,-0.16936829935586858,-0.16536713426603383,0.02520885341489052,0.0032899248960849637,0.013978015405832208,5.0
0.5236770059423735,-0.18788115335110545,-0.15603939518752322,0.0043323241993701925,-0.012244673924284428,0.014631570558809258,5.0
0.5147037524335305,-0.20639400734634275,-0.17780406527808604,0.0037524202171085944,-0.004727932559589561,0.013324462245668673,5.0
0.5147037524335305,-0.20639400734634275,-0.17780406527808604,0.002592612252585399,-0.0012201198749819892,0.03554532349719392,5.0
0.5147037524335305,-0.20176578372066134,-0.19335029707560358,0.010711260931299173,0.004793272643774299,0.030316886259004507,5.0
0.5236770059423735,-0.22953508496726138,-0.1622578879065304,0.019989721111010446,-0.011242441694575145,0.013324462245668673,5.0
0.5281636326967946,-0.25730434570637284,-0.1622578879065304,0.0321676976655554,-0.02276811164385737,0.032277547732308634,5.0
0.5147037524335305,-0.25730434570637284,-0.17469481891858235,0.04840499855945724,-0.02076364747093861,0.02508844503518805,5.0
0.5191903791879519,-0.2387914917111355,-0.17780406527808604,0.05246432289881413,-0.021264763896168038,0.04600219797357271,5.0
0.5147037524335305,-0.22490686134157997,-0.1995687353686486,0.06406239547109749,-0.025273692242005562,0.05972684422920974,5.0
0.5057304989246878,-0.22953508496726138,-0.19335029707560358,0.06290258750657429,-0.033792666122909515,0.04208087104133744,5.0
0.5057304989246878,-0.21102223097202408,-0.15914864154702665,0.07624037047843495,-0.03880382579120695,0.046655753126549765,5.0
0.5236770059423735,-0.21102223097202408,-0.14360246417547126,0.07450065963679836,-0.04080829149212466,0.06038039938218681,5.0
0.5281636326967946,-0.21565041409021687,-0.1498209024685163,0.07682027401863725,-0.07638753323543086,0.07410504962345088,5.0
0.5326502594512162,-0.20176578372066134,-0.12805623237795363,0.08551882778476085,-0.0934254794692398,0.09436524342323141,5.0
0.5236770059423735,-0.21565041409021687,-0.1342747250969606,0.10581545390213815,-0.09392659589446924,0.10351501556491023,5.0
0.5326502594512162,-0.20176578372066134,-0.1342747250969606,0.10929487425923344,-0.11747905565626077,0.10220790525895612,5.0
0.5236770059423735,-0.22490686134157997,-0.1342747250969606,0.14640870790512991,-0.12048575420763735,0.10939700397044962,5.0
0.5147037524335305,-0.24341971533681692,-0.1342747250969606,0.2049789747488083,-0.14554155102112554,0.07475860477642793,5.0
0.5236770059423735,-0.24341971533681692,-0.1342747250969606,0.24325260928627937,-0.12599802877316524,0.051884190364739166,5.0
0.5461101397144806,-0.2480479389624986,-0.1622578879065304,0.27340758807208815,-0.09091989734309266,0.00809602500747928,5.0
0.5775165269954314,-0.25267616258818004,-0.17469481891858235,0.26934826726920547,-0.028781504926613136,-0.02850303964547359,5.0
0.5820031537498528,-0.22490686134157997,-0.18713180435659646,0.26470903541111274,0.021330105508351734,-0.05072390089699883,5.0
0.5640566467321682,-0.18325292972542412,-0.14049321781596777,0.22005646414171265,0.04087363081230991,-0.06444855113826292,5.0
0.5550833932233226,-0.14622722173494995,-0.14360246417547126,0.14582880392286832,0.05340153533104982,-0.061180775373377634,5.0
0.5371368862056386,-0.104573290118794,-0.14049321781596777,0.09769680345518722,0.04087363081230991,-0.05333811951609353,5.0
0.5371368862056386,-0.09068865974923847,-0.14049321781596777,0.05246432289881413,0.009804433840070681,0.00678891470152516,5.0
0.5281636326967946,-0.10920151374447541,-0.15914864154702665,0.012450972878083952,0.0007843442979367726,0.01659223601774042,5.0
0.5281636326967946,-0.1554836689863127,-0.1342747250969606,-0.015964301033888552,-0.010240209608115764,0.01920645264402161,5.0
0.5236770059423735,-0.21102223097202408,-0.14360246417547126,-0.0304618935174799,-0.003224584047900751,0.007442469854502213,5.0
0.5236770059423735,-0.2387914917111355,-0.15603939518752322,-0.02524275767712551,0.01982675623266345,0.007442469854502213,5.0
0.5147037524335305,-0.25730434570637284,-0.16847638062553733,0.006072036146154985,0.025840150279418675,-0.0075892886999024585,5.0
0.5281636326967946,-0.27581719970161006,-0.18091331163758953,0.028688277308460096,0.03435912339632316,0.0048282512354075125,5.0
0.5147037524335305,-0.27581719970161006,-0.18713180435659646,0.05594374502414657,0.03135242484494658,0.0048282512354075125,5.0
0.5057304989246878,-0.2897018705786542,-0.15293014882801972,0.07334085255639375,0.0228334517280421,-0.009549953162426865,5.0
0.5057304989246878,-0.27581719970161006,-0.1498209024685163,0.08841834592783168,0.01982675623266345,-0.016739055112242364,5.0
0.5057304989246878,-0.25267616258818004,-0.1498209024685163,0.10059632159825807,0.014314478611137625,-0.027849485488903293,5.0
0.5236770059423735,-0.2480479389624986,-0.14360246417547126,0.10813506806294738,0.010305550265300105,-0.018699719201114233,5.0
0.5147037524335305,-0.22953508496726138,-0.14360246417547126,0.09131786407090252,-0.008736861287426824,-0.02654237568115256,5.0
0.5281636326967946,-0.21565041409021687,-0.12494698601844996,0.09247767115130714,-0.006231281071278371,-0.03699925065573475,5.0
0.5281636326967946,-0.22953508496726138,-0.13738397145646408,0.10001641761599647,-0.005730164646048944,-0.025888821026378888,5.0
0.5191903791879519,-0.22490686134157997,-0.12805623237795363,0.08493892424455853,-0.0037257004731301815,-0.006935734543332163,5.0
0.5147037524335305,-0.24341971533681692,-0.14360246417547126,0.08551882778476085,0.004793272643774299,-0.006282179390355108,5.0
0.5236770059423735,-0.2341633085929427,-0.15914864154702665,0.07102123795352522,-0.003224584047900751,-0.014124836244045973,5.0
0.5236770059423735,-0.24341971533681692,-0.1498209024685163,0.07740017755883956,-0.008235745244197132,-0.033731477880069756,5.0
0.5147037524335305,-0.22953508496726138,-0.16847638062553733,0.07450065963679836,-0.006732396732508323,-0.02654237568115256,5.0
0.5147037524335305,-0.22953508496726138,-0.16536713426603383,0.07624037047843495,-0.0012201198749819892,-0.02915659479845064,5.0
0.5147037524335305,-0.24341971533681692,-0.17469481891858235,0.07276094901619143,0.004793272643774299,-0.02981014895502094,5.0
0.5236770059423735,-0.25730434570637284,-0.17469481891858235,0.10349583974132891,0.0032899248960849637,-0.014124836244045973,5.0
0.5236770059423735,-0.25730434570637284,-0.18713180435659646,0.10059632159825807,0.007799969667151919,-0.024581711716831538,5.0
0.5236770059423735,-0.27581719970161006,-0.16847638062553733,0.10117622558051967,-0.00021788778852260978,-0.027849485488903293,5.0
0.5236770059423735,-0.26656079295773555,-0.1622578879065304,0.09711689947292562,-0.00222235196144137,-0.02850303964547359,5.0
0.5236770059423735,-0.26193256933205417,-0.16536713426603383,0.11219439417054143,-0.009237977330656514,-0.012164171781521566,5.0
0.5281636326967946,-0.2341633085929427,-0.16536713426603383,0.12205275479604,0.0052943890690037194,-0.02523526637160521,5.0
0.5236770059423735,-0.25730434570637284,-0.1715855725590789,0.1174135264744215,0.01982675623266345,-0.03177081341754534,5.0
0.5236770059423735,-0.25730434570637284,-0.1715855725590789,0.1226326587783016,0.017822290531745725,-0.02981014895502094,5.0
0.5236770059423735,-0.25730434570637284,-0.1715855725590789,0.1197331388669936,0.02183121887758324,-0.045495461665995905,5.0
0.5236770059423735,-0.22490686134157997,-0.15603939518752322,0.10929487425923344,0.021330105508351734,-0.03699925065573475,5.0
0.5281636326967946,-0.22027863771589856,-0.12805623237795363,0.1174135264744215,0.026842380073879624,-0.035692142342594164,5.0
0.5012438721702661,-0.21102223097202408,-0.15603939518752322,0.10987477824149504,0.012811130863448301,-0.020660383352261526,5.0
0.5102171256791088,-0.21102223097202408,-0.1467116561090126,0.11393410258085192,0.01631894431205535,-0.0350385871896171,5.0
0.5281636326967946,-0.22027863771589856,-0.14360246417547126,0.10697526186666134,0.0022876920456261053,-0.02262104750340882,5.0
0.5326502594512162,-0.21102223097202408,-0.1622578879065304,0.10581545390213815,0.006797736816693061,-0.035692142342594164,5.0
0.5281636326967946,-0.22953508496726138,-0.15293014882801972,0.10349583974132891,0.012811130863448301,-0.0350385871896171,5.0
0.5191903791879519,-0.21102223097202408,-0.15293014882801972,0.13249101940380015,-0.003224584047900751,-0.033731477880069756,5.0
0.5191903791879519,-0.21102223097202408,-0.15293014882801972,0.13249101940380015,-0.003224584047900751,-0.033731477880069756,5.0
0.54162351296006,-0.2341633085929427,-0.112510055006398,0.13944986011799074,0.0017865771483956308,-0.03177081341754534,5.0
0.5371368862056386,-0.21565041409021687,-0.12805623237795363,0.1498881247257509,0.00579550549423316,-0.05007034574402177,5.0
0.5550833932233226,-0.19713756009498,-0.12805623237795363,0.15104793269027408,0.02433680100373039,-0.055298782982211164,5.0
0.550596766468902,-0.22027863771589856,-0.13116547873745715,0.16438571720934225,0.030851308419717165,-0.07555898076761877,5.0
0.550596766468902,-0.20639400734634275,-0.14360246417547126,0.1493082207434893,0.031853541270176006,-0.07490542561464172,5.0
0.5461101397144806,-0.20176578372066134,-0.11872849329944296,0.1475685158696531,0.0228334517280421,-0.07033054352942936,5.0
0.5461101397144806,-0.20639400734634275,-0.14360246417547126,0.13307092338606175,0.02183121887758324,-0.061180775373377634,5.0
0.5236770059423735,-0.19250937697678722,-0.13116547873745715,0.12437236718861208,0.015316711461596483,-0.057913003594119404,5.0
0.5371368862056386,-0.20639400734634275,-0.11872849329944296,0.1185733344389447,-0.00222235196144137,-0.05203100921013942,5.0
0.5371368862056386,-0.20176578372066134,-0.12805623237795363,0.10755516408068579,0.0032899248960849637,-0.0350385871896171,5.0
0.5461101397144806,-0.18788115335110545,-0.12805623237795363,0.10523554991987655,-0.0012201198749819892,-0.0350385871896171,5.0
0.5371368862056386,-0.19250937697678722,-0.14360246417547126,0.09479728531211638,0.014314478611137625,-0.02654237568115256,5.0
0.5326502594512162,-0.19713756009498,-0.14360246417547126,0.09595709327663958,0.029347962200026775,-0.0330779227270927,5.0
0.5461101397144806,-0.22027863771589856,-0.11872849329944296,0.08029969559139558,0.0173211741065163,-0.038306360961688865,5.0
0.5461101397144806,-0.2341633085929427,-0.13738397145646408,0.09653699549066402,0.026341263648650207,-0.05333811951609353,5.0
0.54162351296006,-0.21102223097202408,-0.15603939518752322,0.10697526186666134,0.028345729349567913,-0.040920579580783566,5.0
0.5461101397144806,-0.22027863771589856,-0.14360246417547126,0.10929487425923344,0.030350195050485633,-0.035692142342594164,5.0
0.5147037524335305,-0.21102223097202408,-0.13116547873745715,0.10465564593761494,0.02333456815327154,-0.016085500208366996,5.0
0.5326502594512162,-0.20176578372066134,-0.10940080864689451,0.1185733344389447,-0.0007190034497525601,-0.038306360961688865,5.0
0.5326502594512162,-0.20176578372066134,-0.10940080864689451,0.1197331388669936,-0.002723468386670798,-0.020660383352261526,5.0
0.5371368862056386,-0.19713756009498,-0.12805623237795363,0.10175612779454411,-0.010240209608115764,-0.03634569649916445,5.0
0.5326502594512162,-0.20639400734634275,-0.1498209024685163,0.10523554991987655,-0.01825806687279042,-0.009549953162426865,5.0
0.5326502594512162,-0.20639400734634275,-0.1498209024685163,0.10175612779454411,-0.00222235196144137,-0.009549953162426865,5.0
0.54162351296006,-0.1786247060997427,-0.13738397145646408,0.10349583974132891,0.0007843442979367726,-0.020660383352261526,5.0
0.5461101397144806,-0.1739965229815499,-0.12183773965894647,0.09073796008864092,0.0022876920456261053,-0.006935734543332163,5.0
0.5461101397144806,-0.1739965229815499,-0.12183773965894647,0.08841834592783168,0.006296621919462584,-0.02654237568115256,5.0
0.5461101397144806,-0.1647400757301868,-0.11872849329944296,0.09073796008864092,0.013312245760678777,-0.018699719201114233,5.0
0.54162351296006,-0.1786247060997427,-0.14360246417547126,0.08667863486516546,-0.002723468386670798,-0.010857062471974217,5.0
0.5461101397144806,-0.1786247060997427,-0.1342747250969606,0.07624037047843495,-0.003224584047900751,-0.0075892886999024585,5.0
0.5326502594512162,-0.20176578372066134,-0.12805623237795363,0.08667863486516546,-0.014750254379182717,-0.016085500208366996,5.0
0.5371368862056386,-0.19250937697678722,-0.12494698601844996,0.06754181671231135,-0.013748022197223401,0.00678891470152516,5.0
0.5371368862056386,-0.18325292972542412,-0.112510055006398,0.07160114193578682,-0.02276811164385737,-0.014124836244045973,5.0
0.5326502594512162,-0.19713756009498,-0.13738397145646408,0.07971979199593586,-0.026275924328464945,0.0048282512354075125,5.0
0.5371368862056386,-0.20176578372066134,-0.1000730695683839,0.08203940632251733,-0.03128708552476133,0.0048282512354075125,5.0
0.5461101397144806,-0.19713756009498,-0.10629156228739108,0.08261931008374929,-0.04431610341273275,-0.0010537411557589443,5.0
0.5371368862056386,-0.20176578372066134,-0.12494698601844996,0.07102123795352522,-0.05534065865578438,0.005481804395571046,5.0
0.54162351296006,-0.20176578372066134,-0.12805623237795363,0.08145950278231502,-0.03128708552476133,0.010710243626573978,5.0
0.5326502594512162,-0.19713756009498,-0.14360246417547126,0.06696191273004976,-0.026275924328464945,0.002214032616312816,5.0
0.5371368862056386,-0.1786247060997427,-0.12494698601844996,0.07855998480501641,-0.01825806687279042,-0.010857062471974217,5.0
0.5371368862056386,-0.16936829935586858,-0.112510055006398,0.062322683524312694,-0.015752486656641966,-0.0017072963087360012,5.0
0.5461101397144806,-0.1786247060997427,-0.10629156228739108,0.05072461272026648,-0.02076364747093861,0.010710243626573978,5.0
0.5461101397144806,-0.18788115335110545,-0.112510055006398,0.05942316538124186,-0.01825806687279042,-0.024581711716831538,5.0
0.550596766468902,-0.18788115335110545,-0.12183773965894647,0.04956480475574329,-0.014750254379182717,-0.03634569649916445,5.0
0.5550833932233226,-0.20176578372066134,-0.1342747250969606,0.047245190594934046,0.01982675623266345,-0.021967492848635146,5.0
0.5550833932233226,-0.21102223097202408,-0.14360246417547126,0.05536384104188497,0.04187586366276876,-0.033731477880069756,5.0
0.5595700199777431,-0.18788115335110545,-0.12805623237795363,0.04956480475574329,0.061419392022724895,-0.052684564363116464,5.0
0.5595700199777431,-0.19250937697678722,-0.12805623237795363,0.047245190594934046,0.06693166658825277,-0.06640921261156701,5.0
0.5371368862056386,-0.19713756009498,-0.1342747250969606,0.024628949432628923,0.05991604274703658,-0.056605893288165274,5.0
0.5191903791879519,-0.21565041409021687,-0.14360246417547126,0.02810837332619851,0.04488256221414536,-0.03699925065573475,5.0
0.5012438721702661,-0.2341633085929427,-0.14049321781596777,0.05188441891655252,0.055406001031967564,-0.035692142342594164,5.0
0.49675724541584443,-0.25730434570637284,-0.14360246417547126,0.06638200963190673,0.026341263648650207,-0.025888821026378888,5.0
0.48329767929813067,-0.27118901658341726,-0.13738397145646408,0.07392075609659605,-0.012244673924284428,-0.006282179390355108,5.0
0.49675724541584443,-0.25730434570637284,-0.1498209024685163,0.08957815300823631,-0.03930494221643637,-0.0017072963087360012,5.0
0.5191903791879519,-0.22953508496726138,-0.12805623237795363,0.10001641761599647,-0.059349587001621906,0.0009069223103586991,5.0
0.5147037524335305,-0.2387914917111355,-0.14049321781596777,0.09711689947292562,-0.06636521084283807,0.02508844503518805,5.0
0.5057304989246878,-0.2341633085929427,-0.14049321781596777,0.10407574372359052,-0.09392659589446924,0.03554532349719392,5.0
0.5102171256791088,-0.21102223097202408,-0.112510055006398,0.1232125627605632,-0.11747905565626077,0.04992352490580798,5.0
0.5236770059423735,-0.20176578372066134,-0.10629156228739108,0.11509391054537513,-0.107456733263668,0.04730930429389977,5.0
0.5461101397144806,-0.20639400734634275,-0.11561930136590144,0.11451400656311352,-0.09392659589446924,0.06626239575898031,5.0
0.5640566467321682,-0.20176578372066134,-0.112510055006398,0.10639535788439974,-0.04732279890811141,0.03489176834421685,5.0
0.5820031537498528,-0.19250937697678722,-0.11872849329944296,0.0901580569904979,-0.02026253104570918,-0.01935327391816333,5.0
0.5864897805042734,-0.19713756009498,-0.16847638062553733,0.08783844194557008,0.00579550549423316,-0.03699925065573475,5.0
0.5954630340131153,-0.20176578372066134,-0.15603939518752322,0.07508056317700068,0.02483791742895983,-0.06706276776454409,5.0
0.5730299002410107,-0.16936829935586858,-0.14360246417547126,0.060003069363503456,0.06843501586394106,-0.10496894272345106,5.0
0.5461101397144806,-0.20176578372066134,-0.112510055006398,0.069281526890859,0.06693166658825277,-0.09451206824707226,5.0
0.5012438721702661,-0.1786247060997427,-0.11561930136590144,0.07276094901619143,0.030350195050485633,-0.07948030769985406,5.0
0.48329767929813067,-0.19250937697678722,-0.12494698601844996,0.06406239547109749,-0.016253602699871656,-0.05007034574402177,5.0
0.48778430605255235,-0.16936829935586858,-0.11561930136590144,0.10465564593761494,-0.0698730258194441,-0.0030144066146901146,5.0
0.5102171256791088,-0.1786247060997427,-0.10629156228739108,0.10349583974132891,-0.09091989734309266,0.01659223601774042,5.0
0.550596766468902,-0.1786247060997427,-0.14049321781596777,0.10929487425923344,-0.0949288287449281,0.03815954012347508,5.0
0.5461101397144806,-0.18788115335110545,-0.1467116561090126,0.12379246674282479,-0.078893115361578,0.03619887865017096,5.0
0.5595700199777431,-0.1601118521045055,-0.13116547873745715,0.1174135264744215,-0.06937190939421467,0.044695087667618594,5.0
0.5730299002410107,-0.20176578372066134,-0.12805623237795363,0.13075130745701535,-0.058347354151163044,0.02116711810295277,5.0
0.5640566467321682,-0.21102223097202408,-0.12805623237795363,0.11103458620601823,-0.011242441694575145,0.0009069223103586991,5.0
0.5550833932233226,-0.18788115335110545,-0.1498209024685163,0.08957815300823631,0.010305550265300105,-0.02850303964547359,5.0
0.5371368862056386,-0.16936829935586858,-0.1467116561090126,0.09247767115130714,0.01982675623266345,-0.027849485488903293,5.0
0.5461101397144806,-0.18325292972542412,-0.14049321781596777,0.08667863486516546,0.030851308419717165,-0.03438503203664005,5.0
0.5550833932233226,-0.18788115335110545,-0.14360246417547126,0.08203940632251733,0.05139706963013213,-0.047456127124927076,5.0
0.5371368862056386,-0.20176578372066134,-0.1622578879065304,0.05072461272026648,0.05490488460673811,-0.04418835335285532,5.0
0.54162351296006,-0.20176578372066134,-0.13738397145646408,0.04492557466588766,0.04939260392921439,-0.07229120500273349,5.0
0.5326502594512162,-0.20176578372066134,-0.12805623237795363,0.05536384104188497,0.011307783115758965,-0.05464522782923412,5.0
0.5236770059423735,-0.20176578372066134,-0.14360246417547126,0.04550547864814925,-0.02276811164385737,-0.05072390089699883,5.0
0.5236770059423735,-0.22027863771589856,-0.13116547873745715,0.07102123795352522,-0.03830271089397647,-0.031117259260975055,5.0
0.5236770059423735,-0.19713756009498,-0.14360246417547126,0.07392075609659605,-0.031788201949990755,-0.021313938069310624,5.0
0.5236770059423735,-0.19713756009498,-0.14360246417547126,0.09827670743744882,-0.03529601387059886,0.0009069223103586991,5.0
0.5371368862056386,-0.22490686134157997,-0.14049321781596777,0.10581545390213815,-0.03479489744536941,0.00874957816764279,5.0
0.54162351296006,-0.22027863771589856,-0.15293014882801972,0.09943651363373487,-0.02226699598262742,-0.012164171781521566,5.0
0.550596766468902,-0.22027863771589856,-0.14049321781596777,0.10697526186666134,-0.02226699598262742,-0.016739055112242364,5.0
0.54162351296006,-0.22027863771589856,-0.14360246417547126,0.11625371850989831,-0.016253602699871656,-0.040920579580783566,5.0
0.54162351296006,-0.22027863771589856,-0.15293014882801972,0.10465564593761494,-0.0017212363002114183,-0.06706276776454409,5.0
0.5461101397144806,-0.21565041409021687,-0.14049321781596777,0.10813506806294738,0.026842380073879624,-0.07555898076761877,5.0
0.5281636326967946,-0.21102223097202408,-0.1467116561090126,0.08551882778476085,0.026341263648650207,-0.058566558747096445,5.0
0.54162351296006,-0.20176578372066134,-0.14049321781596777,0.08667863486516546,0.04488256221414536,-0.038306360961688865,5.0
0.5371368862056386,-0.19713756009498,-0.14049321781596777,0.08957815300823631,0.025840150279418675,-0.016085500208366996,5.0
0.5147037524335305,-0.21102223097202408,-0.15293014882801972,0.09827670743744882,0.013813362185908201,-0.017392609767016037,5.0
0.5147037524335305,-0.21565041409021687,-0.14049321781596777,0.09305757513356874,-0.0037257004731301815,-0.033731477880069756,5.0
0.5371368862056386,-0.21102223097202408,-0.1467116561090126,0.08841834592783168,0.010806666690529543,-0.04876323543806765,5.0
0.5371368862056386,-0.20639400734634275,-0.13116547873745715,0.10001641761599647,0.010305550265300105,-0.05007034574402177,5.0
0.5371368862056386,-0.20176578372066134,-0.12805623237795363,0.10001641761599647,0.0052943890690037194,-0.03895991611466592,5.0
0.5191903791879519,-0.18788115335110545,-0.112510055006398,0.10349583974132891,-0.014750254379182717,-0.03634569649916445,5.0
0.5147037524335305,-0.21102223097202408,-0.1000730695683839,0.11567381452763671,-0.03078596909953189,-0.015431945553593323,5.0
0.5326502594512162,-0.20176578372066134,-0.12805623237795363,0.12727188709992007,-0.041309407917354095,0.01920645264402161,5.0
0.5326502594512162,-0.20639400734634275,-0.112510055006398,0.10349583974132891,-0.05784623772593362,0.015285125711786307,5.0
0.54162351296006,-0.18788115335110545,-0.12805623237795363,0.09885661141971042,-0.048325031758570273,0.015938680864763372,5.0
0.5461101397144806,-0.18325292972542412,-0.12805623237795363,0.11335420213506461,-0.03329154969768009,0.004174696082430464,5.0
0.5595700199777431,-0.20176578372066134,-0.12494698601844996,0.11509391054537513,-0.014249138335953026,-0.016085500208366996,5.0
0.5730299002410107,-0.19250937697678722,-0.11872849329944296,0.11683362249215991,0.012310014438218863,-0.03699925065573475,5.0
0.5461101397144806,-0.18325292972542412,-0.09385460406235788,0.11335420213506461,0.0052943890690037194,-0.03438503203664005,5.0
0.5236770059423735,-0.1554836689863127,-0.10629156228739108,0.09827670743744882,-0.008736861287426824,-0.023274602158182497,5.0
0.5281636326967946,-0.16936829935586858,-0.12494698601844996,0.08841834592783168,-0.0192602989592498,-0.012164171781521566,5.0
0.5236770059423735,-0.1786247060997427,-0.11872849329944296,0.09595709327663958,-0.03279043327245065,-0.00040018799559541436,5.0
0.54162351296006,-0.20639400734634275,-0.14360246417547126,0.08725853884742706,-0.024772576580775613,0.007442469854502213,5.0
0.5461101397144806,-0.20176578372066134,-0.1498209024685163,0.09595709327663958,-0.01174355783330477,-0.0017072963087360012,5.0
0.54162351296006,-0.19250937697678722,-0.12494698601844996,0.08841834592783168,-0.01675471874310135,-0.016739055112242364,5.0
0.54162351296006,-0.19250937697678722,-0.12494698601844996,0.09421738132985479,-0.00422681613436013,-0.02392815706205786,5.0
0.5371368862056386,-0.19713756009498,-0.12805623237795363,0.08493892424455853,-0.013748022197223401,-0.012164171781521566,5.0
0.5236770059423735,-0.18325292972542412,-0.1342747250969606,0.09131786407090252,-0.01725583478633104,-0.006282179390355108,5.0
0.54162351296006,-0.18788115335110545,-0.15293014882801972,0.07566046671720299,-0.02176587955739799,-0.011510617624951272,5.0
0.5461101397144806,-0.1739965229815499,-0.14360246417547126,0.0779800812095567,-0.018759183298019847,-0.0023608514617130577,5.0
0.5461101397144806,-0.14622722173494995,-0.14049321781596777,0.05942316538124186,-0.01825806687279042,0.002214032616312816,5.0
0.5371368862056386,-0.1739965229815499,-0.11872849329944296,0.06464229856924052,-0.006732396732508323,-0.010203508315403922,5.0
0.5550833932233226,-0.1786247060997427,-0.1498209024685163,0.07566046671720299,-0.013748022197223401,-0.013471281589272298,5.0
0.550596766468902,-0.18325292972542412,-0.10629156228739108,0.06464229856924052,-0.003224584047900751,-0.010203508315403922,5.0
0.5371368862056386,-0.1786247060997427,-0.112510055006398,0.06406239547109749,-0.010741325651345454,-0.010857062471974217,5.0
0.5461101397144806,-0.1786247060997427,-0.10629156228739108,0.058843263167217406,-0.010240209608115764,-0.006935734543332163,5.0
0.5371368862056386,-0.20176578372066134,-0.11872849329944296,0.07218104503392983,-0.014750254379182717,-0.004321514927830701,5.0
0.54162351296006,-0.18788115335110545,-0.12494698601844996,0.05130451493429093,-0.00222235196144137,-0.0075892886999024585,5.0
0.5461101397144806,-0.19713756009498,-0.14360246417547126,0.05246432289881413,0.0022876920456261053,-0.02719593033592624,5.0
0.5461101397144806,-0.21102223097202408,-0.13116547873745715,0.0576834552026942,0.015316711461596483,-0.011510617624951272,5.0
0.5461101397144806,-0.21565041409021687,-0.14360246417547126,0.07218104503392983,-0.0037257004731301815,-0.0075892886999024585,5.0
0.5281636326967946,-0.20176578372066134,-0.14049321781596777,0.07508056317700068,-0.013246906106243744,-0.010857062471974217,5.0
0.5281636326967946,-0.21102223097202408,-0.11561930136590144,0.08899824991009328,-0.010741325651345454,-0.033731477880069756,5.0
0.5371368862056386,-0.22027863771589856,-0.112510055006398,0.09073796008864092,-0.004727932559589561,-0.02981014895502094,5.0
0.5371368862056386,-0.20176578372066134,-0.13116547873745715,0.10813506806294738,-0.01976141538447923,-0.03699925065573475,5.0
0.5461101397144806,-0.20176578372066134,-0.11872849329944296,0.09943651363373487,-0.024271460155546182,-0.018699719201114233,5.0
0.5461101397144806,-0.1601118521045055,-0.1498209024685163,0.09827670743744882,-0.02276811164385737,-0.018699719201114233,5.0
0.5461101397144806,-0.21102223097202408,-0.1467116561090126,0.10523554991987655,-0.006732396732508323,-0.010203508315403922,5.0
0.5281636326967946,-0.19250937697678722,-0.11561930136590144,0.11451400656311352,-0.009237977330656514,-0.021967492848635146,5.0
0.5281636326967946,-0.19713756009498,-0.11872849329944296,0.10233603177680571,-0.007734629200967442,-0.035692142342594164,5.0
0.5281636326967946,-0.18788115335110545,-0.112510055006398,0.10465564593761494,-0.021264763896168038,-0.02392815706205786,5.0
0.5236770059423735,-0.18325292972542412,-0.10940080864689451,0.10697526186666134,-0.01725583478633104,-0.018046164421789714,5.0
0.5371368862056386,-0.1786247060997427,-0.10940080864689451,0.11683362249215991,-0.03279043327245065,-0.03699925065573475,5.0
0.5371368862056386,-0.1786247060997427,-0.10940080864689451,0.09885661141971042,-0.02176587955739799,-0.03177081341754534,5.0
0.550596766468902,-0.19250937697678722,-0.12494698601844996,0.1174135264744215,-0.009739093373886204,-0.027849485488903293,5.0
0.5461101397144806,-0.19250937697678722,-0.10629156228739108,0.1174135264744215,0.0027888084708555345,-0.023274602158182497,5.0
0.5371368862056386,-0.19713756009498,-0.1000730695683839,0.10987477824149504,0.00579550549423316,-0.040920579580783566,5.0
0.5461101397144806,-0.19250937697678722,-0.11561930136590144,0.11045468222375664,0.00579550549423316,-0.020660383352261526,5.0
0.5461101397144806,-0.20176578372066134,-0.14360246417547126,0.11161449018827983,-0.008736861287426824,-0.03177081341754534,5.0
0.5326502594512162,-0.19713756009498,-0.1342747250969606,0.11509391054537513,-0.013748022197223401,-0.030463704107997994,5.0
0.5281636326967946,-0.19250937697678722,-0.12805623237795363,0.10001641761599647,-0.011242441694575145,-0.025888821026378888,5.0
0.5461101397144806,-0.1786247060997427,-0.13116547873745715,0.10117622558051967,0.0032899248960849637,-0.045495461665995905,5.0
0.5371368862056386,-0.1739965229815499,-0.11872849329944296,0.09247767115130714,-0.003224584047900751,-0.02262104750340882,5.0
0.5191903791879519,-0.1647400757301868,-0.12805623237795363,0.08551882778476085,-0.007233513157737752,-0.040267024427806504,5.0
0.5236770059423735,-0.1739965229815499,-0.14360246417547126,0.08899824991009328,-0.015251370422412407,-0.040920579580783566,5.0
0.5281636326967946,-0.1786247060997427,-0.12805623237795363,0.09363747823171176,-0.008235745244197132,-0.02850303964547359,5.0
0.5236770059423735,-0.1786247060997427,-0.12805623237795363,0.10001641761599647,-0.00021788778852260978,-0.009549953162426865,5.0
0.5236770059423735,-0.18788115335110545,-0.12805623237795363,0.10291593575906731,0.004793272643774299,-0.02392815706205786,5.0
0.5371368862056386,-0.18788115335110545,-0.12805623237795363,0.09189776716904555,0.007298853241922481,-0.009549953162426865,5.0
0.550596766468902,-0.1739965229815499,-0.1498209024685163,0.09769680345518722,-0.00021788778852260978,-0.02719593033592624,5.0
0.5371368862056386,-0.1601118521045055,-0.14360246417547126,0.10407574372359052,0.0012854607231662016,-0.05595233813518823,5.0
0.5371368862056386,-0.16936829935586858,-0.112510055006398,0.10523554991987655,-0.0007190034497525601,-0.02523526637160521,5.0
0.5461101397144806,-0.1786247060997427,-0.112510055006398,0.11045468222375664,-0.002723468386670798,-0.02850303964547359,5.0
0.5371368862056386,-0.18788115335110545,-0.112510055006398,0.11451400656311352,-0.01675471874310135,-0.015431945553593323,5.0
0.5326502594512162,-0.18788115335110545,-0.112510055006398,0.10697526186666134,0.0022876920456261053,-0.031117259260975055,5.0
0.5371368862056386,-0.1786247060997427,-0.12183773965894647,0.10059632159825807,0.0037910413213143985,-0.02523526637160521,5.0
0.5461101397144806,-0.16936829935586858,-0.12183773965894647,0.11161449018827983,0.004793272643774299,-0.033731477880069756,5.0
0.5550833932233226,-0.1786247060997427,-0.11872849329944296,0.10581545390213815,0.018323406956975166,-0.0350385871896171,5.0
0.5371368862056386,-0.1647400757301868,-0.12805623237795363,0.11335420213506461,-0.002723468386670798,-0.021313938069310624,5.0
0.5326502594512162,-0.1601118521045055,-0.12805623237795363,0.08029969559139558,-0.00021788778852260978,-0.016739055112242364,5.0
0.5461101397144806,-0.16936829935586858,-0.11872849329944296,0.07855998480501641,0.007799969667151919,-0.025888821026378888,5.0
0.5461101397144806,-0.16936829935586858,-0.11872849329944296,0.07276094901619143,0.0022876920456261053,-0.02262104750340882,5.0
0.54162351296006,-0.1601118521045055,-0.10940080864689451,0.07392075609659605,-0.002723468386670798,-0.0075892886999024585,5.0
0.5371368862056386,-0.1554836689863127,-0.12494698601844996,0.07450065963679836,-0.007734629200967442,0.01005668847359691,5.0
0.5371368862056386,-0.1739965229815499,-0.12805623237795363,0.07392075609659605,-0.013748022197223401,0.0028675857764763465,5.0
0.5371368862056386,-0.1601118521045055,-0.10940080864689451,0.08841834592783168,-0.00222235196144137,-0.02392815706205786,5.0
0.5685432734865895,-0.20176578372066134,-0.10629156228739108,0.08667863486516546,-0.010240209608115764,-0.01935327391816333,5.0
0.550596766468902,-0.1647400757301868,-0.11561930136590144,0.08029969559139558,-0.010240209608115764,-0.03177081341754534,5.0
0.5461101397144806,-0.1647400757301868,-0.10629156228739108,0.08841834592783168,-0.008736861287426824,-0.01935327391816333,5.0
0.5326502594512162,-0.1554836689863127,-0.11872849329944296,0.07508056317700068,-0.015752486656641966,-0.004321514927830701,5.0
0.5281636326967946,-0.18325292972542412,-0.12805623237795363,0.09479728531211638,-0.01675471874310135,-0.0036679607712604098,5.0
0.5461101397144806,-0.1786247060997427,-0.1342747250969606,0.09595709327663958,-0.008736861287426824,-0.014778390898819648,5.0
0.5550833932233226,-0.16936829935586858,-0.11872849329944296,0.09305757513356874,-0.013246906106243744,-0.0075892886999024585,5.0
0.5461101397144806,-0.1786247060997427,-0.12805623237795363,0.09537718929437798,-0.01725583478633104,-0.020660383352261526,5.0
0.5595700199777431,-0.1647400757301868,-0.12494698601844996,0.09537718929437798,-0.01174355783330477,-0.004321514927830701,5.0
0.5550833932233226,-0.14622722173494995,-0.09696385042186138,0.08899824991009328,-0.01675471874310135,-0.005628625233784815,5.0
0.5461101397144806,-0.12771436773971265,-0.08452689219682825,0.09421738132985479,-0.02276811164385737,-0.012817726934498622,5.0
0.54162351296006,-0.1554836689863127,-0.1000730695683839,0.07392075609659605,-0.026275924328464945,-0.005628625233784815,5.0
0.5550833932233226,-0.1554836689863127,-0.10629156228739108,0.07971979199593586,-0.015251370422412407,0.0002533671573816424,5.0
0.5550833932233226,-0.1554836689863127,-0.112510055006398,0.07044133485538219,-0.02026253104570918,0.0048282512354075125,5.0
0.5371368862056386,-0.1554836689863127,-0.11872849329944296,0.07218104503392983,-0.03329154969768009,0.0002533671573816424,5.0
0.550596766468902,-0.1739965229815499,-0.10940080864689451,0.07566046671720299,-0.02226699598262742,0.0002533671573816424,5.0
0.550596766468902,-0.1739965229815499,-0.10940080864689451,0.06580210564964513,-0.024271460155546182,0.014631570558809258,5.0
0.54162351296006,-0.16936829935586858,-0.112510055006398,0.05246432289881413,-0.028781504926613136,0.004174696082430464,5.0
0.5461101397144806,-0.18788115335110545,-0.11872849329944296,0.06174278131028824,-0.02176587955739799,0.00940313332061986,5.0
0.5461101397144806,-0.18788115335110545,-0.11872849329944296,0.06464229856924052,-0.026275924328464945,-0.00040018799559541436,5.0
0.5550833932233226,-0.1786247060997427,-0.10629156228739108,0.07450065963679836,-0.029783737777071998,0.003521140929453392,5.0
0.5550833932233226,-0.1786247060997427,-0.10940080864689451,0.08319921362395159,-0.02276811164385737,-0.005628625233784815,5.0
0.5550833932233226,-0.1786247060997427,-0.10940080864689451,0.09537718929437798,-0.02226699598262742,-0.004321514927830701,5.0
0.550596766468902,-0.1739965229815499,-0.12494698601844996,0.0779800812095567,-0.027779272076154278,0.003521140929453392,5.0
0.5550833932233226,-0.1739965229815499,-0.09696385042186138,0.06696191273004976,-0.02076364747093861,-0.009549953162426865,5.0
0.5371368862056386,-0.1647400757301868,-0.10940080864689451,0.07102123795352522,-0.0433138705622739,-0.0010537411557589443,5.0
0.5371368862056386,-0.16936829935586858,-0.112510055006398,0.07392075609659605,-0.02276811164385737,-0.0030144066146901146,5.0
0.5371368862056386,-0.1739965229815499,-0.11561930136590144,0.08609873176702244,-0.0433138705622739,-0.006282179390355108,5.0
0.5461101397144806,-0.19713756009498,-0.12494698601844996,0.08725853884742706,-0.035797130295828275,-0.008896398009449807,5.0
0.5371368862056386,-0.18788115335110545,-0.12183773965894647,0.08377911716415391,-0.021264763896168038,-0.016739055112242364,5.0
0.5326502594512162,-0.1786247060997427,-0.112510055006398,0.09363747823171176,-0.027278157178923804,-0.012164171781521566,5.0
0.5371368862056386,-0.1739965229815499,-0.112510055006398,0.08377911716415391,-0.028781504926613136,0.0028675857764763465,5.0
0.54162351296006,-0.18788115335110545,-0.11872849329944296,0.09073796008864092,-0.033792666122909515,-0.004321514927830701,5.0
0.550596766468902,-0.1786247060997427,-0.112510055006398,0.09421738132985479,-0.0433138705622739,0.0009069223103586991,5.0
0.5461101397144806,-0.18325292972542412,-0.11561930136590144,0.08725853884742706,-0.04080829149212466,-0.0017072963087360012,5.0
0.5371368862056386,-0.19713756009498,-0.10940080864689451,0.09827670743744882,-0.03930494221643637,-0.0030144066146901146,5.0
0.5326502594512162,-0.19250937697678722,-0.11561930136590144,0.09247767115130714,-0.03880382579120695,-0.0036679607712604098,5.0
0.5371368862056386,-0.18788115335110545,-0.1342747250969606,0.09131786407090252,-0.04431610341273275,-0.0036679607712604098,5.0
0.5191903791879519,-0.18788115335110545,-0.13116547873745715,0.09827670743744882,-0.04882614818379971,-0.011510617624951272,5.0
0.5371368862056386,-0.19250937697678722,-0.11872849329944296,0.11103458620601823,-0.047823915333340856,-0.020660383352261526,5.0
0.5461101397144806,-0.1786247060997427,-0.14360246417547126,0.10059632159825807,-0.031788201949990755,-0.010857062471974217,5.0
0.5371368862056386,-0.16936829935586858,-0.13738397145646408,0.11161449018827983,-0.050329497459488,-0.005628625233784815,5.0
0.5236770059423735,-0.1739965229815499,-0.13116547873745715,0.10291593575906731,-0.04732279890811141,0.00809602500747928,5.0
0.5326502594512162,-0.1601118521045055,-0.1498209024685163,0.09131786407090252,-0.04181052434258352,-0.0030144066146901146,5.0
0.5371368862056386,-0.1739965229815499,-0.1342747250969606,0.09363747823171176,-0.049327264609029135,0.0015604774633357632,5.0
0.5371368862056386,-0.18325292972542412,-0.1342747250969606,0.09885661141971042,-0.057345121300704176,-0.005628625233784815,5.0
0.54162351296006,-0.18788115335110545,-0.13738397145646408,0.08957815300823631,-0.05083061388471742,0.0028675857764763465,5.0
0.54162351296006,-0.18325292972542412,-0.13738397145646408,0.08087959924211272,-0.029783737777071998,0.006135359548548092,5.0
0.5371368862056386,-0.20176578372066134,-0.12494698601844996,0.0901580569904979,-0.02026253104570918,0.01659223601774042,5.0
0.5326502594512162,-0.18788115335110545,-0.14360246417547126,0.09421738132985479,-0.03279043327245065,-0.0010537411557589443,5.0
0.5326502594512162,-0.21102223097202408,-0.12494698601844996,0.09305757513356874,-0.030284852674302472,-0.0075892886999024585,5.0
0.5371368862056386,-0.19713756009498,-0.12805623237795363,0.09479728531211638,-0.03730047804351762,-0.009549953162426865,5.0
0.5371368862056386,-0.18788115335110545,-0.1498209024685163,0.08377911716415391,-0.025774807903235514,0.006135359548548092,5.0
0.54162351296006,-0.18788115335110545,-0.16536713426603383,0.08493892424455853,-0.042812754137044474,0.005481804395571046,5.0
0.54162351296006,-0.20176578372066134,-0.17469481891858235,0.09189776716904555,-0.048325031758570273,0.0002533671573816424,5.0
0.5371368862056386,-0.1786247060997427,-0.1467116561090126,0.09537718929437798,-0.042812754137044474,0.005481804395571046,5.0
0.5371368862056386,-0.1786247060997427,-0.1467116561090126,0.08609873176702244,-0.028280388501383705,0.00809602500747928,5.0
0.5236770059423735,-0.19250937697678722,-0.12805623237795363,0.07450065963679836,-0.026777040753694373,0.00809602500747928,5.0
0.5371368862056386,-0.20176578372066134,-0.14360246417547126,0.08377911716415391,-0.03830271089397647,0.015938680864763372,5.0
0.5371368862056386,-0.20176578372066134,-0.14360246417547126,0.09479728531211638,-0.033792666122909515,0.0028675857764763465,5.0
0.5236770059423735,-0.19250937697678722,-0.1342747250969606,0.08609873176702244,-0.04882614818379971,0.0015604774633357632,5.0
0.5236770059423735,-0.20176578372066134,-0.1467116561090126,0.09363747823171176,-0.029783737777071998,-0.0030144066146901146,5.0
0.5236770059423735,-0.20176578372066134,-0.15603939518752322,0.08783844194557008,-0.02226699598262742,0.0009069223103586991,5.0
0.5326502594512162,-0.20176578372066134,-0.14360246417547126,0.08551882778476085,-0.03279043327245065,0.00874957816764279,5.0
0.5236770059423735,-0.1786247060997427,-0.1498209024685163,0.08029969559139558,-0.04581945268842104,-0.014778390898819648,5.0
0.5236770059423735,-0.1786247060997427,-0.1498209024685163,0.07971979199593586,-0.03329154969768009,0.011363798779551028,5.0
0.5371368862056386,-0.20176578372066134,-0.15603939518752322,0.08029969559139558,-0.03279043327245065,-0.012817726934498622,5.0
0.5371368862056386,-0.20639400734634275,-0.15914864154702665,0.08029969559139558,-0.04481721983796218,0.002214032616312816,5.0
