acc_x,acc_y,acc_z,gyro_x,gyro_y,gyro_z,activity
-0.66782797515477,0.012871311385533489,1.6208833639849267,-0.07814720561099076,0.12569814757896558,-0.1528202606866026,0.0
-0.6713339732515312,0.004301010879700311,1.6454443485470374,-0.06268300799176002,0.07218706359959008,-0.13115998353746194,0.0
-0.6713339732515312,1.5861212797674263e-05,1.6372573536930006,-0.0026819004062407104,0.061170077415243426,-0.06877839718343774,0.0
-0.6538039827677258,-0.017124739798868673,1.6454443485470374,0.034432185573935244,0.06274393395557491,-0.08957226282391634,0.0
-0.6608159789612481,-0.01283959013196604,1.6618183382551108,0.012163734363056199,-0.05922987113632519,-0.0627135219065089,0.0
-0.6643219770580091,-0.034265338466479216,1.6481733468317161,-0.11464273251349813,-0.13792264056505696,0.00400011967920441,0.0
-0.7134058276708172,-0.029980188799576583,1.6345283554083214,-0.15546822388526624,-0.42042968799710995,0.15302280109029515,0.0
-0.6748399713482923,-0.029980188799576583,1.6618183382551108,-0.004537605931235709,-0.42121664506119694,0.10710302283343913,0.0
-0.629262118832245,-0.017124739798868673,1.6317993571236427,0.2657766511409712,-0.015161915301281465,-0.01072886573087115,0.0
-0.629262118832245,-0.017124739798868673,1.6317993571236427,0.26763236421049674,-0.027752759525642993,-0.015927332140990798,0.0
-0.6538039827677258,-0.017124739798868673,1.6072383725615322,0.16866146323367387,-0.37872253766819425,0.08111069342469379,0.0
-0.6257561207354838,1.5861212797674263e-05,1.618154365700248,0.15443439508657603,-0.5117133289444411,0.06984734909579242,0.0
-0.5977081359613955,0.008586160546602948,1.6099673708462112,-0.02062037205879811,-0.1756951783370651,-0.1502210261606163,0.0
-0.6082261302516786,0.008586160546602948,1.5908643828534585,-0.013197557503348578,0.08241712151377098,-0.19874003894345865,0.0
-0.6432861112192891,0.004301010879700311,1.618154365700248,0.015256575018581903,-0.00021028806604278364,-0.3624916978390662,0.0
-0.657309980864487,-0.008554438121007616,1.618154365700248,0.017730847165775953,-0.43538133472823287,-0.28451472546394774,0.0
-0.5942022606064806,-0.008554438121007616,1.618154365700248,0.08886617847060216,-0.4046911609856901,-0.18834310083951353,0.0
-0.5942022606064806,-0.008554438121007616,1.618154365700248,0.17299143524746508,-0.09778932758052535,-0.24465981720031463,0.0
-0.5836842663161976,0.021441611305352715,1.5744905842249457,0.09505185978165359,0.1178288744752819,-0.2645872713321311,0.0
-0.6117321283484398,0.004301010879700311,1.577219391430064,-0.04845593984466218,-0.10093704066118829,-0.12336229052691469,0.0
-0.6222501226387229,-0.004269288454104952,1.5935933811381378,-0.12886978557153503,-0.3244245158206792,-0.0072632223380756835,0.0
-0.6187441245419617,1.5861212797674263e-05,1.577219391430064,-0.1270140875910705,-0.16389126388255273,-0.006396812150340047,0.0
-0.5942022606064806,-0.004269288454104952,1.5935933811381378,-0.06330157650009169,-0.05372137324516501,-0.006396812150340047,0.0
-0.6012141340581567,1.5861212797674263e-05,1.577219391430064,-0.06577584298888789,-0.09228083448835202,0.016129872544683375,0.0
-0.6117321283484398,-0.02569503913267395,1.61269636913089,-0.01134185197835358,-0.43302054031976184,0.014397050848285641,0.0
-0.6958759599288583,-0.034265338466479216,1.670005142029587,0.3047464445322748,-0.45348065614812355,0.5524382212634059,0.0
-0.6993819580256195,1.5861212797674263e-05,1.5963223794228165,0.19649702347500747,-0.8020896590781511,0.6104877606415312,0.0
-0.6993819580256195,1.5861212797674263e-05,1.5963223794228165,0.1272174033535741,-0.8099589225838612,0.5073848650826235,0.0
-0.5836842663161976,-0.10282773782503304,1.5362846082394408,0.015256575018581903,-0.8044504534866223,0.7673081908723116,0.0
-0.5731662720259145,-0.1328237948695747,1.5935933811381378,0.11051606117314955,-1.0798751368892097,1.004704754032316,0.0
-0.5486242853485873,-0.07283169015671458,1.670005142029587,0.4315528906613704,-1.1192215312015492,1.0878801743245838,0.0
-0.4399385898326877,1.5861212797674263e-05,1.6645473365397896,0.7878481100354352,-0.821762817842426,0.7265867971281355,0.0
-0.42591459744564336,1.5861212797674263e-05,1.6072383725615322,0.8212508245744061,-0.1882860114637695,0.09064121473627101,0.0
-0.49252843854225675,0.14142581194086373,1.585406386284101,0.5082553555163752,1.110144751296121,-0.7419796638803607,0.0
-0.629262118832245,0.24426941332275023,1.5881353845687798,0.09938183556771003,1.1306048671244828,-0.7896322651545407,0.0
-0.6818519675418142,0.10714460991753103,1.560845592801551,-0.35773998276364233,0.8559670640021921,-0.8000292455281324,0.0
-0.41189072780044544,0.021441611305352715,1.579948389714743,-0.13319977267438718,2.056031975352866,-2.5657746532269052,0.0
-0.3557948809941151,0.03858221114499117,1.6263413605542847,-0.24825342468971162,1.439867552525961,-1.5910624774030993,0.0
-0.29969903418778476,-0.12425348615954622,1.6509023451163949,-0.1845409211432632,0.46014244164601,-1.0972081922184092,0.0
-0.29969903418778476,-0.12425348615954622,1.6509023451163949,-0.34042009470847756,-0.8674046383160915,-0.2715185634014279,0.0
-0.345276886703832,-0.11568318682574096,1.61269636913089,-0.07752863710265907,-0.5101394532081621,-0.0531830005949317,0.0
-0.4539625822197317,-0.14139409420338,1.5881353845687798,-0.041033125289212644,-0.37242711150686825,-0.5418387638905916,0.0
-0.6222501226387229,-0.05997624115600664,1.5881353845687798,0.049277819871699,0.23508110994618756,-0.39194966799875414,0.0
-0.7554778048319497,0.03858221114499117,1.6072383725615322,0.14268160097280483,0.7206155167093697,-0.16668283425778443,0.0
-0.6713339732515312,0.09000401124992045,1.6154253674155692,0.2756737472742779,1.4563929598176777,-0.2897131945159201,0.0
-0.5731662720259145,0.012871311385533489,1.5990513777074955,0.14763014903945815,0.7182547223008986,-0.32436963372758065,0.0
-0.657309980864487,0.008586160546602948,1.5472006013781565,0.034432185573935244,-0.4172819749164469,0.04125579044476661,0.0
-0.8606575022510886,0.047152511064810394,1.533555609954762,0.0393807303398565,-0.6738204182269514,0.14522509751233637,0.0
-0.7379478143481449,0.11142976427254526,1.618154365700248,-0.01010471873395548,-0.22291083615511467,-0.1328928065547861,0.0
-0.6993819580256195,0.12857036294015584,1.6454443485470374,-0.0942299792830836,0.007658988636881049,-0.047984536826664974,0.0
-0.6608159789612481,0.08571886158301782,1.5908643828534585,-0.4727936800461495,-0.31419445790649836,0.22580132554826443,0.0
-0.6012141340581567,0.047152511064810394,1.5935933811381378,-0.576713068733382,-0.5990622997470222,0.18594641728463143,0.0
-0.5521302834453483,-0.01283959013196604,1.6290703588389637,-0.4195968034186871,-0.2937343420781364,-0.07224404321808613,0.0
-0.629262118832245,-0.017124739798868673,1.6290703588389637,-0.27114045195345265,-0.07496842214267942,-0.18834310083951353,0.0
-0.7554778048319497,0.021441611305352715,1.61269636913089,-0.2847489440476884,0.03756224370723176,-0.08783943980659216,0.0
-0.7204178238643395,1.5861212797674263e-05,1.5935933811381378,-0.44866950067668393,0.1768484563458176,0.056851187033272646,0.0
-0.6432861112192891,-0.017124739798868673,1.6072383725615322,-0.49135069002891657,-0.0017841434066275523,-0.024591441943905907,0.0
-0.5486242853485873,-0.06854654048981194,1.6045093742768533,-0.28722321808101514,0.185504657719667,-0.3061750026130883,0.0
-0.5486242853485873,-0.06854654048981194,1.6045093742768533,-0.09546711629974694,0.36964575776276587,-0.2992437105437917,0.0
-0.762489801025472,-0.004269288454104952,1.6045093742768533,-0.05835302843343837,0.5750339115023658,-0.20393850799543115,0.0
-0.7414538124449056,-0.029980188799576583,1.5990513777074955,-0.2884603701867394,0.12727200411929707,-0.025457850810715107,0.0
-0.7414538124449056,-0.029980188799576583,1.5990513777074955,-0.48145359389560993,-0.39446110307150917,0.11316789282666218,0.0
-0.6082261302516786,-0.08140198949051984,1.6045093742768533,-0.41835965131296277,-0.3842310451573281,0.0733129951304408,0.0
-0.6187441245419617,-0.1328237948695747,1.6017803759921745,-0.20990220735127002,-0.16467818255474473,0.052519132131815104,0.0
-0.6187441245419617,-0.1328237948695747,1.6017803759921745,0.017730847165775953,0.14301055992463815,0.0005344759561773323,0.0
-0.6713339732515312,-0.11996833649264359,1.5935933811381378,0.10927892415648621,0.17133996805263116,0.001400886804376201,0.0
-0.6362741150257669,-0.06426139082290931,1.6618183382551108,0.06350488660419741,0.12333737236644209,-0.008129633846737776,0.0
-0.6362741150257669,-0.06426139082290931,1.6618183382551108,0.014019438001918566,-0.12139715648955011,-0.02199220741791964,0.0
-0.5626482777356314,-0.07283169015671458,1.6563603416857529,0.19216705146121627,-0.17412132179673362,-0.0003319348920215339,0.0
-0.5521302834453483,-0.09854258815813041,1.6509023451163949,0.32392204565696525,-0.14500499499654865,0.1001717307641424,0.0
-0.5942022606064806,-0.09854258815813041,1.5935933811381378,0.3393862508207263,-0.03955667637964883,0.07504581814776495,0.0
-0.657309980864487,-0.201386189540017,1.618154365700248,0.30041645742942275,-0.06709914424000887,0.14782433203832263,0.0
-0.6222501226387229,-0.09425743849122775,1.618154365700248,0.19649702347500747,-0.05372137324516501,0.21713721046164353,0.0
-0.5871902644129585,-0.04283563780028451,1.6754631385989447,0.12412456081191577,-0.2504533160129419,0.24746158156258188,0.0
-0.6397801131225279,-0.02569503913267395,1.6972951248763761,-0.030517460647574303,-1.039741862296573,0.6200182978042258,0.0
-0.5591422796388704,-0.05997624115600664,1.6618183382551108,-0.13567404670771382,-1.7298774081474255,0.6373465279774676,0.0
-0.5626482777356314,-0.06854654048981194,1.569032587655588,-0.051548782386320505,-0.47236693463210144,0.5411748822182104,0.0
-0.5521302834453483,-0.06854654048981194,1.5581165945168722,-0.3094916843809552,-0.16861282390557342,0.9171972022248565,0.0
-0.8255976440253245,0.05572281157064357,1.4544148507786336,-0.7517678434232864,-0.7753341170884633,1.2932196067707948,0.0
-0.7204178238643395,0.05572281157064357,1.5526585979475143,-0.3565028608360398,-0.4408898422173667,1.1554602085957573,0.0
-0.5275884195098676,-0.09854258815813041,1.6781921368836237,0.1253616978285791,-0.3039643999923175,0.9865101229178236,0.0
-0.4329265936391655,-0.11996833649264359,1.5526585979475143,-0.04041455678088096,-0.43774212913670363,0.6338808819428192,0.0
-0.4785045688970591,-0.1756752915386011,1.4789757398009638,-0.1499010997657508,-0.34409769378090166,0.5411748822182104,0.0
-0.4890224404454958,-0.201386189540017,1.470788744946927,-0.2290778235650212,-0.09542854277002812,0.3462324301455906,0.0
-0.5170704252195841,-0.201386189540017,1.533555609954762,-0.10783847137731933,0.454633934156876,0.21627078838556985,0.0
-0.5381062910583042,-0.1971010304968911,1.560845592801551,-0.26000623389254357,0.16740531710382872,0.1374274045017891,0.0
-0.5626482777356314,-0.21852678820762747,1.5935933811381378,-0.29031605307814284,-0.1418572819158857,0.20847309537502262,0.0
-0.5135644271228232,-0.2656634439197797,1.6563603416857529,0.03566932164753227,-0.07654227868301092,0.1980761784059007,0.0
-0.506552430929301,-0.31280009963193184,1.670005142029587,0.4198001116366601,0.30039610838007547,0.10970225735942538,0.0
-0.5381062910583042,-0.24423768620904332,1.6809211351683027,0.7377440985832225,0.18314388250714356,0.23619824251738633,0.0
-0.5766722701226757,-0.10711288749193565,1.6645473365397896,0.9585729278006097,-0.09778932758052535,0.32717139808984796,0.0
-0.5731662720259145,-0.09854258815813041,1.7163981128691284,0.028246504262883818,0.8488847575605694,0.2777859737983435,0.0
-0.49252843854225675,-0.201386189540017,1.6863791317376606,0.4903168763192873,0.7457972213546733,0.40081632348906765,0.0
-0.7449598105416668,-0.017124739798868673,1.566303589370909,0.7977452061687418,1.420194316977896,0.8842736283001664,0.0
-0.7695016744771477,-0.017124739798868673,1.4762467415162848,0.6115562134179283,3.251375144319017,1.3209447750479817,0.0
-0.6362741150257669,0.15428126094157166,1.3971059823401566,-0.46042227970139427,3.3324287273521684,1.4846964550784127,0.0
-0.5731662720259145,0.29140605028245603,1.448956854209276,-1.9295215590118544,1.5783667745075516,1.268093683587006,0.0
-0.5626482777356314,0.10714460991753103,1.5417426048087988,-2.649534850038086,0.4247306790865251,2.442080442998623,0.0
-0.5451182872518261,-0.28280404258739045,1.6263413605542847,-2.452830230368287,-0.33071994198200527,4.716409247770871,0.0
-0.510058429026062,-0.5441982003971209,1.566303589370909,-0.3775341750302556,0.10051646212960931,7.918663647607175,0.0
-0.2891810398975017,-0.9041508099218352,1.285217243747881,2.8012872541840554,-0.4574153262928736,11.21189179479099,0.0
-0.4399385898326877,-0.47563576822178577,1.0887298449498999,4.867923425850747,0.2594758767233518,13.004496772948979,0.0
-0.7800196687674309,0.03858221114499117,1.301591233455955,3.1792324996067483,2.9342433489794093,11.608708413701992,0.0
-1.1551607286697847,0.26998031132416606,1.880137627790743,-0.5872287560086116,4.657614974513904,8.117071957062675,0.0
-1.2603404260889235,-0.2785188835442643,2.174868869297385,-3.0120156186939195,4.109913435965076,6.033353557387151,0.0
-1.204244579282593,-0.7413150663221957,2.1175599053191267,-3.7233689958706906,3.4347293064939777,6.670165730933673,0.0
-1.232292502685758,-1.0027092428843725,1.877408629506064,-3.1542863906992626,1.2494310071255887,8.982616346199526,0.0
-1.319942270992015,-1.024134963090216,1.7000241231610551,-2.324786632133467,-0.698215165808168,9.709535232107616,0.0
-1.4356399627014367,-1.0455607583058455,1.5826773879994218,-1.6264231257308863,-1.5111114834129815,8.843990842970763,0.0
-1.4426519282094972,-1.1741152295604782,1.5990513777074955,-0.7554792695623375,-1.4583874332814832,6.084472100583501,0.0
-1.4426519282094972,-1.1741152295604782,1.5990513777074955,-0.7288808161595455,-1.4977337508100328,5.582819995579326,0.0
-1.4777118478061844,-1.388372731658056,1.6645473365397896,-0.8798114416581063,-1.7188604699529477,4.815179885005648,0.0
-1.4671938842013628,-1.4483648082422467,1.6645473365397896,-1.5280708158959864,-2.6970116283128305,4.6141728376925055,0.0
-1.5092657693061107,-1.4397944901559954,1.6645473365397896,-2.5907708040239257,-3.2486478753983006,4.456485752902595,0.0
-1.488229811411006,-1.671192628426077,1.6836501334529816,-3.080058109343219,-4.9783151574454925,3.5554186292869474,0.0
-1.4075920392982715,-1.9240164118922165,1.6509023451163949,-2.986035877145537,-5.17740784663187,1.7021655007021308,0.0
-1.4005800431047493,-1.9540125251940976,1.6045093742768533,-2.3464364167571174,-4.99169304361602,-0.058381469646904244,0.0
-1.344484196298419,-1.8597391762649,1.4789757398009638,-2.136123154102472,-5.677893804146438,-0.2195338940165256,0.0
-1.2112565754761149,-1.8468836991355224,1.4243958696471655,-1.9276658459423286,-5.546476811822679,0.20240822538179956,0.0
-1.1271128052666195,-1.8768798124374038,1.416208970332909,-1.6554958833451268,-4.642297006838115,0.8010982080078985,0.0
-1.08504088947641,-1.8340283720257167,1.353442105325074,-1.4080686007249479,-3.6940491419404777,1.2013800079874366,0.0
-1.1446427343795016,-1.8168877358532132,1.358900101894432,-1.4284813237772405,-3.025947549262373,0.899002571110364,0.0
-1.092052885669932,-1.7268995459671417,1.2770303444336248,-1.8862217483395767,-3.370621690088175,0.08717556870162264,0.0
-1.035957038863602,-1.774036295441526,1.2442823650174777,-2.3600448183169878,-3.6224387365412114,-0.7263842778592662,0.0
-1.0184270483797966,-1.8468836991355224,1.2169924777104686,-2.320456675208737,-2.349189659230679,-0.7679720302750465,0.0
-0.944801272460584,-1.9840086384959785,1.1460387133883772,-2.0451938172581623,-1.1884712189761346,-0.4820564226299653,0.0
-0.9167533490574189,-2.0268600789076654,1.0969168398039368,-1.618381742667105,-0.42515127681405174,0.06291606231020148,0.0
-0.9027293566703748,-2.091137314534982,1.031420976511423,-0.7567163914899399,0.0037243508852924925,0.4216101996969577,0.0
-0.9938851230733924,-2.241117581005244,0.9495512190506159,-0.32062590244186423,-0.03876974810948309,0.46146510796059065,0.0
-0.9167533490574189,-2.3353909299344413,0.9386352259119003,-0.21856216646791327,-0.2740611449219667,-0.04451889079201661,0.0
-0.906235354767136,-2.2711135442875534,0.9386352259119003,-0.22351071453456672,-0.1182494530068609,0.056851187033272646,0.0
-0.8781874313639706,-2.3611017341736247,0.919532333458928,-0.20804650937080565,-0.8115327599282453,-0.17621336085306744,0.0
-0.944801272460584,-2.3611017341736247,0.9277192327731847,-0.16783957896283858,-1.2018489515790836,-0.183144631787541,0.0
-0.8466335098640446,-2.5539335910751455,0.9713831097882671,-0.14433399073529624,-0.920915722295467,-0.4413351134250818,0.0
-0.8501395079608053,-2.511082000643887,1.0041310892044142,-0.38743124098544035,0.6529397430629582,-0.5487700559598883,0.0
-0.8291035193802392,-2.4425196059734446,0.946822220765937,-0.743107929573826,0.885870357464438,-0.80262849062153,0.0
-0.944801272460584,-2.3782423703461286,0.8349334821736618,-1.3709545807594135,-0.8965209747142504,-0.425739685134341,0.0
-0.944801272460584,-2.3782423703461286,0.8349334821736618,-1.8441591199511451,-2.7882952692601597,0.6226175428976237,0.0
-0.7414538124449056,-2.4853710463851315,0.919532333458928,-1.6227116995918354,-2.0666825926026786,0.3176408820619764,0.0
-0.6467921093160501,-2.596784881467261,0.946822220765937,-1.0128036483158231,-0.516434879369488,-0.5929570111994201,0.0
-0.5451182872518261,-2.7210544937179106,0.919532333458928,-0.27175901291725385,0.542769862023544,-0.8728077699861017,0.0
-0.5451182872518261,-2.7210544937179106,0.919532333458928,0.35361333405688516,1.2573002706312983,-0.4933197616751608,0.0
-0.6152381264452008,-2.5325077958595164,0.8049145965819737,0.4074287414700268,0.16740531710382872,0.7941669159386017,0.0
-0.797549659251236,-2.4553750831028225,0.7612507195668914,-0.3769155838883325,-1.6338723319507324,1.5886657515785707,0.0
-0.8431275117672833,-2.369672052259877,0.7912696051585791,-1.335696153150917,-1.7684369989632582,1.2083113000567332,0.0
-0.8291035193802392,-2.463945401189074,0.856765468451093,-1.7773538115856908,-1.1428293985024691,0.5966251765029378,0.0
-0.7379478143481449,-2.3996681655617573,0.7830827058443226,-2.3476734783284763,-1.3545129400115001,-0.5054495016616068,0.0
-0.6187441245419617,-2.288254180460057,0.6084271500141026,-2.7726297191375227,-2.4979189391264507,-1.636982192255486,0.0
-0.6187441245419617,-2.288254180460057,0.6084271500141026,-2.504789954890024,-3.1526429527691886,-2.298920119907213,0.0
-0.5416122891550652,-2.802472215498159,0.7148578442671298,-0.808676116011678,-1.695252679435818,-1.8007337877466238,0.0
-0.5030464328325401,-2.54964843203202,0.5320153413527632,-0.38062701002738347,-2.1107504989481702,-1.1630554246070817,0.0
-0.5170704252195841,-2.3482462570442473,0.5593052764296623,-0.4758865150432773,-2.770196101407849,-1.1439943502816925,0.0
-0.4890224404454958,-2.4425196059734446,0.570221269568378,-0.21732501436218918,-0.9516058960380098,-1.6075241375565053,0.0
-0.3873487411231183,-2.433949287887193,0.5047254062758639,-0.10041566436640027,-0.4888924187076081,-1.1431279916100885,0.0
-0.3873487411231183,-2.433949287887193,0.5047254062758639,-0.47093796697662393,-1.0302986846626891,-0.26372084925605743,0.0
-0.3873487411231183,-2.433949287887193,0.5047254062758639,-0.5334133184173482,-0.7635302218298985,-0.15801872973857514,0.0
-0.3873487411231183,-2.433949287887193,0.5047254062758639,-0.5334133184173482,-0.7635302218298985,-0.15801872973857514,0.0
-0.35228888289735416,-2.502511682557635,0.46924852411481843,-0.8191918032869078,-0.25753566084645985,0.1920112872778545,0.0
-0.32774689622002673,-2.4768008783184516,0.4337716419537727,-1.4501312291133792,-0.45426761321221054,0.35489654523221165,0.0
-0.345276886703832,-2.4039533246048834,0.3573598332924331,-1.815086362336905,-0.6974282855278711,0.3800224472811774,0.0
-0.3943607373166402,-2.4125234926715637,0.30550898530825893,-1.5064209105598476,-0.1560219811808953,0.3029118969821324,0.0
-0.4644805765100148,-2.425378969800941,0.2891350194851305,-1.0857946266755332,1.0928323869403171,-0.26632009434945525,0.0
-0.3873487411231183,-2.3953830065186317,0.23455517321627728,-1.1464142650467317,0.9984009945204279,-0.3555604057697696,0.0
-0.36280687718763727,-2.3439610980011216,0.18816229791651587,-1.5218851459017306,0.11861580274544764,-0.15801872973857514,0.0
-0.3663127525425518,-2.3053948166325604,0.16087236283961698,-1.5218851459017306,-0.6163747024947211,-0.5253769769282466,0.0
-0.31372290383298274,-2.592499722424135,0.3355278947848919,-0.9688852465016226,0.6198887749119444,-1.0157655738086422,0.0
-0.17348334818807984,-2.8496089649725436,0.41466865396102015,-0.9280598003970372,1.541381097819893,-1.124066917284699,0.0
-0.026231673607808717,-2.879604778235282,0.3873787666540113,-1.5577621042959064,1.1353264559414247,-0.8346856213353231,0.0
0.10699588584357228,-2.943882163882169,0.32461190164617615,-2.556130907201108,0.19416085909351644,-0.5063159026028574,0.0
0.001816188424433531,-2.836753487843166,0.2891350194851305,-3.192637472236155,-0.22291083615511467,0.33670191411771927,0.0
-0.12089349947851047,-2.9224563686665403,0.27549005194668097,-3.1394406861430584,0.017102123079883087,0.874743091137472,0.0
-0.3032050322845457,-2.9310266867527917,0.22909717664691953,-2.8474765312792427,0.6859907112139717,1.4561047590510363,0.0
-0.4434445879294486,-2.7596206250669004,0.08446059000569504,-2.9711901725893353,1.2470702127171176,1.405852997222751,0.0
-0.5556362815421092,-2.6182106766828905,-0.046531055967643134,-3.024386958682432,0.8488847575605694,0.3037782979233829,0.0
-0.6362741150257669,-2.7810464202825296,-0.030157099101369066,-2.756546953009959,0.5718861984217029,-0.9525175865133675,0.0
-0.5801782682194366,-2.875319619192155,-0.04380206365420049,-2.8103625113137096,0.5931332329222568,-1.844054426584198,0.0
-0.5556362815421092,-2.8838899372784077,-0.06836299596799345,-3.430786310221197,0.20753863008836032,-1.6135891554934905,0.0
-0.4995404347357789,-2.875319619192155,-0.11202687596869408,-4.069148709038256,0.7426494698821153,-0.5487700559598883,0.0
-0.4785045688970591,-2.8196128516706627,-0.17752269596974504,-4.476785122148382,0.9094781479815678,0.3193737050793006,0.0
-0.4539625822197317,-2.626780994769142,-0.3958420929876301,-4.3289470902219715,0.45778164723753895,1.0367619692854015,0.0
-0.40487873160692356,-2.6739177442435262,-0.48316984701779503,-3.733265971291508,-0.6572949341514447,1.0073039991257136,0.0
-0.5240824214131063,-2.8667496011450466,-0.48316984701779503,-2.193031607759596,-1.2183744356545902,2.3277141661248733,0.0
-0.66782797515477,-2.9695931181409243,-0.21845758664262116,0.28185941726853375,2.1937443170541595,3.356143961159844,0.0
-0.6222501226387229,-2.9224563686665403,-0.25120549440393297,1.6860090107486994,3.38436589720337,3.5346246685397666,0.0
-0.48201044425197365,-2.5196523187301385,-0.4149450332104924,1.261671300725334,1.2431355809642628,2.8744194582312455,0.0
-0.5521302834453483,-2.219691785789615,-0.43404799731829974,0.45134708292798376,-0.6140139464781451,1.9040392448440473,0.0
-0.5170704252195841,-2.1425590730329205,-0.34672021940318987,-0.3732041879274034,-1.375759936120159,0.7768386434957134,0.0
-0.4644805765100148,-2.2282621038758665,-0.2839534021652449,-1.3152834300986245,-1.6220683599083776,0.38348809331582584,0.0
-0.4644805765100148,-2.2582582171777474,-0.21845758664262116,-0.8439344832639305,-1.7204343840811218,0.6139534066761797,0.0
-0.6888639637353364,-2.463945401189074,-0.11748486059557942,0.5503179839048065,-1.1270907947072593,0.49872077113082597,0.0
-0.8746814332672096,-2.369672052259877,-0.05744702522141377,1.716937360719978,-0.32599837236101076,-1.0625517318719253,0.0
-0.5416122891550652,-2.275398703330679,-0.18298068059663034,0.8558906006847359,-1.7133520008557088,-2.959125161137146,0.0
-0.2961930360910236,-2.3653868932167508,-0.04926004828108579,-0.9206369481189354,-3.708213908391306,-3.998818464295901,0.0
-0.45045658412297074,-2.6053551995535127,0.016235776198392355,-0.603311522136174,-0.26147029259931476,-3.609799749743677,0.0
-0.5626482777356314,-2.5539335910751455,-0.10383989828196158,0.20020843452499745,0.05172694297224138,-2.1065768283886985,0.0
-0.6888639637353364,-2.3225354528050635,-0.07654997290832143,0.8534163568295309,0.459355522973818,-1.2072423375769672,0.0
-0.4785045688970591,-2.3011096575894348,-0.18843866522351566,1.0872351171773524,2.15439784595803,-0.8433497998264138,0.0
-0.38384274302635707,-2.3825275293892543,-0.2075416173888505,-0.9540396023016626,-2.2169857866266245,-3.3065559541950016,0.0
-0.2961930360910236,-2.3996681655617573,-0.20208363276196523,-2.6637617823836357,-3.057424603285212,-3.6366585593492604,0.0
-0.506552430929301,-2.3825275293892543,-0.27303743291147425,-3.0293356878178166,-1.175880366653483,-2.6524157618234683,0.0
-0.3487828848005932,-2.275398703330679,-0.46133790851025386,-3.114079475380357,-0.32521145368881876,-2.129103675557675,0.0
-0.15945935580103554,-2.0697115193193527,-0.7478821312779138,-3.485220399310626,-2.5238875240520513,-2.797972810739406,0.0
-0.15945935580103554,-2.0697115193193527,-0.7478821312779138,-2.5771624024640554,-1.6417415954564425,-3.546551846987697,0.0
-0.005195807769088626,-2.0782818374056045,-0.8297518887387213,-2.062513644957083,-3.184120006792027,-4.031742122759882,0.0
-0.10686950709146616,-2.0654263602762266,-0.720592196201015,-1.1185786897163372,-2.2775792538314126,-4.455416874962124,0.0
-0.10686950709146616,-2.0654263602762266,-0.720592196201015,-0.1022713623468648,-0.4873185813632244,-4.685015787381225,0.0
-0.04025566599485275,-1.9154462438255364,-0.9061636974000606,0.44083142583087587,0.5081450181362515,-4.751729462980797,0.0
-0.08232752041413903,-1.8040322587238355,-0.8979767025460238,0.6152676395569792,0.9677108207778853,-3.1765943758394495,0.0
-0.08232752041413903,-1.8040322587238355,-0.8979767025460238,0.3870159882396122,0.8056037314953748,-3.0041785173179294,0.0
-0.40487873160692356,-1.6840481055554546,-0.6933022611241159,0.24783817194388344,0.6608090065686679,-4.213688264826221,0.0
-0.3067109076394606,-1.7783213044650805,-0.4749828760487034,-0.7530050257071327,0.2382288230268505,-6.94288276292148,0.0
0.11050188394033322,-1.7954619406375838,-0.5623106300788684,-1.8157050138350712,-0.2756350014622983,-6.423036449499274,0.0
0.29281341674636846,-1.7011887417279583,-0.6414514370248867,-1.1470329165448985,2.517171615338884,-5.154610592593025,0.0
0.1525738611014656,-1.6754777874692028,-0.5541236829947216,0.12041314976192577,4.855920783419986,-4.868694984947942,0.0
0.0754420257145691,-1.2641034194465497,-0.6741993209012535,-0.6435184374550801,-0.7721864423996957,-3.1350067925022564,0.0
0.6574364823584395,-1.2598182604034238,-1.0671742140369957,1.2895068760557284,1.5885968324217326,1.3278759825779858,0.0
0.8923378638740448,-1.1441191912683828,-0.9198086888234552,-1.3418818231451728,0.9149866938625969,-3.2251135048638204,0.0
0.3454033881977842,-0.6384714743165325,-0.7069472525475105,-2.1200403879749112,1.7774594636939307,-6.451627638290896,0.0
0.205163709811035,-1.1526895093546345,-1.102651191737822,0.40619161954242455,-1.1876842619120476,-7.742579835130367,0.0
0.9238918467448932,-1.6540519922535737,-0.49408581627156567,0.2583538290409913,2.084361354686938,-3.686910405716839,0.0
1.0150475517769881,-1.3198103369876142,-0.6359934404555289,0.23237398186918318,3.1781909783591566,0.1001717307641424,0.0
0.8607838810031951,-0.7498853844084473,-0.952556572699822,0.4278414947004413,1.1156532203933598,-0.30357575751969035,0.0
0.5838107678101498,-1.0798419556410666,-0.5896005651557674,-0.24454202872878245,0.27049285330972467,-1.1916469515558725,0.0
0.380463123681702,-1.0755567965979407,-0.5241047496331437,-0.23155209759834786,-0.2937343420781364,-1.9696840425031432,0.0
0.22269370029484023,-0.8870101737493317,-0.5513946847100428,-0.23526349355927703,-0.16546511082491047,-2.9547933677791263,0.0
0.26476543197228014,-0.6170457541106888,-0.6987602576934736,-0.27980039598103523,0.7646834998386511,-3.1956552810862533,0.0
0.6083525090037847,-0.6384714743165325,-0.7315081893397306,0.11299033520647622,1.3084505602022034,-2.5016602227207336,0.0
0.8572778829064348,-0.689893307824257,-0.6687413243318957,0.04618497945193986,1.6704372957351796,-0.9377885591638772,0.0
0.6644484785519609,-0.698463550900723,-0.6414514370248867,0.2540238570272,1.418620402849722,-1.1301317661430992,0.0
0.37695712558494104,-0.5484833219353539,-0.570497624932905,-0.01257898899501692,0.902395841539945,-1.6768370582494725,0.0
0.4085111084557906,-0.5956199963999524,-0.49681481455624454,-0.002063331897909051,0.8433762884633305,-1.8865085376715824,0.0
0.43305309513311774,-0.6170457541106888,-0.513188756494428,-0.09175570524975692,0.6301188328261255,-2.6454845542934637,0.0
0.48213682300408006,-0.5484833219353539,-0.46133790851025386,-0.14866397783814836,1.0637160505421583,-2.8170338850647956,0.0
0.46811307610072794,-0.4884912453511635,-0.5186467530637858,-0.02928033117544142,0.9606285143362624,-3.057896136529095,0.0
0.5697867754231055,-0.31708522117016485,-0.5159177547791068,-0.039177419764217646,0.56480381519629,-3.200853771273049,0.0
0.7415801911970121,-0.33851097888090126,-0.5322917444871805,-0.16969529203236408,0.24058959823937398,-3.479838171388128,0.0
0.871301875293478,-0.2570931445859744,-0.6141615019479876,-0.16474674396571082,1.1494911456084607,-1.8622489731593976,0.0
0.9905055650996605,0.05572281157064357,-0.5650396283635474,-0.12763264855487172,1.325763001341797,-0.7090560899556707,0.0
0.6889904652292885,0.004301010879700311,-0.4149450332104924,-0.02371321460045644,1.2785472667399573,0.4969879269786785,0.0
-0.36280687718763727,0.1585664106084743,-0.5322917444871805,0.09443329127332194,2.1284292610324296,4.8671647868736025,0.0
0.7556041835840559,-0.35136641850538614,-0.2866824004499238,0.13031023835070196,-1.5575403377345243,5.581953636907722,0.0
1.379670617389058,-0.7713111046142911,-0.49681481455624454,0.32825203275981724,-0.723396870453472,1.749818101976311,0.0
1.5725000217435314,-0.7198893461163521,-0.513188756494428,0.33505629389599595,-0.06631222076883002,-0.05751505813824217,0.0
1.0571192834544272,-0.49277636688939647,-0.5623106300788684,0.24227106291342884,1.0338127570799127,0.010064996111943891,0.0
0.7836521683581439,-0.4242139722189542,-0.5841425685864097,0.12659883484524243,1.7837549666390466,0.03779014705197115,0.0
0.5171968039716903,-0.37279217621612254,-0.3139723116418778,0.13216594387569697,0.13435435855078876,-0.06791198567477567,0.0
0.4505830856169233,-0.32137038021329095,-0.2457475097770477,0.30350929242655067,-0.7847772179385574,0.22406850253094024,0.0
0.5592687811328226,-0.43278429030520577,-0.38219712544918055,0.6059891345655956,-0.07182071386100335,0.2821180207742423,0.0
0.6013405128102629,-0.4156436916375951,-0.48316984701779503,0.27505517122141576,0.44519083330678216,0.4268086476141072,0.0
0.9273978448416541,-0.574194238689216,-0.5623106300788684,-0.02185750907546144,-0.6549341781348688,0.6156862508283271,0.0
0.7556041835840559,-0.49277636688939647,-0.2866824004499238,0.017112278657444288,0.11310730485428744,-0.16754924576644653,0.0
0.6399064918746332,-0.5570536400216054,-0.603245508809272,0.058556341366742995,-0.8099589225838612,-0.15628590672125095,0.0
0.5452447887457781,-0.6084754360244373,-0.4149450332104924,-0.551970388756359,2.919291702248288,-0.4413351134250818,0.0
0.17711572503694664,-0.20567132983069636,-0.12294284671527378,-0.32619301147231866,-0.04349131293149067,0.1590876710835182,0.0
0.48213682300408006,-0.26994858421045914,-0.3412622467187769,-0.14928253880194955,-0.4778754421212353,0.34709885222166426,0.0
0.5312207963587343,-0.4713506466835528,-0.43950597000271263,-0.43134958244339733,0.305904596673262,1.3711965368762673,0.0
0.7731341740678617,-0.5784793977323418,-0.36309418522631826,-0.16350960694904754,0.6655305953856101,1.217841837219428,0.0
0.7626161797775766,-0.6041902769813112,-0.3494492176878687,0.15196012105324935,0.3759411839240917,0.626083188932272,0.0
0.7626161797775766,-0.6041902769813112,-0.3494492176878687,0.1414444639561415,0.6852037541498848,-0.7939643121304396,0.0
0.8923378638740448,-0.3342258198377755,-0.368552181795676,-0.04660023431966715,1.22031467072743,-0.5080487467550048,0.0
0.6399064918746332,-0.3856476533454999,-0.3248882808956485,0.0010295068714840402,1.1738858931896774,-0.18227823084629047,0.0
0.6399064918746332,-0.3856476533454999,-0.3248882808956485,-0.12515838961060602,0.7741266006887452,-1.2808873052458332,0.0
0.25424743768199703,-0.5484833219353539,-0.29214038507680923,-0.48640214196226317,-0.25360102909360493,0.017862694241081105,0.0
0.26476543197228014,-0.45421004801594217,-0.33853324843409804,-0.18021094912947194,-0.9508190157577129,1.1026092016740743,0.0
0.3524153843913061,-0.4884912453511635,-0.2157285883579422,0.07835052137349433,-0.8375014216376361,1.777543270253498,0.0
0.27878942435932447,-0.4242139722189542,-0.22391557126950645,0.015875143526913583,-0.48967933737980013,1.2308379781471244,0.0
0.9659635784223334,-0.5527684809784796,-0.343991245003456,0.07649481584849929,0.24845888094103144,0.44846892476324773,0.0
0.7240502007132068,-0.47563576822178577,-0.34672021940318987,0.21443550267209532,0.48138947614656374,0.2907821358608633,0.0
1.0501075327445977,-0.6170457541106888,-0.2866824004499238,0.23855965186343886,0.7166808849565146,-0.4725258854672708,0.0
0.8537718848096716,-0.6384714743165325,-0.35763621254190536,-0.01629040004500691,0.08163019324360525,-0.5990219023274663,0.0
0.8257239000355829,-0.6299011562302805,-0.33853324843409804,-0.08309575367764409,-0.18671215492343804,-0.3356329727727762,0.0
0.7345681950034886,-0.5484833219353539,-0.33853324843409804,-0.371967065999801,-0.12061023781735813,-0.26632009434945525,0.0
0.6048465109070235,-0.4970615259325222,-0.33307527574968526,-0.19629371525703446,0.11153344831395598,-0.20393850799543115,0.0
0.6048465109070235,-0.4970615259325222,-0.33307527574968526,-0.09608567726354814,0.5309659283730842,-0.24552621814156514,0.0
0.6574364823584395,-0.5142021246001328,-0.28941138679213013,-0.0323731661725693,0.20596477354802883,-0.3165719195822101,0.0
0.5908227640036717,-0.535627882310869,-0.31124333724214387,-0.17649953807948207,-0.2661918622203092,-0.14155692164140699,0.0
0.7310621969067281,-0.5270576017295102,-0.3167013099265569,-0.1387668817048417,-0.10172396893135406,-0.11989664449226635,0.0
0.7556041835840559,-0.5142021246001328,-0.3030563423881073,0.015875143526913583,0.556147633018388,-0.0644463449238331,0.0
0.7556041835840559,-0.5142021246001328,-0.3030563423881073,0.0393807303398565,0.6135933487506184,-0.04885094833532706,0.0
0.6504244861649182,-0.45421004801594217,-0.3139723116418778,0.18659994243076172,0.5301790097008922,-0.03498837212229229,0.0
0.6013405128102629,-0.4370694493483315,-0.29214038507680923,0.15072298403658602,-0.14972655501956936,-0.011595277239533242,0.0
0.6223765013908288,-0.49277636688939647,-0.2975983697036944,0.08329906566788242,-0.06001679460750407,-0.028923496845363477,0.0
0.6819784690357672,-0.5441982003971209,-0.3167013099265569,0.017112278657444288,0.39167971093551157,-0.09563713281713941,0.0
0.7556041835840559,-0.5784793977323418,-0.3276172791803273,0.07773195286516263,0.9582677199277913,-0.09043867433257843,0.0
0.7275561988099672,-0.5270576017295102,-0.3248882808956485,0.014019438001918566,1.2887773246541383,-0.1242287020355768,0.0
0.7240502007132068,-0.49277636688939647,-0.31124333724214387,-0.13814830565197958,2.0088162407510266,0.030858857624527322,0.0
0.8222181474225142,-0.4456397299296906,-0.20208363276196523,0.3381491288931239,2.8287949415812528,0.3029118969821324,0.0
0.748592187390534,-0.4456397299296906,-0.18298068059663034,0.49650254631354307,2.899618466700222,0.34449960712826666,0.0
0.5557627830360614,-0.5399130413539951,-0.07382098059487878,0.4185629595309358,1.3477968777307527,0.029992447436791674,0.0
0.5487507868425399,-0.5956199963999524,-0.07654997290832143,0.3765003311425043,-0.5494858475205018,-0.21260262308205205,0.0
0.5522567849393005,-0.5870496783137009,0.021693760825277658,-0.18330378412659987,-2.6002195182682604,0.050786309114490925,0.0
0.6960024614228104,-0.535627882310869,-0.016512137534155803,0.08639190443727551,-2.78593462841927,-0.10603407092108447,0.0
0.6328944956811119,-0.4970615259325222,-0.19935463447728627,0.7946523711716141,-2.91184284451063,-0.4690602394326224,0.0
0.7415801911970121,-0.4070733735513435,-0.3876551220185383,0.562689323893318,-1.1089914732873685,-0.18227823084629047,0.0
0.7871581664549043,-0.4456397299296906,-0.2975983697036944,0.2416525019496277,0.24924579961322346,-0.07830891849501496,0.0
0.6328944956811119,-0.4456397299296906,-0.2593924653730247,0.2063941196083141,0.04464459333973658,0.029992447436791674,0.0
0.6013405128102629,-0.4799209272649116,-0.22391557126950645,0.17113573726700054,-0.5006963523580683,-0.03845401551508776,0.0
0.5908227640036717,-0.4842060863080373,-0.22937355589639177,-0.11526129347729933,-0.34881928259784345,0.06551529683618776,0.0
0.6644484785519609,-0.4842060863080373,-0.2757664311961532,0.1030932428454348,0.020249833761052622,0.015263461696484506,0.0
0.6960024614228104,-0.45849516955417513,-0.3167013099265569,0.10680465012315955,-0.00414492701737806,-0.018526564025124172,0.0
0.6995084595195736,-0.4842060863080373,-0.30032736798837345,0.05731920529314597,0.23193339686552458,-0.05578223512091797,0.0
0.6328944956811119,-0.4884912453511635,-0.25120549440393297,0.06288631809586573,-0.007292637698547594,0.04732066572169546,0.0
0.6258824994875906,-0.4713506466835528,-0.2566634790308183,0.0251536636073581,-0.20402457686708436,0.009198585181187123,0.0
0.6504244861649182,-0.47563576822178577,-0.2675794482845889,0.05113352398209454,-0.24887945947261048,-0.0011983457402203988,0.0
0.6504244861649182,-0.535627882310869,-0.12021385440183112,0.46371845309461707,-0.2598964360589833,-0.16061795369714982,0.0
0.6328944956811119,-0.4884912453511635,-0.3958420929876301,-0.37815273599405685,0.16425760402316572,0.24486235760400724,0.0
0.6960024614228104,-0.4884912453511635,-0.27303743291147425,-0.04041455678088096,0.340529421364607,0.04905348873901965,0.0
0.6644484785519609,-0.5270576017295102,-0.23756052686548348,-0.05402304887511669,-0.11352788338586646,0.03432450101732279,0.0
0.6434124899713936,-0.5184872836432586,-0.26485044999991003,0.1624757781503572,-0.06001679460750407,-0.023725030435243825,0.0
0.6328944956811119,-0.46706548764042705,-0.28941138679213013,0.048040683798101974,-0.15287426810023236,-0.011595277239533242,0.0
0.6328944956811119,-0.46706548764042705,-0.28941138679213013,0.05484493314595192,-0.1418572819158857,-0.0003319348920215339,0.0
0.692496463326049,-0.45421004801594217,-0.33853324843409804,0.038762162303057984,-0.07654227868301092,0.016129872544683375,0.0
0.6819784690357672,-0.47563576822178577,-0.3139723116418778,0.06721629388192216,0.0005766402041229615,-0.00899604403447342,0.0
0.6819784690357672,-0.47563576822178577,-0.3139723116418778,0.08577333592894382,-0.12218408475971586,-0.012461688748195332,0.0
0.5873167659069111,-0.47563576822178577,-0.2812244158230385,0.007215188182535477,-0.33465457373486,0.017862694241081105,0.0
0.7310621969067281,-0.49277636688939647,-0.3167013099265569,0.018967984182439283,-0.06001679460750407,0.020461927446140924,0.0
0.7310621969067281,-0.49277636688939647,-0.3167013099265569,-0.05835302843343837,-0.15051348328973507,0.04385502232889999,0.0
0.6749664728422431,-0.47563576822178577,-0.2866824004499238,0.09628899679831693,0.16504454189130519,-0.01072886573087115,0.0
0.706520455713095,-0.5142021246001328,-0.3057853406727861,0.11422747222313957,0.2988222518397439,-0.034121960613630216,0.0
0.6995084595195736,-0.5142021246001328,-0.3167013099265569,0.041855002840700414,0.6718260215469359,0.02739321423173186,0.0
0.7906641645516652,-0.47563576822178577,-0.38219712544918055,0.007215188182535477,1.0833892093064332,0.04212219931157581,0.0
0.6574364823584395,-0.4242139722189542,-0.2757664311961532,-0.07629150008599574,0.12097658755594487,-0.06357993341517101,0.0
0.5662807773263445,-0.5227724426863845,-0.20208363276196523,-0.08680715718310361,-0.4865316242991373,-0.12769433750281356,0.0
0.534726794455495,-0.5099169655570067,-0.2048126191041716,-0.015671831536675257,-0.5117133289444411,0.03172526913318941,0.0
0.6083525090037847,-0.43278429030520577,-0.24301851149236875,-0.0979413903330736,-0.43065974591129075,0.15822127014226767,0.0
0.6889904652292885,-0.4156436916375951,-0.2757664311961532,0.06969056791524884,-0.33780230601147065,0.09670609001319984,0.0
0.7030144576163345,-0.4713506466835528,-0.26212146365770367,0.27072519920762467,-0.1261187261105446,-0.041053250041074046,0.0
0.7275561988099672,-0.5313427232677431,-0.2703084465692679,0.14824871754778982,0.014741338269385862,-0.033255551746821016,0.0
0.6328944956811119,-0.4799209272649116,-0.2866824004499238,0.14824871754778982,0.07612170495041878,0.023061160651200757,0.0
0.6819784690357672,-0.4970615259325222,-0.30851433895746505,0.1327845123840286,0.3240039372891001,-0.16495001124046024,0.0
0.6784724709390063,-0.5270576017295102,-0.3057853406727861,0.15443439508657603,0.3263647316975712,-0.3330337276793783,0.0
0.7030144576163345,-0.5441982003971209,-0.2839534021652449,0.11237176669814454,0.21383405624968627,-0.18487745480486514,0.0
0.5522567849393005,-0.4456397299296906,-0.27303743291147425,0.0035037809048107196,-0.36613168534554236,0.17988153672399676,0.0
0.5697867754231055,-0.4156436916375951,-0.2975983697036944,0.06103061445700335,-0.16310433561238702,0.1001717307641424,0.0
0.6539304842616792,-0.4456397299296906,-0.26485044999991003,0.10866035564815456,-0.16782589563540767,-0.003797578945280219,0.0
0.6539304842616792,-0.4456397299296906,-0.26485044999991003,0.10061897258437336,-0.05136059083416122,-0.04625171380934079,0.0
0.6819784690357672,-0.4370694493483315,-0.31124333724214387,0.09876326705937838,0.0359883871669003,0.005732941375602142,0.0
0.6328944956811119,-0.4156436916375951,-0.2784954175383596,0.08515477119287741,-0.08913312140768904,0.12443124243926935,0.0
0.6504244861649182,-0.4370694493483315,-0.27303743291147425,0.07216484006244289,-0.14736577980704588,0.11923277338729682,0.0
0.6679544766487218,-0.45421004801594217,-0.3876551220185383,0.26020954211051683,0.4294522679034672,-0.0072632223380756835,0.0
0.6995084595195736,-0.47563576822178577,-0.2784954175383596,0.13587735492568692,0.7615357483660933,0.06638170834484987,0.0
0.6749664728422431,-0.5142021246001328,-0.2102706037310569,0.07525767883183598,-0.0529344473744927,0.03952296742744242,0.0
0.713532206422924,-0.501346684975648,-0.25120549440393297,0.14020732693947816,0.04228380852923936,-0.04885094833532706,0.0
0.713532206422924,-0.501346684975648,-0.25120549440393297,0.07340197519297359,0.0021504955447077256,-0.07744250698635285,0.0
0.6644484785519609,-0.45421004801594217,-0.25393448074613945,0.04556641141514135,-0.17333439352656793,-0.05664864662958008,0.0
0.5592687811328226,-0.4370694493483315,-0.2157285883579422,0.051752092490426206,-0.28429120283614756,-0.039320427023749854,0.0
0.5592687811328226,-0.4370694493483315,-0.2157285883579422,-0.054641617383448374,-0.9303588999293512,-0.006396812150340047,0.0
0.706520455713095,-0.4456397299296906,-0.3276172791803273,0.09443329127332194,-0.018309626282387675,0.018729105749743197,0.0
0.6399064918746332,-0.46706548764042705,-0.2948693714190155,0.07463911220963693,-0.14500499499654865,-0.018526564025124172,0.0
0.6399064918746332,-0.46706548764042705,-0.2948693714190155,-0.030517460647574303,-0.7414961918733628,0.03779014705197115,0.0
0.6328944956811119,-0.46706548764042705,-0.2593924653730247,0.14824871754778982,-0.002571071676793293,0.023061160651200757,0.0
0.5943285166167405,-0.47563576822178577,-0.2866824004499238,-0.03484744020589597,-1.1963404824818447,-0.1242287020355768,0.0
0.5943285166167405,-0.47563576822178577,-0.2866824004499238,0.07402054370130524,-0.62581784173671,-0.13115998353746194,0.0
0.692496463326049,-0.4370694493483315,-0.37673915276476766,0.03690645819266245,-0.2654049435481173,0.04732066572169546,0.0
0.6819784690357672,-0.4284991312620799,-0.33853324843409804,-0.07752863710265907,-1.360808289389036,-0.06357993341517101,0.0
0.4435710894234011,-0.44135457088656455,-0.2757664311961532,-0.02371321460045644,-1.145977073191237,-0.2117362010059784,0.0
0.6364004937778728,-0.5184872836432586,-0.34672021940318987,0.007833756690867137,-0.7454309004100079,-0.05751505813824217,0.0
0.706520455713095,-0.45421004801594217,-0.3412622467187769,-0.024331783108788092,-0.9830830268446397,0.1391602275191133,0.0
0.6819784690357672,-0.39850309296998476,-0.34672021940318987,0.012163734363056199,-1.4977337508100328,-0.04885094833532706,0.0
0.6784724709390063,-0.4799209272649116,-0.398571091272309,-0.058971596941770024,-1.1105653106317523,-0.15195384917794047,0.0
0.5978345147135017,-0.43278429030520577,-0.38219712544918055,-0.2593876729287423,-3.5752231555069534,-0.22559878514457185,0.0
0.5066788096814072,-0.43278429030520577,-0.26485044999991003,-0.2296963845288224,-4.301557267413798,-0.1441561455999817,0.0
0.6399064918746332,-0.5313427232677431,-0.2457475097770477,0.10000040407604169,-3.0881147770277564,-0.2351293011724432,0.0
0.748592187390534,-0.5099169655570067,-0.6823863157552904,0.042473570936440566,-1.0499719202107538,-0.23946134814834208,0.0
0.6995084595195736,-0.45849516955417513,-0.666012373817107,0.010308030724193808,-0.6352609809786988,-0.18141182990503996,0.0
0.6960024614228104,-0.38993277488373285,-0.6741993209012535,0.15690866911990267,0.6151672244868975,0.0715801721131166,0.0
0.6328944956811119,-0.3685070171729968,-0.6087035053786299,0.07402054370130524,0.5270312966202294,0.12529765394793144,0.0
0.4751250722942501,-0.4242139722189542,-0.4749828760487034,-0.1096941844468448,-1.145977073191237,0.005732941375602142,0.0
0.573292773519867,-0.4842060863080373,-0.5623106300788684,-0.106601334360656,-0.8973079317783373,-0.08610661678926795,0.0
0.6364004937778728,-0.4713506466835528,-0.6332644421708499,0.02577223211568977,-0.021457336963557207,-0.08177455924595753,0.0
0.6539304842616792,-0.43278429030520577,-0.660554377247749,0.08577333592894382,0.7072377841064208,0.02912603724905604,0.0
0.5557627830360614,-0.4370694493483315,-0.570497624932905,0.03566932164753227,0.3074784532135933,-0.01766015251646208,0.0
0.44006509132663935,-0.44992488897281635,-0.4367769717180336,-0.23588208470120012,-1.8668028695684222,-0.18401105386361466,0.0
0.5943285166167405,-0.4156436916375951,-0.6168905002326666,-0.110312745410646,-1.5425886910034015,-0.22386596212724763,0.0
0.6644484785519609,-0.3642218956347638,-0.7697140697854553,-0.047218802827998826,-0.43065974591129075,0.013530640000086774,0.0
0.7275561988099672,-0.3856476533454999,-0.8161069450852166,0.15690866911990267,1.0676506822950134,0.1287632894151682,0.0
0.6118585071005457,-0.4370694493483315,-0.6441804353095656,0.1890742164640884,1.3415015283532168,0.02739321423173186,0.0
0.49265481729436317,-0.4370694493483315,-0.5322917444871805,-0.006393307683965489,-0.2512402346851339,-0.1034348363950982,0.0
0.5487507868425399,-0.4242139722189542,-0.5595816317941893,0.07711338435683097,-0.023818120574307718,-0.07744250698635285,0.0
0.6188705032940676,-0.39421793392685894,-0.6578253789630701,0.1501044230727848,0.40427056325816346,0.018729105749743197,0.0
0.5943285166167405,-0.4242139722189542,-0.6441804353095656,0.18041425734744507,0.5380482732066023,0.04298861082023789,0.0
0.573292773519867,-0.43278429030520577,-0.5841425685864097,0.06721629388192216,0.08871254767509693,-0.034121960613630216,0.0
0.5277147982619731,-0.4027882520131105,-0.5677686266482262,-0.04845593984466218,-0.33858922468366265,-0.05145017757760752,0.0
0.5943285166167405,-0.4113585325944693,-0.6141615019479876,-0.06515727448055621,-0.5943407493219752,-0.07051122020076193,0.0
0.6258824994875906,-0.4027882520131105,-0.660554377247749,0.026390800624021434,0.06667857050741674,0.014397050848285641,0.0
0.6258824994875906,-0.4027882520131105,-0.660554377247749,0.03752502622946096,0.37436730818781266,-0.06877839718343774,0.0
0.5873167659069111,-0.4242139722189542,-0.6223484968020244,0.041855002840700414,0.41607449690862336,-0.12336229052691469,0.0
0.5627747792295839,-0.4113585325944693,-0.603245508809272,0.1253616978285791,0.42709147349499615,-0.013328098935930972,0.0
0.5627747792295839,-0.4113585325944693,-0.603245508809272,0.1705171612141384,0.6694652271384652,0.05598477552461056,0.0
0.6679544766487218,-0.3599367365916377,-0.6796573174706113,0.20948695460544198,1.3950126123325923,0.26478981173582367,0.0
0.7240502007132068,-0.3685070171729968,-0.6741993209012535,0.20701268057211533,2.457365028414393,0.5169154022453183,0.0
0.7240502007132068,-0.3685070171729968,-0.6741993209012535,0.054226364637620254,1.972617597911245,0.4640643107843422,0.0
0.6083525090037847,-0.4456397299296906,-0.5077308076949603,0.26206524009098137,2.46838212017645,0.2743203277636951,0.0
0.7731341740678617,-0.535627882310869,-0.5350206950019691,0.20948695460544198,2.876010522615512,0.19461053237125234,0.0
0.6644484785519609,-0.45421004801594217,-0.3740101544800888,0.20824981758877867,1.8364790167705451,0.28991573491961276,0.0
0.5803047697133888,-0.5270576017295102,-0.20208363276196523,0.15629010061157098,0.7599619110217093,0.22320208045486656,0.0
0.5767987716166276,-0.45421004801594217,-0.3549072142572265,0.11299033520647622,0.7158939278924276,0.18767924030195562,0.0
0.4751250722942501,-0.43278429030520577,-0.3194303082112357,0.028865072771215482,0.06589164223725102,0.04125579044476661,0.0
0.520702802068451,-0.47563576822178577,-0.36309418522631826,0.0251536636073581,0.16425760402316572,0.014397050848285641,0.0
0.6469184880681573,-0.49277636688939647,-0.3876551220185383,0.07835052137349433,0.2988222518397439,-0.015060920632328707,0.0
0.706520455713095,-0.46706548764042705,-0.36309418522631826,0.12103171827025742,0.3838104474298017,-0.012461688748195332,0.0
0.6854844671325276,-0.4156436916375951,-0.43131899903362086,-0.0014447633895773922,-0.023031192304141974,0.09930531925548032,0.0
0.6188705032940676,-0.43278429030520577,-0.30851433895746505,0.022060822951832385,-0.0851984848558472,0.024793982347598484,0.0
0.6539304842616792,-0.46706548764042705,-0.3876551220185383,0.0931961542566586,0.09107333248559416,-0.0072632223380756835,0.0
0.6328944956811119,-0.44992488897281635,-0.3658231835109972,0.03566932164753227,-0.18356446103872254,0.07591222437272127,0.0
0.6258824994875906,-0.4456397299296906,-0.36309418522631826,0.010308030724193808,-0.9405889578435321,0.10537019981611492,0.0
0.5838107678101498,-0.4199288506807212,-0.37128115619540986,-0.03608457722255932,-0.3503931199422275,0.1400266390277754,0.0
0.6679544766487218,-0.4199288506807212,-0.4067580622414006,-0.03361030318923264,-0.24337095198347647,0.09843890774681822,0.0
0.5697867754231055,-0.5099169655570067,-0.398571091272309,0.005359486429805711,0.046218449880068076,0.17814871370667262,0.0
0.713532206422924,-0.5399130413539951,-0.368552181795676,0.07278340857077455,0.10602496002076951,0.06291606231020148,0.0
0.5838107678101498,-0.5313427232677431,-0.3549072142572265,-0.03361030318923264,-0.2417971146390925,0.062049650801539416,0.0
0.706520455713095,-0.5056318440187737,-0.45315093754116204,0.07587624734016764,0.6875645485583559,0.025660392535334132,0.0
0.706520455713095,-0.4799209272649116,-0.428590000748942,0.00041094213541762077,0.6513659057185742,0.012664228821656296,0.0
0.6609424804552004,-0.4456397299296906,-0.36309418522631826,-0.5816616168000353,0.16425760402316572,0.03605732403464697,0.0
0.6504244861649182,-0.45421004801594217,-0.49681481455624454,-1.0400205721480509,0.3798758156769467,0.10537019981611492,0.0
0.6504244861649182,-0.5099169655570067,-0.2757664311961532,-0.5841359210114839,0.12176351582611061,0.0715801721131166,0.0
0.6188705032940676,-0.5399130413539951,-0.23210254223859814,0.07402054370130524,-0.11038017030520347,-0.08524020528060589,0.0
0.6083525090037847,-0.4970615259325222,-0.2757664311961532,0.3523761819511609,-0.3834440880932414,-0.06964480869209985,0.0
0.6609424804552004,-0.4242139722189542,-0.17752269596974504,1.236928620748311,-0.31340753923430636,0.10970225735942538,0.0
0.5767987716166276,-0.31280009963193184,-0.5814135703017307,0.11299033520647622,-0.5589289867624906,0.11403430433532426,0.0
0.6749664728422431,-0.4242139722189542,-0.5186467530637858,-0.03484744020589597,-0.08677234139617869,0.0715801721131166,0.0
0.713532206422924,-0.47563576822178577,-0.4367769717180336,-0.28660465711721395,0.26341050847620684,0.020461927446140924,0.0
0.6258824994875906,-0.501346684975648,-0.3903841203032172,-0.2389749196983278,-0.19143372454443247,-0.034121960613630216,0.0
0.5662807773263445,-0.49277636688939647,-0.31124333724214387,-0.015053263028343578,-0.4582022449650656,-0.0020647572488824892,0.0
0.5978345147135017,-0.47563576822178577,-0.3494492176878687,-0.28969749211434187,-0.5738806334936134,0.04298861082023789,0.0
0.6258824994875906,-0.45421004801594217,-0.43131899903362086,-0.49196928117083977,-0.5762413895101894,-0.006396812150340047,0.0
0.7415801911970121,-0.44135457088656455,-0.46133790851025386,-0.23278921952595033,0.03441453062656881,0.1218320079132831,0.0
0.7591101816808162,-0.44992488897281635,-0.43404799731829974,0.1371144919423503,0.24924579961322346,0.057717598541934756,0.0
0.5908227640036717,-0.5527684809784796,-0.343991245003456,0.33134486775694516,-0.03168739847697827,-0.07397686623541032,0.0
0.5697867754231055,-0.5270576017295102,-0.3167013099265569,0.30783927952940265,0.1296327889297943,-0.2281980091031465,0.0
0.6083525090037847,-0.45849516955417513,-0.45315093754116204,-0.08557002016644027,0.3216431428806292,0.015263461696484506,0.0
0.6083525090037847,-0.46706548764042705,-0.4149450332104924,-0.22598498856789345,0.21304713757749427,0.09237403246988939,0.0
0.6504244861649182,-0.43278429030520577,-0.33853324843409804,-0.02618748863378309,0.10602496002076951,0.08544274568429845,0.0
0.6258824994875906,-0.4370694493483315,-0.3794681510494467,-0.014434694520011912,0.07218706359959008,-0.00986245554313551,0.0
0.6328944956811119,-0.47563576822178577,-0.3876551220185383,0.044329275223661035,0.025758326853225946,-0.047118125318002864,0.0
0.5943285166167405,-0.47563576822178577,-0.3521782159725476,0.2336111188858465,-0.3834440880932414,0.02132833763387657,0.0
0.6819784690357672,-0.4456397299296906,-0.5377496932866482,-0.24887201583163446,-0.08362462831551574,0.1590876710835182,0.0
0.7696281759711008,-0.44992488897281635,-0.49135684187183176,-0.3892869540549659,0.23901574169904255,0.03605732403464697,0.0
0.6048465109070235,-0.5142021246001328,-0.33034627746500644,-0.24639774179830798,-0.21661540999378873,-0.01766015251646208,0.0
0.4751250722942501,-0.5142021246001328,-0.2566634790308183,0.2051569825916508,-1.0712189163194128,-0.011595277239533242,0.0
0.5627747792295839,-0.4713506466835528,-0.47771187433338225,0.10618608538709311,-1.355299820291797,0.09670609001319984,0.0
0.7591101816808162,-0.4370694493483315,-0.570497624932905,-0.19381944122370773,-0.71867528163653,0.02912603724905604,0.0
0.7205442026164454,-0.4456397299296906,-0.4804408726180612,-0.18268522316279867,-0.5093525345359701,-0.08697302829793006,0.0
0.6118585071005457,-0.43278429030520577,-0.43950597000271263,-0.03608457722255932,-0.13241415227187053,-0.08957226282391634,0.0
0.5943285166167405,-0.43278429030520577,-0.428590000748942,0.19278561242501746,0.06195700568540919,0.001400886804376201,0.0
0.6504244861649182,-0.4456397299296906,-0.46133790851025386,0.26144667912718017,0.10445110348043803,0.07071376060445453,0.0
0.6609424804552004,-0.46706548764042705,-0.4804408726180612,0.20763125662497744,0.2870183373852316,0.13482816997580285,0.0
0.6328944956811119,-0.45421004801594217,-0.46133790851025386,0.07402054370130524,0.3090523097539248,0.04905348873901965,0.0
0.6013405128102629,-0.44992488897281635,-0.4558799358258411,0.05051495641682918,0.37515426525189965,0.02912603724905604,0.0
0.6188705032940676,-0.47563576822178577,-0.4667959050796116,0.06041204594867168,0.4467646706511661,0.06291606231020148,0.0
0.6714604747454822,-0.4884912453511635,-0.4367769717180336,0.17670284629745506,0.6269711197454624,0.03432450101732279,0.0
0.7030144576163345,-0.5056318440187737,-0.40130008955698787,0.4470170958251317,0.8638364042916924,-0.047118125318002864,0.0
0.6644484785519609,-0.46706548764042705,-0.36309418522631826,0.5855763511570592,0.8496717146246565,-0.13029357202879982,0.0
0.5873167659069111,-0.46706548764042705,-0.35763621254190536,0.5756792550237525,0.6198887749119444,-0.07917533000367703,0.0
0.5873167659069111,-0.46706548764042705,-0.35763621254190536,0.44330569986420254,0.30196996492040695,-0.05145017757760752,0.0
0.6258824994875906,-0.46706548764042705,-0.4176740314951713,0.2564981310605267,-0.03326125261781632,-0.003797578945280219,0.0
0.6749664728422431,-0.4884912453511635,-0.4040290639567217,0.10742321863149122,0.05172694297224138,0.010064996111943891,0.0
0.6749664728422431,-0.4884912453511635,-0.4040290639567217,0.17237287428366388,0.1666183984316367,0.010931407125258565,0.0
0.6434124899713936,-0.47563576822178577,-0.33034627746500644,0.29979789646562155,0.09972953385944357,-0.039320427023749854,0.0
0.6434124899713936,-0.3813624943023742,-0.4094870605260797,0.49093543728308847,0.133567430280623,-0.04971735984398915,0.0
0.6434124899713936,-0.3813624943023742,-0.4094870605260797,-0.3138216413056853,-0.2960951172906599,0.033458092150513596,0.0
0.5978345147135017,-0.4027882520131105,-0.428590000748942,-0.2668104648506006,-0.31340753923430636,-0.035854783630954394,0.0
0.7030144576163345,-0.47563576822178577,-0.37673915276476766,-0.16969529203236408,-0.3283591667694818,0.00400011967920441,0.0
0.6679544766487218,-0.49277636688939647,-0.33307527574968526,0.17608428533365386,-0.28114348975548453,0.03692373554330907,0.0
0.6293884975843514,-0.45421004801594217,-0.343991245003456,0.15196012105324935,-0.24337095198347647,0.06638170834484987,0.0
0.6574364823584395,-0.4456397299296906,-0.43950597000271263,0.041855002840700414,-0.2095330651602708,0.05598477552461056,0.0
0.6609424804552004,-0.44135457088656455,-0.45315093754116204,0.08762904145393885,-0.104871682012017,0.06031682778421524,0.0
0.6574364823584395,-0.4627803285973009,-0.40130008955698787,0.22866257081919317,-0.00886649333906904,-0.006396812150340047,0.0
0.6399064918746332,-0.47563576822178577,-0.3603651869416392,0.24907530896054678,0.10130339039977504,0.01179781797345743,0.0
0.6434124899713936,-0.4970615259325222,-0.37673915276476766,0.25711670711338885,0.34446405311746214,-0.0011983457402203988,0.0
0.6749664728422431,-0.4970615259325222,-0.3876551220185383,0.24350819993009223,0.5655907722603771,0.018729105749743197,0.0
0.6889904652292885,-0.4842060863080373,-0.3849261237338594,0.22742543380252983,0.5238835835395664,-0.040186838532411936,0.0
0.6328944956811119,-0.45421004801594217,-0.3740101544800888,0.27938515832426797,0.4184352913170944,-0.11123252940564543,0.0
0.6574364823584395,-0.4713506466835528,-0.40130008955698787,0.228043994766331,0.340529421364607,0.006599352388916815,0.0
0.5978345147135017,-0.4456397299296906,-0.3931130947029511,-0.06701298000555123,-0.054508301515330745,0.08544274568429845,0.0
0.6258824994875906,-0.4799209272649116,-0.3549072142572265,0.06412345511252907,0.1548144839771243,-0.014194509123666616,5.0
0.6083525090037847,-0.4884912453511635,-0.33307527574968526,0.10494894837042981,-0.050573664963488904,-0.018526564025124172,5.0
0.6399064918746332,-0.4713506466835528,-0.3494492176878687,0.08886617847060216,-0.00021028806604278364,-0.03152272872949683,5.0
0.6644484785519609,-0.4884912453511635,-0.37128115619540986,0.10000040407604169,0.02182368790189065,-0.011595277239533242,5.0
0.6609424804552004,-0.4842060863080373,-0.368552181795676,0.11237176669814454,0.0013635672745419807,-0.014194509123666616,5.0
0.6574364823584395,-0.4970615259325222,-0.3740101544800888,0.10742321863149122,0.02890603753439548,-0.013328098935930972,5.0
0.6504244861649182,-0.4799209272649116,-0.3521782159725476,0.07773195286516263,0.013954412398713558,-0.0072632223380756835,5.0
0.6399064918746332,-0.47563576822178577,-0.3521782159725476,0.06536059024305976,0.017889048950555396,-0.0020647572488824892,5.0
0.6399064918746332,-0.46706548764042705,-0.36309418522631826,0.06103061445700335,-0.00414492701737806,-0.0072632223380756835,5.0
0.6644484785519609,-0.45421004801594217,-0.33034627746500644,0.08144336014288742,0.01316748412854782,-0.005530400641677954,5.0
0.6504244861649182,-0.47563576822178577,-0.3521782159725476,0.07463911220963693,0.0005766402041229615,-0.006396812150340047,5.0
0.6504244861649182,-0.47563576822178577,-0.35763621254190536,0.05731920529314597,0.006872061566462023,-0.032389140238158934,5.0
0.6574364823584395,-0.4970615259325222,-0.3603651869416392,0.07711338435683097,0.020249833761052622,-0.011595277239533242,5.0
0.6539304842616792,-0.4842060863080373,-0.36309418522631826,0.07896908988182598,0.018675977220721125,-0.013328098935930972,5.0
0.6399064918746332,-0.4799209272649116,-0.3494492176878687,0.07092770304577954,-0.00650571002825521,0.005732941375602142,5.0
0.6399064918746332,-0.4799209272649116,-0.368552181795676,0.06969056791524884,-0.018309626282387675,-0.01939297553378626,5.0
0.6469184880681573,-0.45849516955417513,-0.35763621254190536,0.07463911220963693,-0.05686908632582796,-0.014194509123666616,5.0
0.6469184880681573,-0.4713506466835528,-0.3167013099265569,0.07773195286516263,-0.025391975914892485,-0.004663989133015863,5.0
0.6399064918746332,-0.4842060863080373,-0.343991245003456,0.07958765839015762,-0.024605047644726742,0.005732941375602142,5.0
0.6574364823584395,-0.4627803285973009,-0.343991245003456,0.09072188399559715,-0.03326125261781632,0.010931407125258565,5.0
0.6504244861649182,-0.47563576822178577,-0.3494492176878687,0.07835052137349433,-0.01673577064186623,-0.002931167436618131,5.0
0.6399064918746332,-0.47563576822178577,-0.3494492176878687,0.06597915875139146,-0.021457336963557207,-0.006396812150340047,5.0
0.6504244861649182,-0.47563576822178577,-0.3603651869416392,0.07896908988182598,-0.013588059735744189,-0.008129633846737776,5.0
0.6539304842616792,-0.4842060863080373,-0.36309418522631826,0.06041204594867168,-0.00414492701737806,-0.014194509123666616,5.0
0.6504244861649182,-0.46706548764042705,-0.35763621254190536,0.05546350071121728,-0.005718782357962825,0.026526804043996217,5.0
0.6609424804552004,-0.46706548764042705,-0.3549072142572265,0.06474202173472811,-0.00886649333906904,0.0005344759561773323,5.0
0.6574364823584395,-0.4456397299296906,-0.35763621254190536,0.05917490893200835,-0.025391975914892485,0.025660392535334132,5.0
0.6399064918746332,-0.44992488897281635,-0.33307527574968526,0.05051495641682918,-0.03326125261781632,0.010064996111943891,5.0
0.6504244861649182,-0.45421004801594217,-0.343991245003456,0.05979347744034002,-0.02067040929326483,0.0048665305274032756,5.0
0.6539304842616792,-0.45849516955417513,-0.35763621254190536,0.05793777380147763,-0.023818120574307718,0.010064996111943891,5.0
0.6539304842616792,-0.46706548764042705,-0.36309418522631826,0.041855002840700414,-0.010440348679653806,0.010931407125258565,5.0
0.6539304842616792,-0.46706548764042705,-0.36309418522631826,0.05546350071121728,-0.02067040929326483,0.001400886804376201,5.0
0.6399064918746332,-0.46706548764042705,-0.36309418522631826,0.05979347744034002,-0.014374987481020741,0.015263461696484506,5.0
0.6399064918746332,-0.47563576822178577,-0.368552181795676,0.06597915875139146,-0.03168739847697827,0.013530640000086774,5.0
0.6539304842616792,-0.4627803285973009,-0.33853324843409804,0.07463911220963693,-0.04585209774198789,0.001400886804376201,5.0
0.6504244861649182,-0.4713506466835528,-0.3494492176878687,0.08082479163455573,-0.03562203742831355,0.0005344759561773323,5.0
0.6574364823584395,-0.45849516955417513,-0.3603651869416392,0.06721629388192216,-0.04113053052048686,0.010931407125258565,5.0
0.6574364823584395,-0.4456397299296906,-0.35763621254190536,0.05546350071121728,-0.04585209774198789,0.023061160651200757,5.0
0.6504244861649182,-0.45421004801594217,-0.343991245003456,0.05237066005569156,-0.052147519104326946,-0.005530400641677954,5.0
0.6399064918746332,-0.4713506466835528,-0.343991245003456,0.07340197519297359,-0.06316450768816703,0.016996283392882238,5.0
0.6469184880681573,-0.45421004801594217,-0.34672021940318987,0.06350488660419741,-0.06316450768816703,-0.003797578945280219,5.0
0.6574364823584395,-0.46706548764042705,-0.35763621254190536,0.07278340857077455,-0.050573664963488904,0.018729105749743197,5.0
0.6469184880681573,-0.44135457088656455,-0.35763621254190536,0.06350488660419741,-0.050573664963488904,0.016129872544683375,5.0
0.6504244861649182,-0.45421004801594217,-0.3412622467187769,0.06288631809586573,-0.02932661486622776,0.03432450101732279,5.0
0.6504244861649182,-0.47563576822178577,-0.3494492176878687,0.06288631809586573,-0.06709914424000887,0.02739321423173186,5.0
0.6539304842616792,-0.47563576822178577,-0.35763621254190536,0.04618497945193986,-0.08755926966634446,0.017862694241081105,5.0
0.6644484785519609,-0.4627803285973009,-0.3549072142572265,0.047422115761303466,-0.03798281983931734,0.023061160651200757,5.0
0.6644484785519609,-0.4627803285973009,-0.3549072142572265,0.058556341366742995,-0.049786736693323175,0.04212219931157581,5.0
0.6469184880681573,-0.45849516955417513,-0.37128115619540986,0.031339344918409534,-0.057656014595993725,0.04472143383756207,5.0
0.6434124899713936,-0.45421004801594217,-0.34672021940318987,0.03257648099200656,-0.07654227868301092,0.03432450101732279,5.0
0.6539304842616792,-0.4713506466835528,-0.35763621254190536,0.03505075408226691,-0.06788607251017463,0.04732066572169546,5.0
0.6539304842616792,-0.4713506466835528,-0.35763621254190536,0.03690645819266245,-0.07968999176367389,0.03605732403464697,5.0
0.6504244861649182,-0.47563576822178577,-0.36309418522631826,0.04618497945193986,-0.05922987113632519,0.04558784534622418,5.0
0.6504244861649182,-0.4713506466835528,-0.35763621254190536,0.04494784337834284,-0.05608215805566223,0.02739321423173186,5.0
0.6574364823584395,-0.46706548764042705,-0.37128115619540986,0.034432185573935244,-0.06316450768816703,0.03779014705197115,5.0
0.6609424804552004,-0.4627803285973009,-0.3794681510494467,0.043710707127920884,-0.07496842214267942,0.03432450101732279,5.0
0.6504244861649182,-0.4842060863080373,-0.36309418522631826,0.038143594266259476,-0.09306776275851776,0.03952296742744242,5.0
0.6364004937778728,-0.47563576822178577,-0.35763621254190536,0.06103061445700335,-0.08205077177518423,0.04732066572169546,5.0
0.6399064918746332,-0.4713506466835528,-0.35763621254190536,0.06783486239025381,-0.08598541312601295,0.04125579044476661,5.0
0.6504244861649182,-0.4713506466835528,-0.3740101544800888,0.05237066005569156,-0.07496842214267942,0.02739321423173186,5.0
0.6504244861649182,-0.45849516955417513,-0.368552181795676,0.05546350071121728,-0.05844294286615946,0.050786309114490925,5.0
0.6574364823584395,-0.46706548764042705,-0.38219712544918055,0.05793777380147763,-0.05686908632582796,0.05858401005059683,5.0
0.6504244861649182,-0.4713506466835528,-0.368552181795676,0.05298922856402323,-0.07182071386100335,0.025660392535334132,5.0
0.6574364823584395,-0.4884912453511635,-0.38219712544918055,0.05237066005569156,-0.06788607251017463,0.04385502232889999,5.0
0.6504244861649182,-0.46706548764042705,-0.37673915276476766,0.03566932164753227,-0.06080372287766981,0.014397050848285641,5.0
0.6539304842616792,-0.46706548764042705,-0.3794681510494467,0.03752502622946096,-0.06080372287766981,0.03605732403464697,5.0
0.6504244861649182,-0.4799209272649116,-0.3931130947029511,0.012782302871387855,-0.03247432554739729,0.03779014705197115,5.0
0.6434124899713936,-0.4842060863080373,-0.37128115619540986,0.028865072771215482,-0.046639026012153646,0.023061160651200757,5.0
0.6364004937778728,-0.47563576822178577,-0.37673915276476766,0.017112278657444288,-0.05136059083416122,0.016129872544683375,5.0
0.6434124899713936,-0.46706548764042705,-0.37128115619540986,0.009070893707530477,-0.07182071386100335,0.028259625740393948,5.0
0.6399064918746332,-0.4842060863080373,-0.35763621254190536,0.019586550804638336,-0.08834619793651018,0.03605732403464697,5.0
0.6574364823584395,-0.4842060863080373,-0.3740101544800888,0.004740917921474031,-0.06867300078034036,0.04991990024768172,5.0
0.6504244861649182,-0.4842060863080373,-0.3876551220185383,0.004740917921474031,-0.062377579418001296,0.029992447436791674,5.0
0.6504244861649182,-0.4970615259325222,-0.3849261237338594,-0.0026819004062407104,-0.05608215805566223,0.04732066572169546,5.0
0.6399064918746332,-0.4842060863080373,-0.3876551220185383,0.008452325199198817,-0.06159065114783557,0.03172526913318941,5.0
0.6504244861649182,-0.4970615259325222,-0.38219712544918055,0.007215188182535477,-0.06552529249866428,0.02912603724905604,5.0
0.6399064918746332,-0.4842060863080373,-0.4094870605260797,0.010926599232525468,-0.05608215805566223,0.033458092150513596,5.0
0.6469184880681573,-0.49277636688939647,-0.3958420929876301,0.004740917921474031,-0.04899980842315742,0.03172526913318941,5.0
0.6399064918746332,-0.4970615259325222,-0.3876551220185383,0.004122349413142379,-0.05686908632582796,0.04125579044476661,5.0
0.6364004937778728,-0.4970615259325222,-0.3958420929876301,0.0016480753798157066,-0.04899980842315742,0.02132833763387657,5.0
0.6504244861649182,-0.5056318440187737,-0.3876551220185383,0.020205119312969998,-0.023818120574307718,0.018729105749743197,5.0
0.6504244861649182,-0.5142021246001328,-0.3931130947029511,0.016493710149112613,-0.026178904185058232,0.028259625740393948,5.0
0.6434124899713936,-0.5056318440187737,-0.3903841203032172,0.02577223211568977,-0.008079565368839976,0.024793982347598484,5.0
0.6504244861649182,-0.4842060863080373,-0.4094870605260797,0.022679391460164046,-0.02853968659606202,0.010064996111943891,5.0
0.6328944956811119,-0.47563576822178577,-0.40130008955698787,0.026390800624021434,-0.06316450768816703,0.010931407125258565,5.0
0.6434124899713936,-0.4970615259325222,-0.4094870605260797,0.021442256329633334,-0.05608215805566223,0.04385502232889999,5.0
0.6399064918746332,-0.4970615259325222,-0.3876551220185383,0.02762793669761846,-0.044278241201656396,0.029992447436791674,5.0
0.6504244861649182,-0.5056318440187737,-0.3958420929876301,0.043710707127920884,-0.023818120574307718,0.02739321423173186,5.0
0.6504244861649182,-0.5056318440187737,-0.3958420929876301,0.022679391460164046,-0.012014204245191082,0.03432450101732279,5.0
0.6504244861649182,-0.4799209272649116,-0.3876551220185383,0.008452325199198817,-0.03876974810948309,0.0325916806418515,5.0
0.6504244861649182,-0.4799209272649116,-0.3876551220185383,0.014638006510250243,-0.02853968659606202,0.029992447436791674,5.0
0.6539304842616792,-0.47563576822178577,-0.40130008955698787,-0.00020762637291405956,-0.02696583125547725,-0.008129633846737776,5.0
0.6504244861649182,-0.47563576822178577,-0.40130008955698787,-0.006393307683965489,-0.02224426523372295,0.01959551593747884,5.0
0.6504244861649182,-0.4884912453511635,-0.4094870605260797,-0.02371321460045644,0.008445916907046791,0.03692373554330907,5.0
0.6364004937778728,-0.49277636688939647,-0.40130008955698787,-0.013816126011680238,0.0005766402041229615,0.020461927446140924,5.0
0.6364004937778728,-0.5056318440187737,-0.40130008955698787,-0.015671831536675257,-0.02067040929326483,0.01179781797345743,5.0
0.6434124899713936,-0.5056318440187737,-0.4149450332104924,-0.008249013208960482,-0.02067040929326483,0.009198585181187123,5.0
0.6399064918746332,-0.4842060863080373,-0.3931130947029511,-0.00948615022562382,-0.023818120574307718,0.013530640000086774,5.0
0.6399064918746332,-0.4799209272649116,-0.3740101544800888,-0.003300468914572391,-0.0009972163362085265,0.03432450101732279,5.0
0.6504244861649182,-0.49277636688939647,-0.3876551220185383,-0.00948615022562382,0.010806699318050582,0.03172526913318941,5.0
0.6328944956811119,-0.4842060863080373,-0.41221605881075857,-0.01629040004500691,-0.009653421009361422,0.014397050848285641,5.0
0.6328944956811119,-0.5099169655570067,-0.428590000748942,-0.015053263028343578,-0.03404818088798206,0.01959551593747884,5.0
0.6434124899713936,-0.4970615259325222,-0.40130008955698787,-0.01257898899501692,-0.0017841434066275523,0.03432450101732279,5.0
0.6434124899713936,-0.5056318440187737,-0.3903841203032172,-0.01134185197835358,-0.008079565368839976,0.04472143383756207,5.0
0.6504244861649182,-0.501346684975648,-0.4067580622414006,-0.0039190374229040505,0.0037243508852924925,0.010064996111943891,5.0
0.6364004937778728,-0.501346684975648,-0.4094870605260797,-0.01010471873395548,-0.0017841434066275523,0.023927570838936388,5.0
0.6434124899713936,-0.4842060863080373,-0.4149450332104924,-0.008867581717292147,-0.00414492701737806,0.0005344759561773323,5.0
0.6469184880681573,-0.4842060863080373,-0.4258610024642631,-0.0026819004062407104,-0.002571071676793293,0.006599352388916815,5.0
0.6399064918746332,-0.4842060863080373,-0.41221605881075857,-0.013816126011680238,0.0021504955447077256,-0.015060920632328707,5.0
0.6399064918746332,-0.501346684975648,-0.3931130947029511,-0.02371321460045644,-0.00650571002825521,0.024793982347598484,5.0
0.6364004937778728,-0.4970615259325222,-0.40130008955698787,-0.01134185197835358,-0.026178904185058232,0.0005344759561773323,5.0
0.6504244861649182,-0.4884912453511635,-0.4067580622414006,-0.02371321460045644,-0.04585209774198789,0.010064996111943891,5.0
0.6434124899713936,-0.4627803285973009,-0.4149450332104924,-0.031136029155905985,-0.02224426523372295,0.013530640000086774,5.0
0.6504244861649182,-0.4799209272649116,-0.4149450332104924,-0.04288882326967716,-0.00021028806604278364,0.012664228821656296,5.0
0.6399064918746332,-0.47563576822178577,-0.42040302977985017,-0.043507391778008817,-0.019883481622972446,0.014397050848285641,5.0
0.6434124899713936,-0.4842060863080373,-0.42040302977985017,-0.059590165450101686,-0.012014204245191082,0.015263461696484506,5.0
0.6539304842616792,-0.46706548764042705,-0.4094870605260797,-0.06082730246676502,-0.007292637698547594,0.023061160651200757,5.0
0.6504244861649182,-0.46706548764042705,-0.4258610024642631,-0.05340448036678504,-0.00414492701737806,0.010064996111943891,5.0
0.6293884975843514,-0.4799209272649116,-0.3958420929876301,-0.05093021387798882,-0.003357998747212317,0.005732941375602142,5.0
0.6328944956811119,-0.4842060863080373,-0.3958420929876301,-0.0422702547613455,-0.002571071676793293,0.00400011967920441,5.0
0.6434124899713936,-0.49277636688939647,-0.3903841203032172,-0.0422702547613455,0.014741338269385862,0.014397050848285641,5.0
0.6434124899713936,-0.5056318440187737,-0.41221605881075857,-0.02556892012545144,0.015528266539551592,0.038656555918780346,5.0
0.6328944956811119,-0.4970615259325222,-0.398571091272309,-0.022476077583793108,0.02261061617205641,-0.01072886573087115,5.0
0.6504244861649182,-0.5056318440187737,-0.4149450332104924,-0.0039190374229040505,0.035201458896734546,-0.005530400641677954,5.0
0.6399064918746332,-0.5142021246001328,-0.43950597000271263,0.0035037809048107196,0.02969296580456121,0.012664228821656296,5.0
0.6399064918746332,-0.5056318440187737,-0.41221605881075857,0.015875143526913583,0.01316748412854782,0.009198585181187123,5.0
0.6399064918746332,-0.5227724426863845,-0.42040302977985017,0.0393807303398565,0.04543152160990232,0.005732941375602142,5.0
0.6469184880681573,-0.4970615259325222,-0.42313202806452926,0.043710707127920884,0.0359883871669003,-0.011595277239533242,5.0
0.6328944956811119,-0.49277636688939647,-0.4149450332104924,0.05360779707235489,0.03756224370723176,-0.025457850810715107,5.0
0.6469184880681573,-0.5056318440187737,-0.4258610024642631,0.05237066005569156,0.035201458896734546,-0.016793743649652887,5.0
0.6364004937778728,-0.4970615259325222,-0.4067580622414006,0.04494784337834284,0.020249833761052622,0.010064996111943891,5.0
0.6293884975843514,-0.49277636688939647,-0.40130008955698787,0.0406178666492201,0.0052982062258772585,0.006599352388916815,5.0
0.6504244861649182,-0.47563576822178577,-0.3876551220185383,0.06103061445700335,0.028119109264229745,0.007465763319673584,5.0
0.6364004937778728,-0.4713506466835528,-0.3876551220185383,0.04494784337834284,-0.00021028806604278364,0.006599352388916815,5.0
0.6188705032940676,-0.4627803285973009,-0.4094870605260797,0.03999929861242159,-0.024605047644726742,0.03519091252598488,5.0
0.6364004937778728,-0.4884912453511635,-0.4067580622414006,0.038143594266259476,-0.03798281983931734,0.04732066572169546,5.0
0.6609424804552004,-0.4842060863080373,-0.4176740314951713,0.054226364637620254,-0.012014204245191082,0.013530640000086774,5.0
0.6574364823584395,-0.49277636688939647,-0.4149450332104924,0.044329275223661035,0.006085134496043002,0.02132833763387657,5.0
0.6328944956811119,-0.4799209272649116,-0.41221605881075857,0.049896387908497514,-0.005718782357962825,-0.0003319348920215339,5.0
0.6399064918746332,-0.4627803285973009,-0.4067580622414006,0.05793777380147763,-0.023818120574307718,0.017862694241081105,5.0
0.6434124899713936,-0.47563576822178577,-0.4067580622414006,0.05793777380147763,-0.009653421009361422,0.014397050848285641,5.0
0.6364004937778728,-0.4713506466835528,-0.4094870605260797,0.07092770304577954,-0.013588059735744189,0.023061160651200757,5.0
0.6504244861649182,-0.4842060863080373,-0.3849261237338594,0.06907199940691716,-0.021457336963557207,0.02132833763387657,5.0
0.6609424804552004,-0.47563576822178577,-0.40130008955698787,0.07340197519297359,0.019462905490886882,0.013530640000086774,5.0
0.6504244861649182,-0.47563576822178577,-0.40130008955698787,0.05237066005569156,0.02654525512339168,-0.0011983457402203988,5.0
0.6399064918746332,-0.46706548764042705,-0.42040302977985017,0.04680354772450495,-0.00414492701737806,-0.006396812150340047,5.0
0.6399064918746332,-0.46706548764042705,-0.3876551220185383,0.05051495641682918,-0.008079565368839976,-0.005530400641677954,5.0
0.6469184880681573,-0.49277636688939647,-0.398571091272309,0.07463911220963693,-0.010440348679653806,-0.034121960613630216,5.0
0.6434124899713936,-0.47563576822178577,-0.3958420929876301,0.06721629388192216,-0.0017841434066275523,0.009198585181187123,5.0
0.6504244861649182,-0.47563576822178577,-0.40130008955698787,0.06783486239025381,0.0013635672745419807,-0.01072886573087115,5.0
0.6469184880681573,-0.4842060863080373,-0.40130008955698787,0.07896908988182598,-0.0009972163362085265,-0.012461688748195332,5.0
0.6434124899713936,-0.4884912453511635,-0.3876551220185383,0.08639190443727551,-0.004931854687670442,-0.012461688748195332,5.0
0.6434124899713936,-0.47563576822178577,-0.3931130947029511,0.07649481584849929,0.010806699318050582,-0.016793743649652887,5.0
0.6504244861649182,-0.4713506466835528,-0.4040290639567217,0.09567042828998527,0.0052982062258772585,-0.01939297553378626,5.0
0.6504244861649182,-0.4713506466835528,-0.4040290639567217,0.09257758574832695,-0.003357998747212317,-0.018526564025124172,5.0
0.6574364823584395,-0.4627803285973009,-0.3958420929876301,0.08701047294560715,-0.00414492701737806,-0.01939297553378626,5.0
0.6539304842616792,-0.4799209272649116,-0.37128115619540986,0.08329906566788242,-0.014374987481020741,0.014397050848285641,5.0
0.6539304842616792,-0.4799209272649116,-0.37128115619540986,0.10061897258437336,-0.021457336963557207,-0.033255551746821016,5.0
0.6469184880681573,-0.46706548764042705,-0.37128115619540986,0.09443329127332194,-0.018309626282387675,-0.00986245554313551,5.0
0.6504244861649182,-0.47563576822178577,-0.38219712544918055,0.09628899679831693,-0.0017841434066275523,0.0048665305274032756,5.0
0.6399064918746332,-0.46706548764042705,-0.3849261237338594,0.09195901723999525,-0.015161915301281465,-0.00986245554313551,5.0
0.6328944956811119,-0.47563576822178577,-0.3849261237338594,0.07216484006244289,-0.05844294286615946,0.0048665305274032756,5.0
0.6469184880681573,-0.47563576822178577,-0.38219712544918055,0.08453620268454574,-0.01909655395268006,-0.016793743649652887,5.0
0.6504244861649182,-0.46706548764042705,-0.40130008955698787,0.09134044873166361,-0.03326125261781632,-0.011595277239533242,5.0
0.6609424804552004,-0.46706548764042705,-0.4040290639567217,0.08268049715955073,0.009232845177212535,0.001400886804376201,5.0
0.6504244861649182,-0.4713506466835528,-0.40130008955698787,0.0931961542566586,0.019462905490886882,-0.00986245554313551,5.0
0.6293884975843514,-0.4713506466835528,-0.3958420929876301,0.07896908988182598,-0.01122727649991453,-0.012461688748195332,5.0
0.6469184880681573,-0.47563576822178577,-0.3849261237338594,0.07278340857077455,-0.01122727649991453,-0.0003319348920215339,5.0
0.6399064918746332,-0.47563576822178577,-0.37673915276476766,0.06536059024305976,-0.01594884297157385,0.0005344759561773323,5.0
0.6364004937778728,-0.47563576822178577,-0.368552181795676,0.06474202173472811,-0.023031192304141974,0.01179781797345743,5.0
0.6504244861649182,-0.45421004801594217,-0.38219712544918055,0.05979347744034002,-0.00414492701737806,-0.016793743649652887,5.0
0.6539304842616792,-0.45421004801594217,-0.3958420929876301,0.054226364637620254,-0.014374987481020741,0.006599352388916815,5.0
0.6574364823584395,-0.47563576822178577,-0.38219712544918055,0.03690645819266245,-0.01594884297157385,-0.0011983457402203988,5.0
0.6574364823584395,-0.46706548764042705,-0.3876551220185383,0.028246504262883818,-0.02853968659606202,0.001400886804376201,5.0
0.6574364823584395,-0.46706548764042705,-0.3849261237338594,0.0406178666492201,-0.0009972163362085265,0.010931407125258565,5.0
0.6399064918746332,-0.4842060863080373,-0.38219712544918055,0.03999929861242159,-0.017522698612095294,0.016996283392882238,5.0
0.6399064918746332,-0.47563576822178577,-0.3876551220185383,0.021442256329633334,-0.00886649333906904,-0.002931167436618131,5.0
0.6469184880681573,-0.4842060863080373,-0.3958420929876301,0.04494784337834284,-0.01594884297157385,0.014397050848285641,5.0
0.6434124899713936,-0.4799209272649116,-0.3876551220185383,0.04556641141514135,-0.007292637698547594,0.005732941375602142,5.0
0.6434124899713936,-0.47563576822178577,-0.3903841203032172,0.0251536636073581,-0.02696583125547725,0.020461927446140924,5.0
0.6328944956811119,-0.4713506466835528,-0.3876551220185383,0.03690645819266245,-0.055295229785496475,0.013530640000086774,5.0
0.6399064918746332,-0.47563576822178577,-0.3958420929876301,0.044329275223661035,-0.05844294286615946,-0.01072886573087115,5.0
0.6364004937778728,-0.4842060863080373,-0.3958420929876301,0.0567006367848143,-0.05136059083416122,0.010064996111943891,5.0
0.6364004937778728,-0.47563576822178577,-0.4094870605260797,0.0406178666492201,-0.02932661486622776,0.010064996111943891,5.0
0.6504244861649182,-0.47563576822178577,-0.40130008955698787,0.051752092490426206,-0.030900470206812528,0.013530640000086774,5.0
0.6364004937778728,-0.4884912453511635,-0.3876551220185383,0.06041204594867168,-0.03168739847697827,0.026526804043996217,5.0
0.6364004937778728,-0.4842060863080373,-0.3931130947029511,0.05113352398209454,-0.02932661486622776,-0.018526564025124172,5.0
0.6328944956811119,-0.47563576822178577,-0.41221605881075857,0.05298922856402323,-0.030113541936646785,0.01179781797345743,5.0
0.6504244861649182,-0.4842060863080373,-0.41221605881075857,0.044329275223661035,-0.025391975914892485,0.028259625740393948,5.0
0.6469184880681573,-0.4842060863080373,-0.398571091272309,0.036287890155863936,-0.03798281983931734,0.010064996111943891,5.0
0.6364004937778728,-0.47563576822178577,-0.38219712544918055,0.044329275223661035,-0.02696583125547725,0.014397050848285641,5.0
0.6328944956811119,-0.47563576822178577,-0.3903841203032172,0.049896387908497514,-0.04821288015299169,0.009198585181187123,5.0
0.6328944956811119,-0.4842060863080373,-0.4094870605260797,0.058556341366742995,-0.06080372287766981,0.014397050848285641,5.0
0.6434124899713936,-0.46706548764042705,-0.42040302977985017,0.03566932164753227,-0.044278241201656396,0.0048665305274032756,5.0
0.6328944956811119,-0.4884912453511635,-0.4176740314951713,0.05546350071121728,-0.047425951882825924,0.024793982347598484,5.0
0.6364004937778728,-0.47563576822178577,-0.3849261237338594,0.049277819871699,-0.04113053052048686,0.03779014705197115,5.0
0.6328944956811119,-0.46706548764042705,-0.4067580622414006,0.03690645819266245,-0.06945992905050612,0.02219474914253866,5.0
0.6328944956811119,-0.46706548764042705,-0.4094870605260797,0.04494784337834284,-0.052147519104326946,0.029992447436791674,5.0
0.6399064918746332,-0.4713506466835528,-0.3931130947029511,0.047422115761303466,-0.05608215805566223,0.04645425421303335,5.0
0.6504244861649182,-0.46706548764042705,-0.3849261237338594,0.03381361800866989,-0.04506516947182215,0.04991990024768172,5.0
0.6574364823584395,-0.47563576822178577,-0.3931130947029511,0.036287890155863936,-0.04585209774198789,0.03172526913318941,5.0
0.6399064918746332,-0.45849516955417513,-0.4094870605260797,0.03690645819266245,-0.05608215805566223,0.03519091252598488,5.0
0.6469184880681573,-0.4713506466835528,-0.40130008955698787,0.015875143526913583,-0.05922987113632519,0.016129872544683375,5.0
0.6469184880681573,-0.4713506466835528,-0.40130008955698787,0.03381361800866989,-0.047425951882825924,0.02132833763387657,5.0
0.6434124899713936,-0.47563576822178577,-0.4094870605260797,0.02453509698515905,-0.03798281983931734,0.006599352388916815,5.0
0.6504244861649182,-0.47563576822178577,-0.42040302977985017,0.03257648099200656,-0.02696583125547725,0.00400011967920441,5.0
0.6364004937778728,-0.4842060863080373,-0.4067580622414006,0.034432185573935244,-0.03562203742831355,0.020461927446140924,5.0
0.6328944956811119,-0.47563576822178577,-0.40130008955698787,0.017112278657444288,-0.02067040929326483,0.009198585181187123,5.0
0.6328944956811119,-0.4970615259325222,-0.4176740314951713,0.023916528476827386,-0.049786736693323175,0.02739321423173186,5.0
0.6469184880681573,-0.4842060863080373,-0.4094870605260797,0.030720777353144175,-0.03640896329898585,0.014397050848285641,5.0
0.6399064918746332,-0.49277636688939647,-0.3931130947029511,0.026390800624021434,-0.0348351091581478,0.015263461696484506,5.0
0.6293884975843514,-0.4884912453511635,-0.4149450332104924,0.0251536636073581,-0.012014204245191082,0.003133708500773932,5.0
0.6293884975843514,-0.4970615259325222,-0.4176740314951713,0.013400869493586907,-0.04034360225032114,0.02739321423173186,5.0
0.6399064918746332,-0.49277636688939647,-0.4149450332104924,0.018349415674107628,-0.07496842214267942,0.05945042155925892,5.0
0.6364004937778728,-0.4884912453511635,-0.4149450332104924,0.015256575018581903,-0.07654227868301092,0.04385502232889999,5.0
0.6504244861649182,-0.4842060863080373,-0.4094870605260797,0.031957913426741195,-0.06473836422849852,0.04645425421303335,5.0
0.6574364823584395,-0.47563576822178577,-0.42313202806452926,0.04680354772450495,-0.0781161352233424,0.056851187033272646,5.0
0.6434124899713936,-0.4970615259325222,-0.4040290639567217,0.03690645819266245,-0.042704387060818354,0.04298861082023789,5.0
0.6364004937778728,-0.4970615259325222,-0.43404799731829974,0.05608206921954895,-0.06631222076883002,0.04645425421303335,5.0
0.6328944956811119,-0.49277636688939647,-0.43404799731829974,0.06474202173472811,-0.07260764213116908,0.04038937893610453,5.0
0.6364004937778728,-0.4842060863080373,-0.42313202806452926,0.0567006367848143,-0.06001679460750407,0.024793982347598484,5.0
0.6328944956811119,-0.4842060863080373,-0.43950597000271263,0.06907199940691716,-0.03168739847697827,0.02739321423173186,5.0
0.6328944956811119,-0.4842060863080373,-0.43950597000271263,0.05360779707235489,-0.07103378559083758,-0.006396812150340047,5.0
0.6399064918746332,-0.4713506466835528,-0.44769296485674925,0.05113352398209454,-0.0529344473744927,0.02219474914253866,5.0
0.6539304842616792,-0.47563576822178577,-0.43950597000271263,0.03752502622946096,-0.03404818088798206,0.04991990024768172,5.0
0.6539304842616792,-0.47563576822178577,-0.43950597000271263,0.04123643468601861,-0.03798281983931734,0.03605732403464697,5.0
0.6293884975843514,-0.49277636688939647,-0.42040302977985017,0.0251536636073581,-0.027752759525642993,0.02219474914253866,5.0
0.6328944956811119,-0.4842060863080373,-0.43950597000271263,0.022679391460164046,-0.004931854687670442,0.025660392535334132,5.0
0.6328944956811119,-0.4842060863080373,-0.43950597000271263,0.010308030724193808,-0.02696583125547725,0.03172526913318941,5.0
0.6399064918746332,-0.501346684975648,-0.42040302977985017,0.028246504262883818,-0.02932661486622776,0.023061160651200757,5.0
0.6364004937778728,-0.5056318440187737,-0.42040302977985017,0.030102208844812506,-0.03876974810948309,0.005732941375602142,5.0
0.6364004937778728,-0.5056318440187737,-0.42040302977985017,0.03566932164753227,-0.02224426523372295,0.03952296742744242,5.0
0.6469184880681573,-0.49277636688939647,-0.4176740314951713,0.036287890155863936,-0.02224426523372295,0.03432450101732279,5.0
0.6399064918746332,-0.45849516955417513,-0.4176740314951713,0.03257648099200656,-0.01909655395268006,0.013530640000086774,5.0
0.6399064918746332,-0.49277636688939647,-0.4367769717180336,0.034432185573935244,-0.01909655395268006,0.02739321423173186,5.0
0.6293884975843514,-0.5056318440187737,-0.41221605881075857,0.042473570936440566,-0.017522698612095294,0.02739321423173186,5.0
0.6328944956811119,-0.501346684975648,-0.4040290639567217,0.03752502622946096,-0.030900470206812528,0.013530640000086774,5.0
0.6399064918746332,-0.4970615259325222,-0.42040302977985017,0.05360779707235489,-0.01909655395268006,0.016996283392882238,5.0
0.6328944956811119,-0.4970615259325222,-0.42040302977985017,0.04680354772450495,-0.02696583125547725,0.016996283392882238,5.0
0.6364004937778728,-0.4842060863080373,-0.42040302977985017,0.05298922856402323,-0.021457336963557207,0.029992447436791674,5.0
0.6434124899713936,-0.4970615259325222,-0.42313202806452926,0.047422115761303466,-0.01673577064186623,0.03432450101732279,5.0
0.6328944956811119,-0.4970615259325222,-0.43404799731829974,0.04680354772450495,-0.01122727649991453,0.030858857624527322,5.0
0.6364004937778728,-0.4970615259325222,-0.428590000748942,0.042473570936440566,-0.03168739847697827,0.00400011967920441,5.0
0.6399064918746332,-0.501346684975648,-0.42040302977985017,0.042473570936440566,-0.05372137324516501,0.04991990024768172,5.0
0.6328944956811119,-0.501346684975648,-0.42313202806452926,0.048040683798101974,-0.00414492701737806,0.02739321423173186,5.0
0.6328944956811119,-0.501346684975648,-0.428590000748942,0.049277819871699,-0.015161915301281465,0.028259625740393948,5.0
0.6258824994875906,-0.5056318440187737,-0.4367769717180336,0.043710707127920884,-0.010440348679653806,0.01179781797345743,5.0
0.6293884975843514,-0.5056318440187737,-0.4258610024642631,0.07216484006244289,-0.03404818088798206,0.02219474914253866,5.0
0.6399064918746332,-0.49277636688939647,-0.43950597000271263,0.0616491810792024,-0.027752759525642993,0.0005344759561773323,5.0
0.6504244861649182,-0.5099169655570067,-0.42040302977985017,0.05484493314595192,-0.01122727649991453,-0.0020647572488824892,5.0
0.6434124899713936,-0.4970615259325222,-0.4367769717180336,0.07649481584849929,-0.009653421009361422,0.02219474914253866,5.0
0.6293884975843514,-0.4970615259325222,-0.428590000748942,0.04865925183490049,-0.023031192304141974,0.009198585181187123,5.0
0.6364004937778728,-0.4842060863080373,-0.428590000748942,0.042473570936440566,-0.023818120574307718,0.01179781797345743,5.0
0.6328944956811119,-0.47563576822178577,-0.4094870605260797,0.05051495641682918,-0.00886649333906904,-0.008129633846737776,5.0
0.6328944956811119,-0.47563576822178577,-0.4094870605260797,0.043710707127920884,-0.002571071676793293,-0.0072632223380756835,5.0
0.6328944956811119,-0.501346684975648,-0.42040302977985017,0.047422115761303466,-0.03404818088798206,0.014397050848285641,5.0
0.6364004937778728,-0.5056318440187737,-0.43950597000271263,0.05917490893200835,-0.012014204245191082,0.012664228821656296,5.0
0.6364004937778728,-0.5056318440187737,-0.43950597000271263,0.0567006367848143,0.0005766402041229615,0.017862694241081105,5.0
0.6434124899713936,-0.4970615259325222,-0.45042193925648316,0.05917490893200835,-0.00650571002825521,0.026526804043996217,5.0
0.6364004937778728,-0.4970615259325222,-0.43131899903362086,0.08082479163455573,-0.021457336963557207,-0.014194509123666616,5.0
0.6364004937778728,-0.4970615259325222,-0.43131899903362086,0.06597915875139146,-0.04899980842315742,0.01959551593747884,5.0
0.6328944956811119,-0.4970615259325222,-0.428590000748942,0.06226774958753407,-0.02696583125547725,-0.003797578945280219,5.0
0.6328944956811119,-0.4970615259325222,-0.428590000748942,0.06907199940691716,-0.030900470206812528,-0.01072886573087115,5.0
0.6328944956811119,-0.5142021246001328,-0.428590000748942,0.08329906566788242,-0.014374987481020741,0.01959551593747884,5.0
0.6504244861649182,-0.5142021246001328,-0.43404799731829974,0.0802062231262241,-0.008079565368839976,0.0048665305274032756,5.0
0.6328944956811119,-0.5056318440187737,-0.43404799731829974,0.07340197519297359,-0.0017841434066275523,0.02912603724905604,5.0
0.6328944956811119,-0.5056318440187737,-0.43404799731829974,0.06721629388192216,-0.03326125261781632,0.003133708500773932,5.0
0.6399064918746332,-0.4970615259325222,-0.45860893411052,0.0616491810792024,-0.01122727649991453,0.010064996111943891,5.0
0.6539304842616792,-0.4842060863080373,-0.44769296485674925,0.06536059024305976,-0.0017841434066275523,0.02739321423173186,5.0
0.6434124899713936,-0.47563576822178577,-0.43404799731829974,0.03690645819266245,-0.003357998747212317,0.018729105749743197,5.0
0.6399064918746332,-0.4799209272649116,-0.4258610024642631,0.05298922856402323,-0.015161915301281465,0.015263461696484506,5.0
0.6328944956811119,-0.4842060863080373,-0.42040302977985017,0.049277819871699,-0.021457336963557207,0.0048665305274032756,5.0
0.6364004937778728,-0.4970615259325222,-0.43404799731829974,0.04618497945193986,-0.03640896329898585,0.001400886804376201,5.0
0.6399064918746332,-0.4970615259325222,-0.4367769717180336,0.04865925183490049,-0.009653421009361422,0.0048665305274032756,5.0
0.6364004937778728,-0.4970615259325222,-0.43950597000271263,0.03381361800866989,-0.019883481622972446,-0.004663989133015863,5.0
0.6364004937778728,-0.47563576822178577,-0.43950597000271263,0.03999929861242159,0.007658988636881049,-0.00986245554313551,5.0
0.6434124899713936,-0.49277636688939647,-0.42040302977985017,0.03999929861242159,0.017889048950555396,-0.00986245554313551,5.0
0.6328944956811119,-0.49277636688939647,-0.4094870605260797,0.051752092490426206,0.012380555858382068,0.017862694241081105,5.0
0.6258824994875906,-0.4884912453511635,-0.4094870605260797,0.0406178666492201,-0.00021028806604278364,0.029992447436791674,5.0
0.6293884975843514,-0.4842060863080373,-0.42040302977985017,0.031339344918409534,-0.027752759525642993,0.009198585181187123,5.0
0.6434124899713936,-0.4884912453511635,-0.42040302977985017,0.030102208844812506,-0.02224426523372295,0.01179781797345743,5.0
0.6434124899713936,-0.49277636688939647,-0.4094870605260797,0.043710707127920884,-0.030113541936646785,0.010064996111943891,5.0
0.6399064918746332,-0.47563576822178577,-0.4094870605260797,0.05113352398209454,-0.030113541936646785,0.023927570838936388,5.0
0.6399064918746332,-0.5099169655570067,-0.4149450332104924,0.06474202173472811,-0.009653421009361422,0.016996283392882238,5.0
0.6364004937778728,-0.5099169655570067,-0.4176740314951713,0.05546350071121728,0.009232845177212535,0.023061160651200757,5.0
0.6328944956811119,-0.4884912453511635,-0.4258610024642631,0.05298922856402323,-0.003357998747212317,0.010064996111943891,5.0
0.6328944956811119,-0.4970615259325222,-0.42313202806452926,0.04618497945193986,-0.021457336963557207,-0.015927332140990798,5.0
0.6328944956811119,-0.501346684975648,-0.42313202806452926,0.054226364637620254,-0.018309626282387675,0.0048665305274032756,5.0
0.6399064918746332,-0.501346684975648,-0.428590000748942,0.07587624734016764,-0.025391975914892485,-0.003797578945280219,5.0
0.6504244861649182,-0.501346684975648,-0.42040302977985017,0.06907199940691716,0.0052982062258772585,-0.018526564025124172,5.0
0.6504244861649182,-0.4842060863080373,-0.428590000748942,0.07649481584849929,-0.0009972163362085265,0.023927570838936388,5.0
0.6328944956811119,-0.4884912453511635,-0.43950597000271263,0.06103061445700335,-0.005718782357962825,-0.0020647572488824892,5.0
0.6293884975843514,-0.5099169655570067,-0.42040302977985017,0.06350488660419741,-0.013588059735744189,0.0005344759561773323,5.0
0.6293884975843514,-0.501346684975648,-0.4094870605260797,0.0567006367848143,0.01316748412854782,0.00400011967920441,5.0
0.6293884975843514,-0.4799209272649116,-0.428590000748942,0.05731920529314597,-0.015161915301281465,0.009198585181187123,5.0
0.6364004937778728,-0.4799209272649116,-0.4367769717180336,0.038762162303057984,-0.01594884297157385,0.010064996111943891,5.0
0.6399064918746332,-0.4842060863080373,-0.42313202806452926,0.038143594266259476,-0.019883481622972446,-0.002931167436618131,5.0
0.6469184880681573,-0.4799209272649116,-0.4149450332104924,0.03999929861242159,-0.026178904185058232,0.028259625740393948,5.0
0.6469184880681573,-0.49277636688939647,-0.4149450332104924,0.054226364637620254,-0.01673577064186623,0.01959551593747884,5.0
0.6469184880681573,-0.5056318440187737,-0.4558799358258411,0.05979347744034002,-0.00886649333906904,0.003133708500773932,5.0
0.6293884975843514,-0.501346684975648,-0.43404799731829974,0.054226364637620254,-0.0017841434066275523,-0.0003319348920215339,5.0
0.6328944956811119,-0.501346684975648,-0.428590000748942,0.06597915875139146,0.012380555858382068,0.018729105749743197,5.0
0.6328944956811119,-0.4842060863080373,-0.428590000748942,0.07216484006244289,-0.00650571002825521,0.016996283392882238,5.0
0.6504244861649182,-0.4842060863080373,-0.42040302977985017,0.08453620268454574,-0.024605047644726742,0.002267297652575067,5.0
0.6469184880681573,-0.4884912453511635,-0.43404799731829974,0.07030913453744786,-0.018309626282387675,0.02912603724905604,5.0
0.6539304842616792,-0.4799209272649116,-0.428590000748942,0.07649481584849929,-0.009653421009361422,0.0005344759561773323,5.0
0.6434124899713936,-0.4842060863080373,-0.43404799731829974,0.0616491810792024,-0.03404818088798206,-0.006396812150340047,5.0
0.6504244861649182,-0.5056318440187737,-0.4176740314951713,0.07649481584849929,-0.026178904185058232,0.016996283392882238,5.0
0.6434124899713936,-0.4884912453511635,-0.428590000748942,0.08762904145393885,-0.02067040929326483,0.015263461696484506,5.0
0.6469184880681573,-0.501346684975648,-0.43950597000271263,0.09752613004271503,-0.013588059735744189,0.0048665305274032756,5.0
0.6434124899713936,-0.4842060863080373,-0.4367769717180336,0.07896908988182598,-0.008079565368839976,-0.012461688748195332,5.0
0.6399064918746332,-0.4970615259325222,-0.42313202806452926,0.07216484006244289,-0.00650571002825521,0.0005344759561773323,5.0
0.6364004937778728,-0.49277636688939647,-0.4258610024642631,0.07340197519297359,-0.02853968659606202,0.013530640000086774,5.0
0.6399064918746332,-0.46706548764042705,-0.42313202806452926,0.05484493314595192,-0.02853968659606202,0.007465763319673584,5.0
0.6434124899713936,-0.4884912453511635,-0.4067580622414006,0.043710707127920884,-0.015161915301281465,-0.01072886573087115,5.0
0.6469184880681573,-0.4970615259325222,-0.43950597000271263,0.06041204594867168,-0.023818120574307718,0.03605732403464697,5.0
0.6399064918746332,-0.5056318440187737,-0.4367769717180336,0.05298922856402323,-0.005718782357962825,0.017862694241081105,5.0
0.6399064918746332,-0.5056318440187737,-0.4367769717180336,0.04680354772450495,0.0029374226151267515,-0.01939297553378626,5.0
0.6328944956811119,-0.47563576822178577,-0.428590000748942,0.05051495641682918,-0.002571071676793293,0.010064996111943891,5.0
0.6399064918746332,-0.4627803285973009,-0.4176740314951713,0.04556641141514135,-0.014374987481020741,0.024793982347598484,5.0
0.6434124899713936,-0.4970615259325222,-0.4149450332104924,0.05360779707235489,-0.004931854687670442,0.015263461696484506,5.0
0.6328944956811119,-0.49277636688939647,-0.4176740314951713,0.03566932164753227,-0.009653421009361422,0.00400011967920441,5.0
0.6364004937778728,-0.4842060863080373,-0.42040302977985017,0.038762162303057984,-0.007292637698547594,0.005732941375602142,5.0
0.6399064918746332,-0.501346684975648,-0.42040302977985017,0.03690645819266245,-0.005718782357962825,0.02132833763387657,5.0
0.6399064918746332,-0.5099169655570067,-0.4258610024642631,0.038762162303057984,-0.0017841434066275523,0.020461927446140924,5.0
0.6399064918746332,-0.4970615259325222,-0.42040302977985017,0.05546350071121728,-0.015161915301281465,0.0048665305274032756,5.0
0.6328944956811119,-0.5056318440187737,-0.4040290639567217,0.05979347744034002,-0.01909655395268006,0.024793982347598484,5.0
0.6434124899713936,-0.5142021246001328,-0.4176740314951713,0.054226364637620254,-0.019883481622972446,0.010931407125258565,5.0
0.6399064918746332,-0.501346684975648,-0.42040302977985017,0.06226774958753407,-0.015161915301281465,0.001400886804376201,5.0
0.6328944956811119,-0.5056318440187737,-0.43131899903362086,0.06412345511252907,-0.00886649333906904,0.015263461696484506,5.0
0.6328944956811119,-0.4970615259325222,-0.43404799731829974,0.07092770304577954,-0.00021028806604278364,0.018729105749743197,5.0
0.6328944956811119,-0.4970615259325222,-0.43404799731829974,0.044329275223661035,-0.030113541936646785,0.014397050848285641,5.0
0.6364004937778728,-0.47563576822178577,-0.428590000748942,0.04494784337834284,-0.027752759525642993,0.015263461696484506,5.0
0.6364004937778728,-0.4842060863080373,-0.4149450332104924,0.042473570936440566,-0.009653421009361422,-0.008129633846737776,5.0
0.6364004937778728,-0.4842060863080373,-0.4149450332104924,0.06721629388192216,0.007658988636881049,-0.0020647572488824892,5.0
0.6469184880681573,-0.4799209272649116,-0.4258610024642631,0.05793777380147763,0.007658988636881049,0.00400011967920441,5.0
0.6504244861649182,-0.4970615259325222,-0.43404799731829974,0.05113352398209454,-0.007292637698547594,0.001400886804376201,5.0
0.6504244861649182,-0.4970615259325222,-0.43404799731829974,0.04556641141514135,0.007658988636881049,0.028259625740393948,5.0
0.6364004937778728,-0.5056318440187737,-0.4094870605260797,0.03381361800866989,-0.008079565368839976,0.001400886804376201,5.0
0.6504244861649182,-0.49277636688939647,-0.42313202806452926,0.0684534308985855,-0.02224426523372295,0.01959551593747884,5.0
0.6504244861649182,-0.49277636688939647,-0.42313202806452926,0.06103061445700335,-0.007292637698547594,-0.0020647572488824892,5.0
0.6399064918746332,-0.4884912453511635,-0.428590000748942,0.06969056791524884,-0.026178904185058232,0.00400011967920441,5.0
0.6399064918746332,-0.4970615259325222,-0.428590000748942,0.07092770304577954,-0.017522698612095294,0.016129872544683375,5.0
0.6434124899713936,-0.4970615259325222,-0.43950597000271263,0.04494784337834284,-0.015161915301281465,0.023927570838936388,5.0
0.6364004937778728,-0.4884912453511635,-0.4176740314951713,0.04865925183490049,-0.017522698612095294,0.020461927446140924,5.0
0.6434124899713936,-0.49277636688939647,-0.4094870605260797,0.043710707127920884,-0.025391975914892485,0.0005344759561773323,5.0
0.6328944956811119,-0.4842060863080373,-0.42040302977985017,0.048040683798101974,-0.04506516947182215,0.009198585181187123,5.0
0.6434124899713936,-0.501346684975648,-0.4176740314951713,0.04618497945193986,-0.012014204245191082,-0.004663989133015863,5.0
0.6399064918746332,-0.5142021246001328,-0.43131899903362086,0.03257648099200656,-0.008079565368839976,0.006599352388916815,5.0
0.6399064918746332,-0.5056318440187737,-0.4149450332104924,0.047422115761303466,0.0037243508852924925,0.0005344759561773323,5.0
0.6223765013908288,-0.4884912453511635,-0.4149450332104924,0.04618497945193986,-0.007292637698547594,0.007465763319673584,5.0
0.6328944956811119,-0.5099169655570067,-0.41221605881075857,0.04123643468601861,-0.02067040929326483,0.0005344759561773323,5.0
0.6328944956811119,-0.501346684975648,-0.4258610024642631,0.048040683798101974,-0.024605047644726742,-0.01072886573087115,5.0
0.6469184880681573,-0.4799209272649116,-0.4258610024642631,0.049896387908497514,-0.01673577064186623,0.010064996111943891,5.0
0.6399064918746332,-0.4842060863080373,-0.4258610024642631,0.05793777380147763,-0.00650571002825521,0.009198585181187123,5.0
0.6293884975843514,-0.501346684975648,-0.4094870605260797,0.05917490893200835,-0.015161915301281465,0.018729105749743197,5.0
0.6399064918746332,-0.5056318440187737,-0.428590000748942,0.05484493314595192,-0.009653421009361422,0.003133708500773932,5.0
0.6399064918746332,-0.49277636688939647,-0.428590000748942,0.05484493314595192,-0.005718782357962825,-0.004663989133015863,5.0
0.6469184880681573,-0.4884912453511635,-0.4149450332104924,0.06597915875139146,-0.008079565368839976,0.02219474914253866,5.0
0.6328944956811119,-0.4884912453511635,-0.42040302977985017,0.05917490893200835,-0.01673577064186623,0.009198585181187123,5.0
0.6293884975843514,-0.4884912453511635,-0.428590000748942,0.047422115761303466,0.0005766402041229615,-0.002931167436618131,5.0
0.6328944956811119,-0.501346684975648,-0.4149450332104924,0.06474202173472811,-0.018309626282387675,-0.013328098935930972,5.0
0.6328944956811119,-0.501346684975648,-0.42040302977985017,0.06103061445700335,-0.015161915301281465,0.018729105749743197,5.0
0.6399064918746332,-0.4970615259325222,-0.3958420929876301,0.07216484006244289,-0.01122727649991453,0.026526804043996217,5.0
0.6399064918746332,-0.5056318440187737,-0.4149450332104924,0.08206192865121907,-0.02932661486622776,0.023061160651200757,5.0
0.6258824994875906,-0.501346684975648,-0.4176740314951713,0.05484493314595192,-0.021457336963557207,0.0048665305274032756,5.0
0.6328944956811119,-0.4970615259325222,-0.45315093754116204,0.06907199940691716,-0.019883481622972446,-0.0072632223380756835,5.0
0.6328944956811119,-0.4842060863080373,-0.4422349682873915,0.05113352398209454,0.014741338269385862,-0.003797578945280219,5.0
0.6504244861649182,-0.47563576822178577,-0.43950597000271263,0.06474202173472811,-0.01122727649991453,0.02132833763387657,5.0
0.6504244861649182,-0.4842060863080373,-0.4367769717180336,0.06783486239025381,-0.02224426523372295,0.001400886804376201,5.0
0.6469184880681573,-0.4970615259325222,-0.428590000748942,0.05113352398209454,-0.003357998747212317,0.010931407125258565,5.0
0.6469184880681573,-0.4842060863080373,-0.42313202806452926,0.03319504950033822,0.0021504955447077256,0.01179781797345743,5.0
0.6328944956811119,-0.4842060863080373,-0.43131899903362086,0.021442256329633334,-0.013588059735744189,0.017862694241081105,5.0
0.6258824994875906,-0.4884912453511635,-0.4149450332104924,0.011545165854724522,-0.027752759525642993,0.018729105749743197,5.0
0.6364004937778728,-0.5056318440187737,-0.43404799731829974,0.047422115761303466,-0.01594884297157385,-0.002931167436618131,5.0
0.6328944956811119,-0.4884912453511635,-0.43404799731829974,0.05546350071121728,-0.023031192304141974,0.017862694241081105,5.0
0.6399064918746332,-0.4799209272649116,-0.44769296485674925,0.038143594266259476,-0.013588059735744189,0.009198585181187123,5.0
0.6399064918746332,-0.4970615259325222,-0.4367769717180336,0.03381361800866989,0.014741338269385862,0.03432450101732279,5.0
0.6399064918746332,-0.5056318440187737,-0.4367769717180336,0.02453509698515905,0.012380555858382068,0.020461927446140924,5.0
0.6364004937778728,-0.501346684975648,-0.43131899903362086,0.03319504950033822,-0.00414492701737806,0.02132833763387657,5.0
0.6364004937778728,-0.5142021246001328,-0.4094870605260797,0.058556341366742995,-0.026178904185058232,0.02132833763387657,5.0
0.6293884975843514,-0.5056318440187737,-0.398571091272309,0.06412345511252907,-0.03562203742831355,0.020461927446140924,5.0
0.6399064918746332,-0.5099169655570067,-0.42040302977985017,0.07958765839015762,-0.01122727649991453,-0.0011983457402203988,5.0
0.6364004937778728,-0.4970615259325222,-0.4176740314951713,0.08206192865121907,-0.018309626282387675,0.002267297652575067,5.0
0.6293884975843514,-0.49277636688939647,-0.4258610024642631,0.06474202173472811,-0.012014204245191082,0.012664228821656296,5.0
0.6364004937778728,-0.4970615259325222,-0.42313202806452926,0.06412345511252907,-0.02224426523372295,0.01959551593747884,5.0
0.6504244861649182,-0.4884912453511635,-0.43950597000271263,0.07402054370130524,-0.03326125261781632,0.01179781797345743,5.0
0.6434124899713936,-0.4970615259325222,-0.43950597000271263,0.07216484006244289,-0.04191745879065262,-0.028923496845363477,5.0
0.6469184880681573,-0.5056318440187737,-0.43404799731829974,0.06721629388192216,-0.03404818088798206,0.001400886804376201,5.0
0.6399064918746332,-0.4970615259325222,-0.428590000748942,0.06907199940691716,-0.0009972163362085265,0.028259625740393948,5.0
0.6364004937778728,-0.501346684975648,-0.4258610024642631,0.07402054370130524,0.0013635672745419807,0.010064996111943891,5.0
0.6258824994875906,-0.49277636688939647,-0.4258610024642631,0.06288631809586573,-0.008079565368839976,0.01179781797345743,5.0
0.6258824994875906,-0.49277636688939647,-0.428590000748942,0.058556341366742995,-0.027752759525642993,0.0005344759561773323,5.0
0.6293884975843514,-0.4970615259325222,-0.4094870605260797,0.0567006367848143,-0.015161915301281465,0.01179781797345743,5.0
0.6188705032940676,-0.4842060863080373,-0.4258610024642631,0.06226774958753407,-0.02696583125547725,0.006599352388916815,5.0
0.6258824994875906,-0.4842060863080373,-0.42313202806452926,0.04494784337834284,-0.01594884297157385,0.003133708500773932,5.0
0.6258824994875906,-0.4884912453511635,-0.42313202806452926,0.06041204594867168,-0.027752759525642993,0.02912603724905604,5.0
0.6399064918746332,-0.4842060863080373,-0.4176740314951713,0.06783486239025381,-0.005718782357962825,0.006599352388916815,5.0
0.6399064918746332,-0.4884912453511635,-0.4094870605260797,0.054226364637620254,-0.002571071676793293,0.014397050848285641,5.0
0.6434124899713936,-0.5056318440187737,-0.4149450332104924,0.05793777380147763,-0.021457336963557207,-0.022858618926581715,5.0
0.6399064918746332,-0.4970615259325222,-0.428590000748942,0.06783486239025381,-0.00886649333906904,-0.003797578945280219,5.0
0.6328944956811119,-0.4970615259325222,-0.428590000748942,0.06536059024305976,-0.02224426523372295,0.018729105749743197,5.0
0.6399064918746332,-0.4970615259325222,-0.43404799731829974,0.0567006367848143,-0.0017841434066275523,-0.005530400641677954,5.0
0.6399064918746332,-0.4970615259325222,-0.43404799731829974,0.0567006367848143,-0.021457336963557207,0.016996283392882238,5.0
0.6399064918746332,-0.5142021246001328,-0.43404799731829974,0.06041204594867168,-0.03955667637964883,-0.0003319348920215339,5.0
0.6434124899713936,-0.49277636688939647,-0.42313202806452926,0.06103061445700335,-0.008079565368839976,0.003133708500773932,5.0
0.6399064918746332,-0.4842060863080373,-0.45042193925648316,0.06597915875139146,0.0013635672745419807,0.005732941375602142,5.0
0.6399064918746332,-0.4842060863080373,-0.44496396657207044,0.05917490893200835,-0.021457336963557207,0.00400011967920441,5.0
0.6434124899713936,-0.5056318440187737,-0.44769296485674925,0.05608206921954895,-0.044278241201656396,-0.002931167436618131,5.0
0.6399064918746332,-0.4842060863080373,-0.43950597000271263,0.058556341366742995,-0.02696583125547725,-0.005530400641677954,5.0
0.6434124899713936,-0.49277636688939647,-0.45042193925648316,0.054226364637620254,0.011593627588216325,-0.02805708533670137,5.0
0.6434124899713936,-0.49277636688939647,-0.45042193925648316,0.0567006367848143,0.0029374226151267515,-0.004663989133015863,5.0
0.6364004937778728,-0.4799209272649116,-0.43131899903362086,0.05051495641682918,0.02497140098255364,0.013530640000086774,5.0
0.6223765013908288,-0.47563576822178577,-0.4367769717180336,0.0270093691323531,-0.010440348679653806,0.025660392535334132,5.0
0.6223765013908288,-0.47563576822178577,-0.4367769717180336,0.038143594266259476,-0.013588059735744189,0.0005344759561773323,5.0
0.6399064918746332,-0.501346684975648,-0.4176740314951713,0.07154627155411121,0.0021504955447077256,-0.0003319348920215339,5.0
0.6258824994875906,-0.5099169655570067,-0.42313202806452926,0.06350488660419741,-0.015161915301281465,0.007465763319673584,5.0
0.6258824994875906,-0.5099169655570067,-0.42313202806452926,0.06103061445700335,-0.0017841434066275523,0.01179781797345743,5.0
0.6399064918746332,-0.5056318440187737,-0.428590000748942,0.05979347744034002,0.02261061617205641,0.0048665305274032756,5.0
0.6434124899713936,-0.501346684975648,-0.42040302977985017,0.0567006367848143,-0.0009972163362085265,0.0048665305274032756,5.0
0.6328944956811119,-0.5184872836432586,-0.4422349682873915,0.06969056791524884,-0.017522698612095294,-0.005530400641677954,5.0
0.6293884975843514,-0.5056318440187737,-0.4258610024642631,0.06226774958753407,-0.02853968659606202,0.017862694241081105,5.0
0.6364004937778728,-0.4884912453511635,-0.43950597000271263,0.0684534308985855,-0.01594884297157385,0.006599352388916815,5.0
0.6328944956811119,-0.5056318440187737,-0.4258610024642631,0.06721629388192216,0.0021504955447077256,0.010931407125258565,5.0
0.6258824994875906,-0.4970615259325222,-0.428590000748942,0.05608206921954895,-0.007292637698547594,0.018729105749743197,5.0
0.6364004937778728,-0.4842060863080373,-0.4367769717180336,0.048040683798101974,0.0037243508852924925,0.013530640000086774,5.0
0.6293884975843514,-0.4884912453511635,-0.428590000748942,0.048040683798101974,-0.014374987481020741,-0.0011983457402203988,5.0
0.6328944956811119,-0.4970615259325222,-0.40130008955698787,0.04556641141514135,-0.019883481622972446,0.001400886804376201,5.0
0.6328944956811119,-0.4970615259325222,-0.42313202806452926,0.04494784337834284,-0.008079565368839976,-0.0011983457402203988,5.0
0.6469184880681573,-0.4842060863080373,-0.43404799731829974,0.04680354772450495,-0.01594884297157385,0.024793982347598484,5.0
0.6434124899713936,-0.4713506466835528,-0.428590000748942,0.049896387908497514,0.010806699318050582,-0.01072886573087115,5.0
0.6364004937778728,-0.4884912453511635,-0.4422349682873915,0.05298922856402323,-0.00414492701737806,0.010931407125258565,5.0
0.6399064918746332,-0.5099169655570067,-0.428590000748942,0.05484493314595192,-0.015161915301281465,-0.011595277239533242,5.0
0.6328944956811119,-0.501346684975648,-0.4094870605260797,0.05793777380147763,-0.01594884297157385,-0.003797578945280219,5.0
0.6364004937778728,-0.5056318440187737,-0.4258610024642631,0.05546350071121728,-0.0009972163362085265,-0.00986245554313551,5.0
0.6399064918746332,-0.501346684975648,-0.428590000748942,0.0616491810792024,-0.00021028806604278364,0.001400886804376201,5.0
0.6328944956811119,-0.4970615259325222,-0.42040302977985017,0.04680354772450495,-0.014374987481020741,-0.003797578945280219,5.0
0.6328944956811119,-0.501346684975648,-0.42313202806452926,0.05917490893200835,-0.01122727649991453,0.003133708500773932,5.0
0.6328944956811119,-0.501346684975648,-0.43404799731829974,0.05793777380147763,-0.00021028806604278364,-0.004663989133015863,5.0
0.6223765013908288,-0.4970615259325222,-0.44769296485674925,0.048040683798101974,-0.002571071676793293,0.01179781797345743,5.0
0.6328944956811119,-0.4970615259325222,-0.44769296485674925,0.05546350071121728,-0.003357998747212317,-0.0003319348920215339,5.0
0.6364004937778728,-0.4842060863080373,-0.4094870605260797,0.05979347744034002,-0.005718782357962825,-0.0011983457402203988,5.0
0.6399064918746332,-0.47563576822178577,-0.44769296485674925,0.04556641141514135,0.0005766402041229615,0.03605732403464697,5.0
0.6364004937778728,-0.4842060863080373,-0.43404799731829974,0.051752092490426206,-0.00886649333906904,-0.006396812150340047,5.0
0.6328944956811119,-0.4842060863080373,-0.4149450332104924,0.05917490893200835,0.0021504955447077256,0.0048665305274032756,5.0
0.6328944956811119,-0.49277636688939647,-0.4367769717180336,0.04123643468601861,-0.017522698612095294,0.012664228821656296,5.0
0.6399064918746332,-0.5099169655570067,-0.42040302977985017,0.0684534308985855,-0.026178904185058232,0.006599352388916815,5.0
0.6399064918746332,-0.4884912453511635,-0.43404799731829974,0.05979347744034002,-0.004931854687670442,0.003133708500773932,5.0
0.6434124899713936,-0.4970615259325222,-0.428590000748942,0.06659772725972311,-0.019883481622972446,0.001400886804376201,5.0
0.6328944956811119,-0.5056318440187737,-0.42040302977985017,0.06659772725972311,-0.002571071676793293,0.006599352388916815,5.0
0.6328944956811119,-0.5056318440187737,-0.42040302977985017,0.06350488660419741,-0.008079565368839976,0.012664228821656296,5.0
0.6293884975843514,-0.47563576822178577,-0.43950597000271263,0.0393807303398565,0.0037243508852924925,0.02132833763387657,5.0
0.6328944956811119,-0.4842060863080373,-0.42040302977985017,0.028246504262883818,-0.030900470206812528,0.010931407125258565,5.0
0.6328944956811119,-0.4842060863080373,-0.42040302977985017,0.05051495641682918,-0.03562203742831355,0.012664228821656296,5.0
0.6399064918746332,-0.5099169655570067,-0.42040302977985017,0.07216484006244289,-0.02224426523372295,-0.0011983457402203988,5.0
0.6364004937778728,-0.4842060863080373,-0.43404799731829974,0.07092770304577954,-0.00650571002825521,0.017862694241081105,5.0
0.6364004937778728,-0.4842060863080373,-0.43404799731829974,0.06041204594867168,0.010806699318050582,0.0048665305274032756,5.0
0.6399064918746332,-0.5056318440187737,-0.4149450332104924,0.07154627155411121,0.0052982062258772585,0.010931407125258565,5.0
0.6328944956811119,-0.4842060863080373,-0.4176740314951713,0.07216484006244289,-0.02696583125547725,-0.0072632223380756835,5.0
0.6328944956811119,-0.4842060863080373,-0.4176740314951713,0.06721629388192216,-0.018309626282387675,0.0005344759561773323,5.0
0.6223765013908288,-0.4970615259325222,-0.4094870605260797,0.06103061445700335,-0.021457336963557207,0.00400011967920441,5.0
0.6328944956811119,-0.5056318440187737,-0.43404799731829974,0.06907199940691716,-0.00021028806604278364,-0.0072632223380756835,5.0
0.6328944956811119,-0.4970615259325222,-0.43404799731829974,0.07340197519297359,0.0037243508852924925,0.012664228821656296,5.0
0.6328944956811119,-0.501346684975648,-0.42040302977985017,0.06969056791524884,-0.012014204245191082,0.014397050848285641,5.0
0.6328944956811119,-0.4970615259325222,-0.4367769717180336,0.05608206921954895,-0.019883481622972446,0.00400011967920441,5.0
0.6223765013908288,-0.4970615259325222,-0.43950597000271263,0.06969056791524884,-0.012014204245191082,0.006599352388916815,5.0
0.6399064918746332,-0.4970615259325222,-0.428590000748942,0.05237066005569156,-0.00650571002825521,0.025660392535334132,5.0
0.6399064918746332,-0.4799209272649116,-0.428590000748942,0.06597915875139146,-0.015161915301281465,0.009198585181187123,5.0
0.6399064918746332,-0.4884912453511635,-0.428590000748942,0.044329275223661035,-0.019883481622972446,0.02132833763387657,5.0
0.6328944956811119,-0.5056318440187737,-0.4149450332104924,0.06597915875139146,-0.030113541936646785,0.028259625740393948,5.0
0.6434124899713936,-0.4884912453511635,-0.398571091272309,0.07278340857077455,-0.02853968659606202,0.013530640000086774,5.0
0.6469184880681573,-0.501346684975648,-0.428590000748942,0.07216484006244289,-0.013588059735744189,0.016996283392882238,5.0
0.6434124899713936,-0.5056318440187737,-0.4258610024642631,0.06659772725972311,0.0005766402041229615,0.018729105749743197,5.0
0.6399064918746332,-0.4884912453511635,-0.42040302977985017,0.07649481584849929,0.012380555858382068,0.012664228821656296,5.0
0.6469184880681573,-0.49277636688939647,-0.4094870605260797,0.06474202173472811,-0.007292637698547594,0.003133708500773932,5.0
0.6364004937778728,-0.4842060863080373,-0.4258610024642631,0.06659772725972311,-0.014374987481020741,-0.014194509123666616,5.0
0.6258824994875906,-0.47563576822178577,-0.42313202806452926,0.06412345511252907,-0.02067040929326483,0.014397050848285641,5.0
0.6293884975843514,-0.4799209272649116,-0.428590000748942,0.06907199940691716,-0.03640896329898585,0.023061160651200757,5.0
0.6399064918746332,-0.4970615259325222,-0.42040302977985017,0.06536059024305976,-0.03562203742831355,0.016996283392882238,5.0
0.6469184880681573,-0.49277636688939647,-0.42040302977985017,0.06226774958753407,-0.01122727649991453,0.002267297652575067,5.0
0.6328944956811119,-0.4884912453511635,-0.41221605881075857,0.0567006367848143,0.006872061566462023,0.02739321423173186,5.0
0.6328944956811119,-0.4713506466835528,-0.42040302977985017,0.05793777380147763,-0.030900470206812528,0.028259625740393948,5.0
0.6328944956811119,-0.4842060863080373,-0.43131899903362086,0.0567006367848143,-0.004931854687670442,0.00400011967920441,5.0
0.6328944956811119,-0.4842060863080373,-0.4149450332104924,0.048040683798101974,-0.00886649333906904,0.012664228821656296,5.0
