acc_x,acc_y,acc_z,gyro_x,gyro_y,gyro_z,activity
-0.8298254136304647,0.8748711782482534,3.7277913510305694,-0.3899671236886712,-0.13013719432125417,-0.10290764004525783,0.0
-0.7984659154937581,0.884928642274008,3.813231344993203,-0.5934499151812497,0.10086074653003717,-0.24575334086622513,0.0
-0.7715865025005637,0.884928642274008,3.7790553474081494,-0.608141824481408,-0.3121355871150887,0.06625173124477185,0.0
-0.762626645890076,0.8614612848977122,3.685071354049253,-0.23570217459352388,-0.49013397622963667,0.3156051662463441,0.0
-0.7805463591110514,0.8111740234527378,3.693615353445516,-0.1894226871770747,-0.6861322660327259,0.3281354982531119,0.0
-0.7984659154937581,0.7944116420936117,3.667983654374476,-0.4428579613305085,-0.5961330309164924,0.06750476062471292,0.0
-0.8298254136304647,0.7977641301021964,3.685071354049253,-0.5846347696011548,-0.064137786134216,-0.15302892986497194,0.0
-0.8387852702409524,0.7776492607344854,3.6081756586006315,-0.637525607242992,0.27885917223455853,-0.10290764004525783,0.0
-0.8477451268514401,0.767591796708731,3.6252636573931594,-0.632383465866986,0.33685864624297013,0.08254115139136287,0.0
-0.901504109676097,0.7508294153496048,3.6423516561856855,-0.5067677040684146,0.2698592340869459,0.11887909128657521,0.0
-0.9507831641955106,0.7474769273410198,3.719247351634305,-0.48105688967218735,-0.005138308156818323,0.11637302488522164,0.0
-0.9687028774164856,0.7575343326829764,3.8046873455969386,-0.5699428961397291,0.007861575735956517,0.07627598920871466,0.0
-0.9507831641955106,0.7340669753066806,3.7277913510305694,-0.5537818138289216,-0.047137938201292306,-0.08787124927860789,0.0
-0.9239037512023162,0.7608868206915612,3.710703352238042,-0.4017206332094314,-0.10113745731704835,0.062492631642741506,0.0
-0.8835843964551222,0.7776492607344854,3.6423516561856855,-0.23496757912851596,-0.09313752313842179,0.19907315499811773,0.0
-0.8656646832341465,0.7877066660764421,3.5996316592043685,-0.23423298366350803,-0.05113789919227672,0.3995583448428599,0.0
-0.8835843964551222,0.7742967727259007,3.6167196579968963,-0.39731306041938386,0.042861264136423355,0.36071433090482247,0.0
-0.8835843964551222,0.7441244393324353,3.5996316592043685,-0.4186163199449304,0.16186020805209148,0.2479414192586265,0.0
-0.8925442530656096,0.7206570819561393,3.685071354049253,-0.26582057073948206,0.168860138261732,0.20032618819879455,0.0
-0.8791044681498782,0.7240095699647243,3.710703352238042,-0.20925675577260527,0.12986048963257185,0.23666413573547831,0.0
-0.8880643247603656,0.7575343326829764,3.753423349219359,-0.30328491257583623,0.07586097051681577,0.286785417913721,0.0
-0.8611849117671715,0.7441244393324353,3.7790553474081494,-0.4289006385356749,0.07686096228914409,0.3682325301088832,0.0
-0.8432651985461964,0.7340669753066806,3.7875993468044125,-0.3510335909223012,0.18585999839131342,0.4634629922285472,0.0
-0.8970241813708533,0.6871322605540889,3.847407043460506,-0.30328491257583623,-0.16313689841477325,0.4684751250312544,0.0
-0.9597430208059983,0.6536074391520389,3.864495042253032,-0.13873563593026125,-0.7511316702507779,0.40707654404692056,0.0
-1.0359016451568743,0.6603124151692084,3.7790553474081494,-0.0402999063369828,-0.7291318756528703,0.041191082514179085,0.0
-1.0359016451568743,0.6603124151692084,3.7790553474081494,-0.03809612442180065,-0.7601315840050749,-0.03649692625821703,0.0
-1.0359016451568743,0.6603124151692084,3.7790553474081494,-0.03809612442180065,-0.7601315840050749,-0.03649692625821703,0.0
-1.403254981995524,0.5429755696039313,3.761967348615622,0.43571764139923524,-1.999120572743795,-2.735528736467874,0.0
-1.510773026063973,0.5798528790145665,3.6252636573931594,0.32038623403014127,-1.310126692885919,-4.241673512743591,0.0
-1.4614938931254253,0.6871322605540889,3.4543839685856415,-0.07482587303306769,0.5388568622867133,-5.8856520939231896,0.0
-1.3942951253850364,0.7608868206915612,3.4372959697931154,-0.46416122085605477,0.6658557319958059,-6.06859454386548,0.0
-1.1165401978129943,0.8413463568462034,3.0613608937107784,-0.9357711689231757,-0.4971339308325929,-5.79042150953998,0.0
-0.9463032358902664,0.884928642274008,2.975921198865895,-0.7183310546357635,-0.8561306965753317,-4.883226022435934,0.0
-0.5475905577531787,1.0156753811898265,3.1468005885556614,-0.11375940607942778,-0.8871305025007984,-3.7868228124056085,0.0
-0.12647808125160326,1.18329942951628,3.240784581914558,-0.06086856591767966,-0.7071320810549626,-1.8972500295522219,0.0
0.29463423841170333,1.3911532165781553,3.4372959697931154,-0.1622426728911482,-0.6561325372561915,0.02740772638098182,0.0
0.5320698112365511,1.4917276221005082,3.693615353445516,-0.3245881721013826,-0.618132874301031,1.9395350939515665,0.0
0.6440680188676468,1.5520722888874392,3.838863044064243,-0.38188656461390097,-0.32013549690039994,3.6211044571902633,0.0
0.6037486641204521,1.458202859382256,3.8046873455969386,-0.36572548230309315,0.07186100647666692,5.372843924193946,0.0
0.2856743818012156,1.233586632277456,3.83031904466798,-0.5280709635939612,0.047861219853614134,6.166013497017004,0.0
-0.17575729260928524,1.0123228931812416,3.761967348615622,-0.719800227646413,0.37885827628744406,6.461728904454325,0.0
-0.7267872194481254,0.8279364634956619,3.7448793498230954,-0.9813161056730327,0.730855136213858,5.905382346749149,0.0
-1.1926988221638708,0.5999677483822775,3.6081756586006315,-1.198756219960445,0.5258569814431029,5.12599627668002,0.0
-1.5958915070253366,0.3217118305077165,3.3262242767594423,-0.8152976201780757,-0.22313638036115704,4.1824630865663766,0.0
-1.8870862195131102,0.14067786682429742,3.180976586140715,-0.053522620227283685,-0.7581316248537338,2.475832998182371,0.0
-2.0483633248253503,0.08368569538142605,3.1040808906920954,0.18668993107616602,-1.3111267212482205,1.078701819989618,0.0
-2.0214838334130216,0.13397290547807725,3.1382565891593983,0.31377488380475305,-1.1001285426635492,-0.4261899995001386,0.0
-1.8019678169708806,0.2848345504389803,2.967377199469632,0.08311205114719841,-0.1581369517497894,-1.4160855250194244,0.0
-1.5331726675901918,0.40552385467094315,3.0357288955219883,-0.05866478400249752,0.15886023273510652,-1.9147924026640402,0.0
-1.2150984636900894,0.46922100946645906,3.1297125897631353,0.046382295816168984,0.2748592051452452,-2.194218638302591,0.0
-0.8835843964551222,0.5966152603736927,3.3005922785706514,0.2748413331190166,0.5568566897953076,-2.105253326903368,0.0
-0.6282291104092987,0.6938372365712587,3.565455661619315,0.3159786433207272,0.47585741722000235,-2.0200471303891185,0.0
-0.5117511313112285,0.7441244393324353,3.6423516561856855,0.046382295816168984,0.6928554732586972,-1.8721893044069153,0.0
-0.36839373921996343,0.8044691061193661,3.761967348615622,-0.05058423836725204,0.7108553007672915,-1.4461583218356668,0.0
-0.3101548280900629,0.8312889515042468,3.7277913510305694,-0.04764585650722037,0.688855506169384,-0.7256647052177465,0.0
-0.32359461300579395,0.8245839754870768,3.667983654374476,0.258680250808209,0.35985844480986373,0.410835628366008,0.0
-0.43559250696035207,0.7742967727259007,3.5825436604118424,0.44820575534468665,0.004861603468136014,1.153883873161996,0.0
-0.4983113463954967,0.7273619992895111,3.548367662826789,0.5385608989841454,-0.04113798756732239,1.1576428657834263,0.0
-0.60582946888308,0.6603124151692084,3.4458399691893784,0.5804328673686461,-0.13913712027220904,1.0987503512004464,0.0
-0.6909479498444436,0.6837797725455041,3.539823962548275,0.45114413720471835,0.3908581775553838,0.4546917751067524,0.0
-0.7223072911428817,0.7910591540850268,3.6252636573931594,0.005244976654775264,0.3878581900417413,-0.13799254673979341,0.0
-0.6999078064549314,0.7810017487430704,3.6594396549782116,-0.7051083541849874,0.735855082878842,-0.5139022318498563,0.0
-0.7760664308058074,0.7810017487430704,3.676527653770739,-0.46416122085605477,0.37285832565347415,-0.5239264974552706,0.0
-0.8163856287147332,0.7642393087001461,3.6081756586006315,-0.03295396064658683,-0.3361353652576531,-0.2996337226464981,0.0
-0.7984659154937581,0.8011166181107814,3.565455661619315,0.22709267269191802,-0.7521316498264485,0.02740772638098182,0.0
-0.7760664308058074,0.7977641301021964,3.4629279679819063,0.1514293845945186,-0.5241336720954842,0.014877402493277406,0.0
-0.7581467175848323,0.7742967727259007,3.4372959697931154,-0.265085966314791,-0.02813810672371195,-0.2607897087084608,0.0
-0.7581467175848323,0.7742967727259007,3.4372959697931154,-0.31283464466125593,0.4238578694522452,-0.547734143551072,0.0
-0.7581467175848323,0.7742967727259007,3.4372959697931154,-0.3378108725521587,0.2578593572123215,-0.4174187518124585,0.0
-0.7357470760586132,0.7541818446743915,3.3518562749482315,-0.07409127756805978,-0.14413706693719291,-0.18059564499691827,0.0
-0.7357470760586132,0.7541818446743915,3.368944273740759,0.08605043300723009,-0.103137440861705,-0.11042583160784708,0.0
-0.7581467175848323,0.7474769273410198,3.403119972208062,-0.06454154324271925,0.1198605780076175,-0.3008867405642321,0.0
-0.7491868609743446,0.7407719513238503,3.4543839685856415,-0.13873563593026125,0.30785889704210656,-0.536456860027924,0.0
-0.7447069326691009,0.7474769273410198,3.4800159667744324,0.004510381189767331,0.25285939835067994,-0.4562627657504958,0.0
-0.7447069326691009,0.7474769273410198,3.4800159667744324,0.055197441396263945,-0.08713758470110966,-0.1918729438030093,0.0
-0.7357470760586132,0.7575343326829764,3.5056479649632215,0.014794717699878158,-0.35513519673523347,-0.003918082144299308,0.0
-0.7402270043638569,0.7474769273410198,3.4800159667744324,0.0346287773357255,-0.5511334621450068,-0.0615575749888098,0.0
-0.7402270043638569,0.7474769273410198,3.4800159667744324,-0.05425721121245003,-0.295135739182165,-0.22445177645471984,0.0
-0.6999078064549314,0.7877066660764421,3.548367662826789,-0.22982541087346053,0.009861559280613158,-0.1467637791445309,0.0
-0.6909479498444436,0.8011166181107814,3.5825436604118424,-0.24745569307396734,-0.12313726411161367,0.1088548333226324,0.0
-0.6775081649287122,0.7910591540850268,3.548367662826789,-0.06968370701793308,-0.07613767520549813,0.1414336736158144,0.0
-0.7267872194481254,0.7642393087001461,3.5996316592043685,-0.08951777113362203,-0.11113736284367381,0.09256540935530568,0.0
-0.7357470760586132,0.7474769273410198,3.4971039655669585,-0.23570217459352388,0.058861121821600956,-0.06406363374869194,0.0
-0.7357470760586132,0.7407719513238503,3.4971039655669585,-0.2694935391048385,0.20685980121689268,-0.15804106266767903,0.0
-0.7581467175848323,0.7072471299217999,3.386032272533285,-0.1189015706946119,0.1198605780076175,-0.1467637791445309,0.0
-0.7447069326691009,0.7474769273410198,3.386032272533285,-0.0050393508956523905,0.22685962446680133,0.10133663411857174,0.0
-0.6954278781496873,0.7944116420936117,3.3262242767594423,-0.05646099760747377,0.09986075780687328,0.2704960015878657,0.0
-0.7447069326691009,0.6938372365712587,3.360400274344496,-0.1857497143318767,0.41485795569794814,-0.16054712906903262,0.0
-0.7760664308058074,0.6569599271606237,3.3262242767594423,-0.15710050911593437,0.8028544950348658,-0.6191569595749344,0.0
-0.6954278781496873,0.6670173911863783,3.3433122755519684,-0.12404373558978611,1.5658477416517222,-0.8133769986992359,0.0
-0.717827362837638,0.6938372365712587,3.403119972208062,-0.37674440531852865,2.0238435586917296,-0.6429646056707362,0.0
-0.7447069326691009,0.690484748562674,3.5056479649632215,-0.41420876507424925,2.0248436846272932,-0.5139022318498563,0.0
-0.8298254136304647,0.7508294153496048,3.685071354049253,0.017733090600226615,0.6668557115714765,-0.423683933098785,0.0
-0.8477451268514401,0.7307144872980958,3.7705113480118864,0.05446283697157288,0.37085834210881746,-0.2808382399192893,0.0
-0.8567049834619275,0.7910591540850268,3.7705113480118864,-0.07702965718817063,0.14286037657451114,-0.09789550724255072,0.0
-0.8925442530656096,0.8178789994699074,3.676527653770739,-0.06747992062290933,0.3448585804215966,-0.08661821607793113,0.0
-0.8791044681498782,0.8111740234527378,3.7277913510305694,0.057401218831604574,0.047861219853614134,-0.11543796441055422,0.0
-0.8522250551566838,0.7642393087001461,3.6594396549782116,0.044178518380828424,-0.681132319367742,0.04369714700516479,0.0
-0.8611849117671715,0.7810017487430704,3.6252636573931594,0.19623968108095205,-0.8761305808085292,0.0737699228073611,0.0
-0.8163856287147332,0.7810017487430704,3.5056479649632215,0.24251916849740113,-0.5291336675470991,0.1351685076124305,0.0
-0.7760664308058074,0.8145265114613226,3.4800159667744324,-0.024138815066491834,-0.12313726411161367,0.28052026719327994,0.0
-0.7760664308058074,0.7944116420936117,3.4885599661706954,-0.17032321852639368,0.467857483041376,0.23290503613344798,0.0
-0.8477451268514401,0.7206570819561393,3.5056479649632215,-0.026342601461515566,0.47185745013068897,-0.09037731567996146,0.0
-0.8970241813708533,0.6938372365712587,3.565455661619315,0.10514989717806952,0.6098562415320509,-0.5214204616198028,0.0
-0.8611849117671715,0.7642393087001461,3.4885599661706954,-0.14020482462035627,1.4598486381782358,-0.7118813858591307,0.0
-0.8432651985461964,0.8078215941279508,3.548367662826789,-0.31797680395662814,2.1508425747607154,-0.5828190120382508,0.0
-0.9463032358902664,0.8446988448547879,3.565455661619315,-0.2974081488557729,1.7248462992886902,-0.6153979058217325,0.0
-0.9955824472479484,0.7843541780678571,3.8046873455969386,-0.11008643120430156,0.46685750346570537,-0.45250368143140823,0.0
-1.0179819319358991,0.8044691061193661,3.9328470374231395,0.22562346384253582,-0.15913693132545997,-0.34223682090362295,0.0
-0.9911025189427047,0.8212314874784924,3.890127040441821,0.0948655606679587,-0.216136425758201,-0.3384777365845355,0.0
-0.9552630925007543,0.8614612848977122,3.821775344389466,-0.15783510458094227,-0.005138308156818323,-0.12420919681529169,0.0
-0.9731828057217297,0.8514038208719578,3.8815830410455594,-0.17693457323162334,0.3908581775553838,-0.1455107459438541,0.0
-0.9776627340269733,0.8547563088805424,3.813231344993203,-0.4252276701703184,0.327858732488673,0.014877402493277406,0.0
-0.982142662332217,0.8346414395128318,3.838863044064243,-0.708781322550344,0.37385832962246024,0.0023470781279810215,0.0
-1.0090222321636801,0.7977641301021964,3.7961433462006755,-0.6125493793520891,0.11586061701663311,-0.28710339063973034,0.0
-0.9687028774164856,0.7843541780678571,3.753423349219359,-0.39804766484407494,-0.7911312923572796,-0.3033928069655856,0.0
-0.9283836795075602,0.8312889515042468,3.7790553474081494,-0.4105357787895264,-0.44613438703382174,-0.23698209317854482,0.0
-0.9597430208059983,0.8413463568462034,3.7790553474081494,-0.6610326621232454,-0.1611369148701166,-0.39737025116751573,0.0
-0.9731828057217297,0.8446988448547879,3.7705113480118864,-0.6103456198361149,0.05986111283163817,-0.09288338208131502,0.0
-0.9328636078128039,0.8514038208719578,3.719247351634305,-0.3899671236886712,-0.045137954656635663,0.16649432234640715,0.0
-0.9194238228970725,0.7843541780678571,3.710703352238042,-0.23423298366350803,-0.10813738752668886,-0.015195373308918908,0.0
-0.8880643247603656,0.7709442847173158,3.685071354049253,-0.25774002062439494,-0.06513777790654433,-0.423683933098785,0.0
-0.8835843964551222,0.7977641301021964,3.667983654374476,-0.47664933480150623,-0.32713545150335577,-0.4023823839702226,0.0
-0.9239037512023162,0.8346414395128318,3.667983654374476,-0.29446976699574123,-0.7591316044294043,-0.08536518287725438,0.0
-0.905984037981341,0.8446988448547879,3.667983654374476,0.008917953979814845,-1.101128571025851,0.20909742060353204,0.0
-0.8208655570199769,0.8446988448547879,3.6423516561856855,-0.024138815066491834,-0.48113406247533974,0.5035600240843184,0.0
-0.8387852702409524,0.8279364634956619,3.5739996610155793,-0.47077257108144277,0.21485973539551922,0.38076286211565097,0.0
-0.905984037981341,0.767591796708731,3.556911662223052,-0.43183902039570654,0.5048571664208658,0.01863649970734792,0.0
-0.905984037981341,0.767591796708731,3.556911662223052,-0.2401097384238882,0.1918599368286256,0.058733535861446876,0.0
-0.8970241813708533,0.7374194633152654,3.5996316592043685,-0.3025503081511451,-0.26813597352595814,0.2629778176667479,0.0
-0.8835843964551222,0.7608868206915612,3.556911662223052,-0.1879534962470589,-0.22013639284751427,0.35444918018438143,0.0
-0.8746245398446342,0.7575343326829764,3.5825436604118424,-0.0799680368082815,-0.062137802589559366,0.35444918018438143,0.0
-0.8701446115393905,0.7407719513238503,3.6252636573931594,-0.26582057073948206,0.15786024096277815,0.08254115139136287,0.0
-0.8791044681498782,0.7374194633152654,3.685071354049253,-0.23056000633846846,0.26185932430163483,-0.0615575749888098,0.0
-0.9283836795075602,0.7407719513238503,3.710703352238042,-0.16003889097596605,0.14586034579316723,0.05121534047812191,0.0
-0.8567049834619275,0.7307144872980958,3.7363353504268324,-0.08217182320330525,-0.28813578457920924,0.3130990998449905,0.0
-0.8522250551566838,0.7307144872980958,3.7277913510305694,0.06695095091702426,-0.19113664364665073,0.2529535520613336,0.0
-0.8656646832341465,0.6971897245798434,3.685071354049253,-0.09833291111391503,0.21585972716784754,0.09632450895733602,0.0
-0.8791044681498782,0.7005421539046304,3.693615353445516,-0.352502781852317,0.456857585742422,-0.07784699131466509,0.0
-0.9104639662865847,0.6770747965283347,3.710703352238042,-0.3539719548629665,0.31385884767607647,-0.025219631272861733,0.0
-0.901504109676097,0.6703698791949629,3.676527653770739,-0.21733729692800913,-0.08013764229481139,0.2993157499204888,0.0
-0.905984037981341,0.710599617930385,3.7277913510305694,-0.030750174251563095,-0.26413600643664487,0.3168582147299637,0.0
-0.9328636078128039,0.7005421539046304,3.7448793498230954,0.035363372800733435,-0.19813659824960672,0.09632450895733602,0.0
-0.8880643247603656,0.710599617930385,3.753423349219359,-0.16885402759637783,-0.07113771634385653,0.07126386022674326,0.0
-0.905984037981341,0.7038946419132152,3.761967348615622,-0.3679292597384337,0.25285939835067994,-0.07283486615342938,0.0
-0.9149438945918288,0.7072471299217999,3.7705113480118864,-0.35176817742762584,0.2428594806273967,-0.06531666694936869,0.0
-0.905984037981341,0.7005421539046304,3.719247351634305,-0.16518105475117983,0.05386116639026935,0.09381844255598244,0.0
-0.8835843964551222,0.6938372365712587,3.7277913510305694,-0.09172155752864578,-0.12413725588394199,0.014877402493277406,0.0
-0.8880643247603656,0.6837797725455041,3.719247351634305,-0.07556046625815481,-0.09313752313842179,-0.07032879975207584,0.0
-0.8701446115393905,0.6737223085197498,3.667983654374476,-0.18354592793685295,0.032861353273760135,-0.06030454178813302,0.0
-0.8835843964551222,0.7038946419132152,3.6423516561856855,-0.4795877166615379,0.26185932430163483,0.2078443874028552,0.0
-0.8835843964551222,0.7005421539046304,3.702159352841779,-0.39731306041938386,0.0028616199234793617,0.26423085086742465,0.0
-0.9373433792797791,0.6536074391520389,3.7790553474081494,-0.32973033139675484,-0.07313769988851314,0.11637302488522164,0.0
-0.9463032358902664,0.6603124151692084,3.83031904466798,-0.7007007993143064,0.006861583963628202,-0.08787124927860789,0.0
-0.9597430208059983,0.6435499751262843,3.847407043460506,-0.9012452089468532,0.4548576021977656,-0.3347186216995623,0.0
-1.044861501767362,0.6603124151692084,3.83031904466798,-0.9137333587310373,0.9138535451733365,-0.3510080380254175,0.0
-1.062781214988337,0.6569599271606237,3.9670227358904424,-0.8637809029492318,1.0218525102249019,-0.5565053301069811,0.0
-0.9373433792797791,0.6267875937671581,4.001198733475496,-1.2692773129237398,0.06186109485171259,-0.5514931973042739,0.0
-0.8835843964551222,0.6200826177499884,4.069550728645602,-1.2288745892273536,-0.4621342553910749,-0.3058988733669392,0.0
-0.8925442530656096,0.6703698791949629,3.855951042856769,-0.7073121495396943,-0.898130326619806,-0.48257644768176544,0.0
-0.8074257721042455,0.5999677483822775,3.864495042253032,-0.4832606850268942,-0.5001339183462357,-0.7544844841162555,0.0
-0.905984037981341,0.6703698791949629,4.308782412623225,-0.9989463251557573,-0.33713534483332364,-1.9724319604610578,0.0
-0.9687028774164856,0.5798528790145665,4.556557796879362,-2.4336102917107505,0.08786086263726231,-3.3056583078728097,0.0
-0.9597430208059983,0.5563855216382707,4.342957811972779,-2.7685856087219625,0.3578584612652071,-3.91713814301245,0.0
-0.9911025189427047,0.5664429269802271,3.98411073468297,-2.335909175501846,0.4358577707201852,-3.71164075923323,0.0
-1.0807009282093125,0.5295656762533898,4.009742732871759,-1.5902952354626536,-0.05613785195558944,-3.3482615283934773,0.0
-1.1613393240271639,0.41893377736338355,4.043918730456813,-2.0832085505715194,0.7518549512360951,-4.888238338633955,0.0
-1.2016586787743584,0.35858913991835156,3.864495042253032,-3.542848745017415,2.3568406115338787,-6.55602407685518,0.0
-1.2464578049885278,0.41558128935479877,3.753423349219359,-3.701521150426728,2.966835275541053,-6.583591082363037,0.0
-1.3136565727289167,0.39546641998708776,3.753423349219359,-2.944888376968932,2.1268426746515736,-5.271666100684536,0.0
-1.4166947669112555,0.35188416390118205,3.9670227358904424,-2.119938234225083,1.2738502904917457,-4.2466858289416125,0.0
-1.3898151970797927,0.4021713666623584,3.9499350362156656,-2.3197480573523057,1.1278516136983885,-5.125061353751838,0.0
-1.2554176615990156,0.4558110867740186,3.7705113480118864,-2.778135340807384,2.041843483773586,-5.331811938844106,0.0
-1.1165401978129943,0.47257346813314494,3.7277913510305694,-2.5445341800478976,2.556838868426281,-5.09874779408411,0.0
-1.062781214988337,0.4558110867740186,3.6252636573931594,-1.8738489953588775,2.603838542709001,-3.6615195534697014,0.0
-1.206138607079602,0.5027458015266104,4.11227042650917,-0.6074072379760833,1.42784890146373,-2.4886813334810345,0.0
-1.2643775182095032,0.5228607002362203,4.283150414434436,0.24325375500272586,0.9668529993368178,-2.1854474517466818,0.0
-1.2643775182095032,0.5228607002362203,4.283150414434436,0.08898881486726178,0.17586008066803022,-1.9824562260664718,0.0
-1.286777159735722,0.6267875937671581,4.718893187172867,-0.09980210204393085,0.29085904910918287,-1.7932482586131062,0.0
-1.2598975899042593,0.6267875937671581,4.701805188380339,-0.352502781852317,0.7818546800126291,-1.8158028256594028,0.0
-1.3181365010341604,0.690484748562674,4.761613184154182,-0.16665024568119569,0.35685848168953654,-1.7619225050109013,0.0
-1.3942951253850364,0.6636649031777933,4.641997192606497,-0.8167667931887251,1.8108456161022413,-1.600281298538311,0.0
-1.3315762859498916,0.7273619992895111,4.872685176305606,-0.7719564787829255,1.7168464626833255,-1.1003213418441897,0.0
-1.3898151970797927,0.7173045939475544,4.718893187172867,-0.2724319209648701,1.3628494972456777,-0.3610323036308318,0.0
-1.465973821430669,0.6703698791949629,4.864141176909343,0.20285103130633997,0.7428550374817978,-0.20189719412548068,0.0
-1.658610346460481,0.46922100946645906,5.257163952666458,-0.16077348644097397,0.23385956687309953,0.4797524085544024,0.0
-1.3315762859498916,0.08368569538142605,4.98375657022153,-0.027077196926523498,0.9548531468555087,0.9822184010839915,0.0
-1.6003714353305807,0.3015969611400055,2.975921198865895,-3.4120909851977683,-4.09710201824289,2.141273240582271,0.0
-2.0304436116043747,0.5329181055781768,2.8306735082471683,-4.715996976900717,-8.990058040264751,4.052147755959533,0.0
-2.254439595561327,0.50945077754378,4.513837799898046,-2.884651781790046,-6.054084440893826,4.16617367024052,0.0
-1.0851806996762878,0.21778492230582927,5.222987955081405,-2.160340957921469,-4.267100399998866,1.4871904294490483,0.0
-1.5242128109797042,0.17085019288228814,4.18916642107554,-2.6620694544491643,4.713819743116144,2.8843216076418017,0.0
-1.6810099879867004,0.5932627723651077,4.958124572032741,-1.3309832244682063,4.242823850086001,5.260070966698921,0.0
-2.124521949176226,0.7742967727259007,5.069196564184163,-2.0369289914776045,2.258841539812281,7.028099605501376,0.0
-2.1782809712104507,0.7340669753066806,5.129004559958006,-2.105246360763658,-2.6321150109245472,7.559385071270617,0.0
-1.9856444853902053,0.4859833908255853,5.248619953270195,-1.4823098365017378,0.2938590366228256,7.820016221538471,0.0
-1.604851363635824,0.39881890799567254,4.231886418056856,-2.4071648908091974,5.253814763520498,6.841397796147019,0.0
-0.7088676630654188,0.19431756492953342,3.1468005885556614,-3.6750758928801077,7.564794541902125,3.8165776976276122,0.0
-1.2016586787743584,-0.15434045441581387,4.590733794464416,-3.9938900917417803,5.43581348562409,2.9394548850762656,0.0
-1.4122148386060118,-0.4258914109441547,4.864141176909343,-3.6956444583841304,5.670811271598119,3.1750249434081863,0.0
-1.6630902747657255,-1.0393954254716224,4.659085191399024,-4.0467808935448835,8.995781365488313,2.725186314741136,0.0
-2.052843253130594,-1.3947583328084425,4.009742732871759,-3.9799327689469446,12.30175238409371,4.389213182604473,0.0
-2.2768391978779787,-0.6706225074166653,4.710349187776604,-3.730170346682988,6.3478050062549,3.3755102555164713,0.0
-2.254439595561327,-0.09734827563746776,5.889418711518947,-3.4708584790434713,0.3268587285196869,2.453278308872532,0.0
-2.205160462622779,-0.34543187478951254,5.846698714537628,-3.931449557853256,2.1368425679815415,2.0485489365616174,0.0
-2.227560064939431,-0.7577870195884767,5.701451323036649,-3.4047449051121252,9.244779743681086,1.0711837124832142,0.0
-2.3709174570306963,-0.9220585799063454,5.257163952666458,-2.3814540405742375,8.977781830699504,0.5411510201046217,0.0
-2.2454797389508396,-1.072920188189875,5.470763339337542,-1.1179507725676734,6.516803847514882,-0.6329403400653217,0.0
-2.312678545900795,-1.3377661540300965,5.650187326659068,-1.128235055319685,5.090816287580845,-1.2369019454350159,0.0
-2.294758871889387,-1.2506017005420829,5.026476567202845,-1.851076491145216,0.33885862978762676,-1.6554146982363178,0.0
-2.666592117428497,-1.186904545746567,4.411309807142887,-1.7923088539445828,-2.63511499843819,-3.3557797581634237,0.0
-2.5411543993486405,-1.2841264632603353,4.479661802312992,-3.3378967805141864,-4.03010236215371,-0.944945408355583,0.0
-2.339558037313124,-1.1567322710368997,4.539469798086836,-3.999032233117785,-3.9641030271466193,-1.5489070137252772,0.0
-2.2589195238665707,-1.1600847590454844,4.49674980110552,-3.4142946371975462,-2.328117707283262,-1.1216229521045233,0.0
-2.2320399932446753,-1.2941839272860896,4.300238413226962,-1.7555791702910188,-1.5371246422545815,-1.1178638372195502,0.0
-2.097642457763898,-1.3880534741588688,3.873039041649295,-0.7131889132597575,-2.9231124337222223,-0.09664248168334537,0.0
-2.061803109741082,-1.3310612953805228,3.5996316592043685,-0.37968278717856035,-3.8171042244176996,0.44717357590269197,0.0
-2.061803109741082,-1.3310612953805228,3.5996316592043685,-0.006508541825668239,-5.68108800987833,0.506066090485672,0.0
-1.9274054958411702,-1.2036669857894913,3.9243030380268764,-0.09245615187369328,-5.705087519694424,0.9671820026758704,0.0
-1.8691665847112693,-1.1533797830283146,4.172078422283012,0.2821872698497295,-3.5071073360421745,0.9997608353275806,0.0
-1.8467669431850502,-1.3612335700901903,4.103726726230655,0.3027559428699511,-0.1681368694730726,0.9834714190017254,0.0
-1.8243673800779652,-1.3344137833891077,4.180622421679275,0.7339632030794193,-0.002138335888997816,2.1964067625438206,0.0
-1.913965789344573,-1.3344137833891077,4.129358425301696,1.0917109526268283,-0.3861349294807536,2.9795519474979226,0.0
-2.173801042905207,-1.0461004014887922,4.206254419868066,1.513368409073411,0.018861479133239174,4.047135439761512,0.0
-2.2633994129622477,-1.0192804974201135,4.214798419264329,2.4213279379196697,0.8808537800965285,4.079714272413222,0.0
-2.191720716916615,-1.233839260499159,4.377133809557833,3.338837055496417,1.0578522628153526,3.609827357062429,0.0
-2.317158434996472,-1.1131500442928928,4.778701182946709,3.8045702756822064,-1.415125767997104,4.3904666284446074,0.0
-2.0931625294586538,-1.1332648549768058,4.513837799898046,2.222252665459039,-3.587106482681917,1.1025094660854196,0.0
-2.205160462622779,-0.8885337585042952,4.317326412019488,-0.05425721121245003,-4.374099629407915,0.46972814294898835,0.0
-2.5814736560719167,-0.47282612569674626,5.000844569014056,-0.8696576666692953,-5.126092856759239,2.176358231332992,0.0
-2.3485178939236113,-0.8751238651537536,5.120460560561743,-0.9989463251557573,-3.3411086774423593,1.8931728808094683,0.0
-1.9274054958411702,-0.8449515317602884,4.744525185361656,-0.501625562692409,-0.3891349169943964,-0.34599590522271045,0.0
-2.052843253130594,-1.049452889497377,4.266062415641908,0.34315866656633703,-0.9461299316915652,-0.8133769986992359,0.0
-2.0931625294586538,-1.066215212172705,4.078094728041866,1.2173267144253996,0.15686024919044989,0.12765031604984126,0.0
-2.012523976802534,-0.8784763531623387,4.274606415038171,1.7690075233799674,5.477812920522042,-0.32344133817641413,0.0
-2.433636335675408,-0.8717713771451692,4.67617319019155,2.162750477591814,7.675793104174286,0.6802375983991442,0.0
-1.913965789344573,-0.9019437105386344,4.129358425301696,1.550832786748498,7.015798973517273,-1.3922780011871654,0.0
-2.657632280422793,-0.8348940677345338,4.248974416849382,0.9043892076063248,8.835783072208828,-1.736861902129137,0.0
-2.433636335675408,-0.8851812704957104,4.582189795068152,0.5841058357340024,7.760792685345322,-0.5414689928306312,0.0
-2.317158434996472,-1.1366173429853905,4.812877180531763,0.9646260178176075,4.4468222204276096,-2.0689153793666843,0.0
-2.317158434996472,-1.0528053775059616,4.761613184154182,0.708252352844459,1.1188516511574602,-1.4236037547893705,0.0
-2.818909356021533,-0.9455259372826412,4.548013797483099,-0.6904164448848291,-1.813122322630567,-1.3434096299460565,0.0
-2.657632280422793,-0.9153536038891756,4.436941805331676,-1.015107443305298,-2.4421166473621128,-1.0890441194528127,0.0
-2.5053150317210404,-0.9756982706761067,4.351501811369044,-1.1502729371892888,-2.048120108604594,-0.4863355320008526,0.0
-2.438116263980652,-0.9891082227104461,4.573645795671889,-0.08070263227328942,-0.7641315510943882,-0.06782273335072227,0.0
-2.3888371310421044,-0.8952387345214646,4.659085191399024,1.6735102025257702,0.9298534135305896,-0.37230958715397994,0.0
-2.5187547970319883,-0.8483040197688732,4.44548580472794,2.5866115860381718,1.9288444744837745,-0.6191569595749344,0.0
-2.4873953577096324,-0.7711969129390182,4.325869813180253,2.1157363678313073,2.1148429197435266,0.7240937145740031,0.0
-2.3709174570306963,-0.5331707924836772,4.530925798690572,0.653892378030705,0.4248578734212312,0.6301162703720733,0.0
-2.4649957553929807,-0.6471551500403693,4.599277793860679,-0.7873829745884084,-0.8061312299254932,-0.758243537869457,0.0
-2.7561904923867333,-0.8348940677345338,5.137548559354269,-1.1054626227834892,-2.763113750149691,-1.3709763909268313,0.0
-2.939867165707254,-1.0427479134802073,5.325515947836564,-0.9747047196089121,-5.193092122555372,-2.8094575883272044,0.0
-2.715871220959869,-1.0896826282327987,5.376779944214145,-1.1877372431869102,-6.378081531195048,-3.221705312671608,0.0
-2.5814736560719167,-0.8717713771451692,5.453675340545018,-1.0231880023800681,-5.6980876138781,-2.5450678122285466,0.0
-2.3798773136411837,-0.8550089371022448,5.2827959508552444,-0.4098011743648352,-3.70610527185249,-2.052625963040829,0.0
-2.3037186892903074,-0.9991656867362003,4.932492573843951,0.19623968108095205,-0.9671297467138024,-1.6353661670254893,0.0
-2.3037186892903074,-0.9991656867362003,4.932492573843951,0.5194614348133058,-1.9421210051311075,-0.3033928069655856,0.0
-2.2813190869736553,-0.9388209612654717,4.548013797483099,-0.07849884811818648,-3.937103334670359,0.09131237615462888,0.0
-2.1424415839780675,-0.7644919956056464,4.975212570825267,-0.95633987778213,-3.6941053217979207,-1.3196021061137977,0.0
-2.1424415839780675,-0.7644919956056464,4.975212570825267,-0.759468400676207,-1.4631253730688634,-1.5940161478178698,0.0
-2.0438833965201066,-0.8348940677345338,5.188811957496351,-0.2489248840039832,0.7498549920847539,-0.8146300166169697,0.0
-1.9229255675359265,-0.8985912225300496,4.958124572032741,0.16024451225524733,1.9878439036745412,0.2028322546001481,0.0
-1.9229255675359265,-0.8985912225300496,4.958124572032741,0.43571764139923524,1.370849431424304,0.813059025973226,0.0
-1.9946042635815588,-0.8650664011279994,4.906860575655162,0.4129452088630394,0.4828573718229585,0.9734471533963109,0.0
-2.057323181435838,-0.7812543769647727,4.889772576862632,0.6560961017079464,0.1968598956902672,0.8306014602168152,0.0
-2.057323181435838,-0.7812543769647727,4.889772576862632,0.9087967983157386,0.30185897080145213,0.6376345001420194,0.0
-2.0483633248253503,-0.7477295555627224,4.838509178720552,0.4437981646352727,-0.5511334621450068,0.4546917751067524,0.0
-1.9990841918868025,-0.7309671742035961,4.72743718656913,-0.5339477273140244,-1.1851278311147984,0.11637302488522164,0.0
-1.9408452807569017,-0.7142047341606718,4.753069184757919,-0.7969327066738284,-1.7611226041096013,-0.17182441259218081,0.0
-1.913965789344573,-0.7410246382293507,4.659085191399024,-0.36866386416312485,-2.0121204535874058,0.0700108270260665,0.0
-1.8781264413217567,-0.8047217343410682,4.556557796879362,-0.21146054216762902,-2.8391131736332746,0.5323797724169416,0.0
-1.8154075234674774,-0.8281890917173642,4.36858981016157,0.007448763049799013,-2.958111962803848,0.625104137569366,0.0
-1.6675702030709691,-0.794664328999112,4.633453193210233,0.653892378030705,-1.9561210119102816,0.4358962923795435,0.0
-1.5062931761778633,-0.8047217343410682,4.85559717751308,0.8963087202090197,-0.34613528298093615,0.6464056866979284,0.0
-1.5376525958954355,-0.7611395075970617,4.898316576258898,0.21386993640240914,1.5748476066193886,1.1576428657834263,0.0
-1.5376525958954355,-0.7611395075970617,4.898316576258898,-0.04397288366202238,1.611847289998879,0.9383622849091328,0.0
-1.7034095510937854,-0.794664328999112,4.530925798690572,-0.46122283899602307,0.2928590326538395,0.82308329157864,0.0
-1.9005260044288412,-0.8583614251108296,4.317326412019488,-0.03368855611159474,-0.2431361914144079,1.19022182069868,0.0
-1.8646866564060256,-0.7711969129390182,4.317326412019488,0.04491310488615315,-0.7851314149032564,1.073689748318682,0.0
-1.8960460761235975,-0.7074998168273001,4.18916642107554,-0.605938029126701,-1.4681253197338469,0.722840696656269,0.0
-1.9408452807569017,-0.6974423528015458,4.334413812576516,-0.8689230443252378,-1.6831233190479389,0.05372140687947547,0.0
-1.9229255675359265,-0.6940898647929609,4.462573803520466,-0.5919807421706003,-0.6591324759832032,-0.45751581423411547,0.0
-1.9094858610393293,-0.6873848887757913,4.377133809557833,-0.015323678446080027,-0.7391317689828378,-0.6592540219965914,0.0
-1.913965789344573,-0.8080742223496532,4.522381799294309,0.1360028887890357,-2.511115969882847,-0.7569905199517231,0.0
-1.7974878886656365,-0.7980167583238987,4.539469798086836,-0.10200588619903381,-2.5781154308255028,-0.5439750286660991,0.0
-1.7930079603603928,-0.7410246382293507,4.539469798086836,-0.33119952232677063,-3.1151106588627355,-0.0941364152819918,0.0
-1.7661284689480643,-0.7276146861950114,4.334413812576516,-1.714441895928041,-4.148101610828293,0.17025342194843748,0.0
-1.5197328826744603,-0.6974423528015458,4.154990423490486,-3.0631582020367905,-4.27510023660423,-0.8020997151760871,0.0
-1.3718956406970861,-0.7443770675541374,4.248974416849382,-2.532780795962701,-3.682105762036397,-2.2919551362577226,0.0
-1.4570139648201812,-0.8214841743839925,4.18916642107554,-2.285222169053448,-4.65809675609622,-2.815722616784103,0.0
-1.5510923023920327,-0.9455259372826412,3.7705113480118864,-2.7428749018419345,-4.563097867034785,-2.8533137656338345,0.0
-1.2330180200727963,-1.1433223190025603,3.907215039234349,-1.813612113470129,-1.5341247523142008,-2.4648736873852326,0.0
-1.1658192523324078,-1.1165024149338818,4.086638727438129,0.49007765205172205,2.0748431512771317,-2.5074766633788146,0.0
-0.9373433792797791,-1.2036669857894913,3.83031904466798,2.116470918497899,2.8048367303904427,-2.2844369064877763,0.0
-1.2285382486058212,-1.3511761060644358,3.6252636573931594,1.009436332223407,-0.7401317485585085,-1.3997961086935686,0.0
-1.4346144801322307,-1.3310612953805228,3.4885599661706954,-1.1201544962449148,-5.221091745820674,-1.878454455127356,0.0
-1.3046968729566972,-1.2573066765592527,3.6081756586006315,-2.6466427436112827,-8.063066777212255,-3.2016567814607795,0.0
-1.044861501767362,-1.2237819138410002,4.44548580472794,-1.9458392613328213,-4.317100061795227,-4.232902326187683,0.0
-0.7447069326691009,-1.2003144977809062,4.274606415038171,-2.640031500902094,-4.874095076492396,-4.820574270704439,0.0
-0.6461486667920054,-1.2573066765592527,3.761967348615622,-3.06903489407939,-5.139092737602853,-4.380760029906344,0.0
-0.42663265034986436,-1.2539541885506675,3.5996316592043685,-2.128018864977319,-2.8001135311024434,-4.331891780928779,0.0
-0.5923896839673485,-1.0997400922585536,3.069904893107042,-1.9362895292474016,-2.1311194379045024,-4.597534758340486,0.0
-0.5923896839673485,-1.0997400922585536,3.069904893107042,-3.0727079341222114,-3.322108821571462,-4.563702968902813,0.0
-0.5610303426689104,-1.0829776522156294,2.7025135173032186,-4.024008389331223,-3.7811047645470337,-4.112611138922713,0.0
-0.48039179001279037,-0.9958131987276155,2.4718261318396078,-3.0793194635412635,-2.9161123327593734,-3.4860950887702664,0.0
-0.5117511313112285,-0.8851812704957104,2.224050747583471,-2.2058859663487915,-1.920121356893093,-3.4372268397927,0.0
-0.6819880932339559,-0.6169828166469039,2.4376501342545542,-1.6321672038471544,-0.2121364586688877,-5.557357364779984,0.0
-0.3101548280900629,-0.5499331738428034,2.3778424375984613,-1.712238100573334,-0.13913712027220904,-7.7313684549428565,0.0
-0.0771991835704585,-0.9086486278720062,1.890835369364701,-2.816334269149061,-1.8211221592359315,-5.612490886741537,0.0
-0.17575729260928524,-0.9254110679149302,1.5234442926786274,-2.7472824925513475,-3.1961099314380417,-3.2630553318792277,0.0
-0.15783757938831014,-0.6706225074166653,1.6857799820898804,-1.5271201509075374,-3.0651109970663737,-2.920977344509181,0.0
-0.13991786616733468,-0.5734005899028972,2.0702590575684807,-0.4200854929555799,-0.6331327142959826,-3.31944181062674,0.0
-0.26087577357064895,-0.5666956138857274,2.1300670533423247,-0.41567793808489867,0.39185815713105443,-3.3983827341570056,0.0
-0.10855836803062817,-0.7477295555627224,1.6686919832973544,-0.6279758751575724,-1.31212665203726,-3.4447450695626465,0.0
-0.08167911187570254,-0.8583614251108296,1.2073169132523838,-0.5853693919452122,-4.907094743995942,-1.6742102726611836,0.0
-0.04583968543375199,-0.6873848887757913,0.9168215320149301,-0.499421767337702,-7.435071992976698,0.3156051662463441,0.0
0.3573532346851167,-0.41918643492698493,2.3009464430320916,-0.1747307868365996,-3.973103184834071,-0.5013719304089742,0.0
0.29463423841170333,-0.3119070533874625,2.7110575166994817,1.2283455478440033,2.6758378527433777,-1.0702486672914895,0.0
-0.005520330686557391,-0.5029984590902118,2.283858444239565,0.9844601043325043,1.2938501747249431,-0.5753008434000757,0.0
0.09303777835226934,-0.6471551500403693,1.6174279869197739,0.12131097948887727,-1.6071240907108795,-0.2006441609248039,0.0
0.10199763496275671,-0.6370976860146149,0.7288539939737617,-0.12477833105479402,-5.375090454365916,0.221627737327357,0.0
0.1691965595414145,-0.559990637868558,0.6775901471550565,-0.2592092115544108,-8.55706224926945,-0.6918328546483022,0.0
0.18711627276238924,-0.3688992321658086,1.1304210682448887,-0.2540670432993554,-6.0090848233357095,-1.8446226656896831,0.0
0.21847545722255926,-0.5935154592706082,1.2756687588636155,-0.5119098812831534,-4.673096888810956,-1.3860127282031813,0.0
0.3842324908400427,-0.7343196622121809,0.9937173770224251,-0.3098962628012243,-5.168092291657191,-1.037669834639779,0.0
0.47383105694492,-0.7175572221692568,0.3101989209101079,-0.8836149177866633,-8.753060392712644,-1.6040404134232842,0.0
0.4514314154186994,-0.7209097101778416,-0.41603953218352574,-1.4257459946558115,-12.800024619403835,-2.3746554192000473,0.0
0.527589882931308,-0.5298183044750924,-0.21098399534983067,-1.887806318153711,-11.715034144063836,-4.012368727395657,0.0
0.527589882931308,-0.5432282565094316,0.28456692272131845,-1.9517160967303502,-8.035067153946954,-4.646403007318051,0.0
0.4872708418606496,-0.6773274834338348,-0.38186360937790986,-1.5565038978303887,-5.568088805441997,-4.712813629407436,0.0
0.16471663123616972,-0.358841797481953,-1.4669492145407914,-3.1079686597975216,-9.138057164075759,-4.948383687739357,0.0
0.16471663123616972,-0.358841797481953,-1.4669492145407914,-3.583986162735324,-8.874059043461296,-4.54991946614888,0.0
0.0706381368260502,-0.43259635761942533,-1.1935418134010052,-2.924319811464909,-6.570079561189037,-6.018473338101954,0.0
0.2677546685802405,-0.17780781179210972,-1.5353010601520234,-1.7416218474961853,-3.894103578690322,-4.102586995580842,0.0
0.1423169897099506,-0.21803759454038016,-1.6976366747838396,0.16832507133001753,0.31985879831004643,-0.795834564455646,0.0
0.23191524213829068,-0.19121773448455,-2.1333797466400197,0.6649112831267742,0.2398595175070695,0.06374566484341829,0.0
0.3125539516326788,-0.17780781179210972,-2.167555669445635,0.014794717699878158,-1.331126507908156,0.24042323533750862,0.0
0.46487120033442975,-0.16775037710825422,-2.159011670049372,-0.19603404636214597,-1.4861251472424415,0.7967696096473708,0.0
0.5499895244575272,-0.22809502922423563,-2.1248357472437562,-0.37160224602315656,-2.354117468970483,0.607561703325777,0.0
0.5992687358152085,-0.17780781179210972,-2.2102755168680774,-0.6382602295870495,-1.927121262709418,-0.5740478254823417,0.0
0.3259937365484102,-0.06047098823325688,-2.500770898105531,-0.39951685577409085,-1.9751208677811776,-0.3635383700321854,0.0
0.16471663123616972,-0.03029865850752878,-2.6631065875167845,-0.6896818583795044,-3.061111078763691,-0.7344359529054266,0.0
0.3125539516326788,-0.10070075631057786,-2.791266279342984,-1.0628561037323967,-3.0591112171856123,-1.8584059239165276,0.0
0.20951591428860838,-0.22474255588660044,-3.0732176611841746,-0.6022650607613448,-0.9251301166693282,-1.2369019454350159,0.0
0.24983495535926578,-0.1811602998006945,-3.150113506191669,-0.13947022915534837,-0.5821331704972114,-0.2971276562451446,0.0
0.2856743818012156,-0.201275183839355,-3.004865815572942,-0.10788264627922584,-1.8171222409332493,0.1502048983790804,0.0
0.24535502705402173,-0.2314475172328204,-2.782722279946721,-0.3752752143885128,-2.5571155182300034,-0.07283486615342938,0.0
0.27671452519072826,-0.18451277313832987,-3.1244816575617547,-0.9644203651794349,-2.6181150041453733,-0.6955919695332751,0.0
0.375272634229555,-0.16775037710825422,-3.295361196810396,-1.1297042283303345,-1.1691279627575453,-1.3471687448310297,0.0
0.3349535931588983,-0.04370858486770648,-3.3808010412141543,-0.8219089345647311,0.2178597107125042,-0.8058587689292891,0.0
0.23191524213829068,-0.020241216488198557,-3.4064330394029443,-0.33119952232677063,1.5708476883167062,-0.05278634258407233,0.0
0.14679691801519465,-0.1610454157620341,-3.227009351199165,-0.19456485543213015,2.521839144198132,0.22288077052803373,0.0
0.3349535931588983,-0.14428300506100888,-3.227009351199165,-0.6228337337815665,1.0098526577435931,-0.6103857730190254,0.0
0.29015431010645965,0.04680840247560911,-3.355169043025365,-0.9181408777629858,1.1598513504128947,-0.547734143551072,0.0
0.2632747402749972,0.10044809874697647,-3.0390418131579957,-1.0143728209612406,0.4748574376443318,-0.4011293354866033,0.0
0.4155919889767492,-0.05376602688703672,-3.013409814969206,-0.8204397615540817,0.4938572447285967,-0.3021397890478517,0.0
0.20951591428860838,-0.16775037710825422,-2.99632181617668,-1.7563137209576107,2.7148374952742094,-0.27457305863296255,0.0
0.24983495535926578,-0.06717594957947703,-3.2355533505954273,-1.3948930030448454,2.0708432329744495,-0.7407011036258678,0.0
-0.06823932695997077,0.2345473330068544,-3.1073936587692277,-0.7807716602017533,0.9888528427213561,1.1814505118792282,0.0
0.4559113437239431,0.10715306009319661,-2.8767061237467426,-0.33119952232677063,-0.00013835234434117412,1.6175057600558909,0.0
0.33047366485365387,0.04680840247560911,-2.9621459681505007,-0.1886880917120668,0.502857158482894,2.2891311888280166,0.0
0.514150098015577,-0.12081564768471308,-2.791266279342984,-0.15416213173574428,-0.21713642972718705,2.0410307067916715,0.0
0.567909237678502,-0.15098796640722909,-2.722914433731752,-0.21219512867295373,-0.8281309757367699,0.652670898550141,0.0
0.7650257694326915,-0.10405323698368792,-2.8254422769280376,-0.14461239517048297,-1.480125172215156,-0.4186718002960782,0.0
0.5499895244575272,-0.08058587227191737,-2.9194259711691846,0.023609854320289947,-1.1211283576857858,-0.637952472868029,0.0
0.299114166716947,-0.026946177834418703,-2.8937941225392696,-0.07556046625815481,-0.38413492154278145,-0.4349612166219334,0.0
0.514150098015577,-0.22474255588660044,-3.731104268666576,-1.8980906009057226,2.6828377585597027,-2.6678649130654426,0.0
0.22295538552780295,-0.023593697161308626,-2.8510741255579526,-1.4565989862667776,2.2388417531523457,-2.2443398440661193,0.0
0.15127684632043867,0.009931112320595202,-2.7314584331280156,-1.3177605956948957,0.7548549387497375,-1.6140646790286983,0.0
0.10647756326800076,0.009931112320595202,-3.6200325756329033,-2.130222660332026,-1.0551289251054323,-1.3471687448310297,0.0
0.012399382534417707,0.14067786682429742,-3.3466250436291016,-2.9000782059180636,-1.4051258746671362,-0.7507253692312823,0.0
0.04823880897636826,0.26136717839173496,-2.458051050683089,-1.989915025072029,0.48985727763928333,0.3481839988980547,0.0
0.47383105694492,0.22784237166063426,-3.013409814969206,-1.3970967983995524,3.1278338899026243,1.1238110763457534,0.0
0.5007106267763842,-0.037003619853748955,-1.911236211013798,-0.6610326621232454,2.8528363354622015,0.772961963551569,0.0
0.5365497395417947,-0.04370858486770648,-2.0650279010287877,0.017733090600226615,2.6288381784606583,-0.6078796760517864,0.0
0.40215220406101887,0.026693517061547118,-2.321347359460625,0.1440834299444395,1.7608459543058788,-1.7406208947505675,0.0
0.40215220406101887,0.026693517061547118,-2.321347359460625,0.06768555534171537,1.4798485224114335,-2.154121575880934,0.0
-0.8432651985461964,0.13397290547807725,-2.6801945863093106,-0.3745406278831881,3.7338282453140694,0.30182181632184235,0.0
0.42007191728199217,0.3015969611400055,-2.150467745432546,-0.31283464466125593,2.9068357204147226,-0.8785346640026569,0.0
0.42007191728199217,0.3015969611400055,-2.150467745432546,-0.38555955089862354,1.7098463617204767,-0.020207502290890324,0.0
0.3573532346851167,0.09709561807386638,-1.9710441320082033,0.07429690556710342,1.2828502530326737,-0.45751581423411547,0.0
-0.5655102709741541,-0.013536255141978386,-2.381155205675594,-0.670582394208665,0.08286090987394959,3.6912744386917056,0.0
-0.5655102709741541,-0.013536255141978386,-2.381155205675594,-0.4502038980612212,3.4318311935439105,2.405663261208014,0.0
0.8187845954190818,0.016636074354516122,-1.7574445957782454,-0.18134214602167084,2.214841853043204,1.0348457649465304,0.0
0.13335713309946323,0.05686584632880803,-2.167555669445635,-0.43036984738505707,1.568847729165365,3.7539259458961167,0.0
0.13335713309946323,0.05686584632880803,-2.167555669445635,0.21166617688643516,2.379840385707457,4.758857930955297,0.0
0.7963852675693988,-0.12752060903093324,-1.8599723641950927,0.03903635012577303,1.1978509645814246,3.0823005171239903,0.0
0.8456641652505424,0.013283593452172452,-0.7834307116913258,-0.28712381234566203,1.3528496039157099,1.9696078907678092,0.0
0.6440680188676468,-0.033651139180638875,-1.3046135625192568,-0.19383025996712222,0.8378541704763839,2.450772395300607,0.0
0.3125539516326788,-0.0738809109256972,-2.0479399770156985,-0.2525978523693395,1.7708458476358464,2.3379994378055824,0.0
0.5231099546260637,-0.16775037710825422,-1.3217015239220646,-0.0050393508956523905,1.1818510962241715,0.20909742060353204,0.0
0.5231099546260637,-0.16775037710825422,-1.3217015239220646,0.016263908629893974,0.998852736051324,-0.05529240898542589,0.0
0.7515859845169612,-0.32866946408848746,-1.5096691367426707,-0.18354592793685295,0.9778529210290868,0.4158477611687151,0.0
0.6351081622571587,-0.43930133363659485,-1.7659885951745085,-0.19015728264208265,0.1788600559850152,1.1413534494575712,0.0
0.6351081622571587,-0.11411068633849293,-1.6378288285688707,-0.09833291111391503,-0.24913614204837783,1.1977399282050833,0.0
0.3663127776190676,0.053513365655697955,-1.2191737555052171,0.041240136520796764,-0.9131302641880193,0.9408683207446006,0.0
0.379752562534799,-0.03029865850752878,-1.2618936777070964,0.04344391395613732,-1.019129270088244,1.0436169515024396,0.0
0.3663127776190676,-0.05711850756014681,-1.4669492145407914,-0.04470747912703029,-1.5081248930537179,0.8694455047207381,0.0
0.4290317738924824,0.0501608831487192,-1.3644214461239441,-0.11375940607942778,-2.272118070459614,1.1739322821092821,0.0
0.46487120033442975,0.003226150057440698,-1.6378288285688707,-1.651266668017994,1.6128473183611804,3.131169010628642,0.0
0.38871241914528676,-0.14763549306959373,-2.637474589327994,-0.559658541710252,1.0878519428052555,2.0134640680744393,0.0
0.42007191728199217,-0.358841797481953,-1.5694769829576394,0.267495396388304,-0.2581360558026749,1.2253066891858584,0.0
0.23639517044353436,-0.3890141015335197,-1.3729654081304887,0.7405745174660744,0.25285939835067994,1.143859607556582,0.0
0.17367648784665782,-0.28843969601116676,-1.748900596381982,0.1360028887890357,1.598847409155268,0.7566725472257139,0.0
0.3842324908400427,-0.24485743992526077,-2.11629182262693,0.39972247257353055,2.6728378652297353,1.7114832653895924,0.0
0.3842324908400427,-0.15098796640722909,-1.3985973689295597,0.45114413720471835,2.0548433646171964,2.183876461102938,0.0
0.23191524213829068,-0.12081564768471308,-1.3644214461239441,0.4856700971810408,2.51683929510641,3.880482161617985,0.0
0.030319095755393162,-0.13757804371478874,-1.3387894853248727,0.5958593631741291,2.1358426371925017,5.339012134756272,0.0
0.3125539516326788,-0.3923665895421044,-0.6296390497186249,0.4401251962699164,0.788854634615585,4.757604974169331,0.0
0.33047366485365387,-0.5633431258771426,-1.253349678310833,0.0735623190617787,0.709855321191621,3.9945080758989726,0.0
0.9711018441208346,-0.6806799714424197,-1.3985973689295597,-0.14828537025560176,0.36585839544383364,1.5661314752428572,0.0
0.5813490225942308,-0.6035728646125647,-1.3900533695332964,-0.06013397493251336,0.1918599368286256,1.8568349332727847,0.0
0.8322243803348122,-0.5532856618513882,-1.4840371759435995,-0.32973033139675484,0.6178561269240466,0.9985078174098467,0.0
0.6619874184120869,-0.6102778406297342,-1.5438450595482864,-0.5941845375253072,1.0298524444035284,0.26172478446607106,0.0
0.39319234745053006,-0.6940898647929609,-1.1508219098939854,-0.5052985310577655,0.6458558965492395,0.21912167092600343,0.0
-0.01448018729704512,-0.6203353046554887,-0.8945024695727928,-0.2834508439803057,0.27285922160058856,1.5548541305879375,0.0
-0.01448018729704512,-0.41918643492698493,-1.3046135625192568,-0.22762162447843678,0.6918554936830267,2.4971344861791622,0.0
0.14679691801519465,-0.5801055072362689,-1.0824700642827538,-0.3231189811713668,1.109851786189794,2.9444669567472017,0.0
0.44247155880821276,-0.6873848887757913,-0.9970302479212844,-0.27683949375491756,0.6728556378121308,2.3655661987863574,0.0
0.6082285924256952,-0.7477295555627224,-0.9884862672198803,0.2836564786991118,0.6248560815270023,1.6901816551292586,0.0
0.8591039501662764,-0.7678444836142312,-1.1081020063869655,0.2696991559042782,0.502857158482894,0.6451526687801945,0.0
0.7291863429907407,-0.7577870195884767,-1.0824700642827538,-0.03883071988680856,-0.15913693132545997,0.5361388567360288,0.0
0.3663127776190676,-0.7074998168273001,-0.9201344134296477,-0.18721890078205097,-0.4581342883017615,0.17025342194843748,0.0
0.15575677462568271,-0.6069253526211495,-0.9115904321440295,-0.2055837784475657,-0.6821322989434125,0.6438996508624606,0.0
0.5813490225942308,-0.6672700194080803,-1.2448057163042885,-0.3113654537312401,0.047861219853614134,-0.20690932692818778,0.0
0.491750770165894,-0.7745494009476028,-0.9970302479212844,-1.0070268842305274,-1.1481281477353087,-0.056545442186102655,0.0
0.7291863429907407,-0.9522309132998109,-1.526757098145479,-0.021935037631151275,0.46285753637639204,0.7190815817712962,0.0
0.20951591428860838,-0.7711969129390182,-1.0141182093240924,-0.5023601491977338,-0.4841340499889825,0.013624370247784554,0.0
0.11543741987848813,-0.7175572221692568,-1.2448057163042885,0.33140513912621034,0.9138535451733365,-0.34223682090362295,0.0
0.1826363444571459,-0.6438026620317844,-0.8603265426776764,0.23884616429331193,1.1148517328547782,-0.05529240898542589,0.0
0.22295538552780295,-0.6605650433909107,-0.8005186730941338,-0.3561757502176735,-0.12613722723194087,-0.3008867405642321,0.0
0.34391344976938565,-0.6438026620317844,-0.9201344134296477,-0.7646105420522127,-0.7601315840050749,-0.20189719412548068,0.0
0.27223459688548457,-0.7711969129390182,-1.1422779291925813,-0.3554411457929823,0.013861523320762003,-0.8146300166169697,0.0
0.4335117021977261,-0.8315415797259491,-1.1081020063869655,-0.04544207459203822,0.11486062524430479,-0.7494723513135483,0.0
0.5365497395417947,-0.7879593529819422,-1.1849978326996014,0.26014942381885847,-0.21313646263787384,-1.0088499946094989,0.0
0.5096701697103341,-0.7074998168273001,-1.1422779291925813,0.14849100273448712,-0.4411344403688378,-0.6680252085525005,0.0
0.5096701697103341,-0.7074998168273001,-1.1422779291925813,0.12865693413895649,-0.6111329196980749,-0.7895693526034339,0.0
0.33047366485365387,-0.6303927686812433,-1.2277177549014804,0.16171370318526324,-0.5071338241625604,-0.7131344037768647,0.0
0.19159620106763328,-0.7443770675541374,-1.1251899677897736,0.4195565590884274,0.3528585146002232,-1.1692381220325843,0.0
0.19159620106763328,-0.7443770675541374,-1.1251899677897736,0.23223481406792398,-0.1271372190042692,-2.3771613327719723,0.0
0.40663213236626256,-0.596867947279193,-1.1166459870883696,-0.28565462141564624,-0.25213610516870505,-1.6666920428912375,0.0
0.379752562534799,-0.5834579952448536,-1.2020857941024092,-0.519255818013866,-0.6161328663630589,-1.5250993676294753,0.0
0.379752562534799,-0.5834579952448536,-1.2020857941024092,-0.6419331979524058,-0.7361318302558264,-1.2268776798296017,0.0
0.3125539516326788,-0.4996459710816268,-1.0910140449841577,-0.8843495401307205,-1.2721270787173893,-1.4524234725561078,0.0
0.3125539516326788,-0.4996459710816268,-1.0910140449841577,-0.8557003438744617,-1.5991240589589908,-1.6153177580782037,0.0
0.48279091355540665,-0.5231133284579226,-1.4498612531379838,-0.4406541659758015,-1.1551280535516335,-0.6479767384734434,0.0
0.3842324908400427,-0.519760899133136,-1.4242292923389124,-0.2694935391048385,-0.8031312424118506,-1.052706171916129,0.0
0.3663127776190676,-0.5365232804922618,-1.7830765191875977,0.09045800579727759,0.26785927493560474,-0.9524635769937582,0.0
0.567909237678502,-0.4895885657396703,-1.8172524419932137,-0.04764585650722037,0.8348542317493725,-0.3008867405642321,0.0
0.3349535931588983,-0.358841797481953,-1.236261716908025,0.10661908810808532,-0.6031329855194485,-0.785810298850232,0.0
0.29463423841170333,-0.4694736670300604,-1.1337339484911775,-0.10274048166404172,-1.5801243006613572,-3.0688352927549265,0.0
0.9218229464396901,-0.6806799714424197,-1.6976366747838396,-0.007977732755684072,-1.1211283576857858,-2.3909448355259024,0.0
0.8680638067767631,-0.6002204352877777,-1.7916205185838607,-0.16150807742614026,-0.5841331784351836,-1.0940561911237485,0.0
0.5813490225942308,-0.41918643492698493,-1.6378288285688707,-0.009446923685699887,0.8668539196772477,0.11637302488522164,0.0
0.42455184558723513,-0.28843969601116676,-1.7232686729726294,-0.07702965718817063,1.212850902149638,0.428378093175483,0.0
0.33047366485365387,-0.32866946408848746,-1.5353010601520234,0.002306603754426772,1.219850807965963,0.8932530896847686,0.0
0.5589493810680146,-0.48623607773108557,-1.5096691367426707,0.18301696271080956,1.6598468950706384,0.16900038874776072,0.0
0.514150098015577,-0.5767530192276842,-1.518213098749215,0.4166181772283959,1.922844499456489,0.1088548333226324,0.0
0.42455184558723513,-0.5264658164665076,-1.3644214461239441,0.3953149177028494,2.17284222299873,0.026154693896692983,0.0
0.3663127776190676,-0.43594884562801006,-1.287525601116449,0.06107420511632731,2.3578407374694423,-0.016448406509595687,0.0
0.33047366485365387,-0.40912900024312954,-1.0653821028799457,-0.012385296586048363,1.31584992053622,-0.12671524793370242,0.0
0.5186300263208207,-0.5767530192276842,-0.8688705257159378,0.09045800579727759,0.6968554403480106,-0.3873459855621013,0.0
0.379752562534799,-0.44600628031186573,-0.8261506198720606,0.01846768606523455,0.4998572197558822,0.05497443816978439,0.0
0.6351081622571587,-0.358841797481953,-1.2106297748038133,-0.028546387856539346,0.029861379481357392,0.4998009397652308,0.0
-0.13991786616733468,-0.1308730823685686,-0.9970302479212844,-0.06894911155292514,0.2408595092793978,2.7126560133002537,0.0
-0.265355701875893,-0.4594162030043059,-1.1508219098939854,-0.1409394200853642,0.7278551487002153,-0.3096579882519124,0.0
0.527589882931308,-0.6270402806726585,-0.757798769587114,-0.15710050911593437,0.6238561019513318,-1.240661060319989,0.0
0.5723891659837449,-0.5834579952448536,-1.0141182093240924,-0.14755077479059384,0.3328586791536568,-2.9535561771608916,0.0
0.2543148836645091,-0.5901629712620232,-0.7834307116913258,-0.16665024568119569,-0.07513768343316979,-3.3883585908151344,0.0
0.061678593892099676,-0.37225172017439334,-0.7150788567326646,-0.31797680395662814,0.21885970248483252,-3.140257986515246,0.0
0.5320698112365511,-0.3521368214647835,-0.9799422818447616,-0.2107259467026211,1.170851272105164,-1.2882762302480495,0.0
0.9531821308998577,-0.39907156555927387,-1.0824700642827538,0.1734672306253899,1.3718494597866058,-1.1567078205917019,0.0
0.6171884490361854,-0.2951446426864373,-1.0568381128311122,0.21754294060649837,1.4108491023174372,-0.6304342430980828,0.0
0.527589882931308,-0.3119070533874625,-0.9201344134296477,0.1734672306253899,1.4908483465304405,-0.2971276562451446,0.0
0.6171884490361854,-0.3219644880713179,-0.8603265426776764,-0.07629506172316271,1.1558513345369503,0.2880384663973406,0.0
0.4514314154186994,-0.40577651223454475,-0.6552709918228368,-0.1791383596266471,0.28385911889954235,-0.52643259442251,0.0
0.2811944534959723,-0.3923665895421044,-0.49293533980130205,0.1565715438898909,0.5408568214380545,-1.3709763909268313,0.0
0.7695056977379381,-0.3353744107637583,-0.7150788567326646,0.07209312813176286,0.9388532784982556,-0.934921142750169,0.0
0.7560659128222041,-0.2314475172328204,-0.8176066344969418,0.04491310488615315,1.2448505412908821,-0.03774995563815812,0.0
0.6754272033278165,-0.28173471999399696,-0.8176066344969418,0.01846768606523455,1.4408487823073401,0.12639728284916446,0.0
0.5589493810680146,-0.3052021067121916,-0.5185673006003733,-0.18721890078205097,0.3228587858236891,-0.4449854822273474,0.0
0.46487120033442975,-0.2984971306950221,-0.4843913777947575,-0.07849884811818648,0.2138597436231909,-0.2983806741628785,0.0
0.46039127202918606,-0.2649723092929718,-0.6210950690172209,-0.09392534168374872,0.39785810776502445,0.038685018023193386,0.0
0.34391344976938565,-0.241504951916676,-0.5783751468153417,-0.11669778597952875,0.5248569530808013,0.3820158800333849,0.0
0.4111120606715055,-0.28173471999399696,-0.5441992240097259,-0.20044161019251028,0.639855970308585,0.23039896973209442,0.0
0.720226486380254,-0.3756041788410792,-0.45875941699568623,-0.019731251236127526,0.793854581280569,-0.627928207262615,0.0
0.5903088792047219,-0.2951446426864373,-0.5014793391975654,0.04711690024086009,0.6528558511521957,-0.42744301741787255,0.0
0.5589493810680146,-0.22474255588660044,-0.4843913777947575,-0.046911265522054026,0.11386063347197646,0.4446675095013383,0.0
0.46039127202918606,-0.18451277313832987,-0.4843913777947575,-0.04984964290224411,0.3518585106312372,-0.20440326052683422,0.0
0.20503598598336434,-0.2348000052414054,-0.45875941699568623,-0.17179240945640953,0.7268551691245447,0.16774735554708398,0.0
0.13335713309946323,-0.3119070533874625,-0.51002330120411,-0.2283562199434447,0.9968527768999829,0.4020644112442133,0.0
0.48279091355540665,-0.26832479730155656,-0.17680807254421468,-0.466364980372029,-0.1481370340265062,0.16022915634302323,0.0
0.48279091355540665,-0.26832479730155656,-0.17680807254421468,-0.4017206332094314,-0.7491317110994368,0.27801420079192635,0.0
0.38871241914528676,-0.3353744107637583,-0.42458349419007035,-0.3627871004430614,-0.6051329934574203,-0.0064241485456528686,0.0
0.5051905550816272,-0.28173471999399696,-0.5612871854125338,-0.1313896857600237,0.15386027387346493,-0.04652118422215984,0.0
0.5051905550816272,-0.28173471999399696,-0.5612871854125338,-0.06674532963774299,0.8378541704763839,0.20032618819879455,0.0
0.5947888075099655,-0.32866946408848746,-0.4843913777947575,-0.03515774704161057,0.8798538493074889,0.019889531952840777,0.0
0.4693511286396763,-0.3554893094733682,-0.3647756479751019,0.07943906486247565,0.4378577542648419,0.17651857266887858,0.0
0.23639517044353436,-0.3554893094733682,-0.21952791996665671,0.2124007633917597,-0.5411335200284079,0.6113208182107501,0.0
0.3573532346851167,-0.27167728531014157,-0.39040757138445453,0.2535380735934703,-1.3141267087618633,0.516090356091086,0.0
0.5186300263208207,-0.3052021067121916,-0.5612871854125338,0.12571855227892476,-1.1581280410652761,-0.21943964365201274,0.0
0.48279091355540665,-0.3554893094733682,-0.6296390497186249,0.10808827903810118,-0.6311327551446413,-0.8660043625617745,0.0
0.38871241914528676,-0.3320219520970724,-0.6467270111214328,0.05960501418631148,-0.8281309757367699,-0.688073739763329,0.0
0.38871241914528676,-0.3320219520970724,-0.6467270111214328,-0.11596319107450102,-0.7541316577644207,0.04495018020584157,0.0
0.5544694527627716,-0.22474255588660044,-0.6381830304200288,-0.20778756484258942,-0.41213469116797435,0.3306415646544654,0.0
0.5544694527627716,-0.22474255588660044,-0.6381830304200288,-0.054991806677457934,-0.569133289653601,-0.1442577127431773,0.0
0.5231099546260637,-0.338726898772343,-0.6210950690172209,0.2807180968390801,-0.2461361545347351,-0.45751581423411547,0.0
0.527589882931308,-0.2783822319854122,-0.7834307116913258,0.38576518561742973,0.1888599615116406,-0.44373243374372817,0.0
0.527589882931308,-0.2783822319854122,-0.7834307116913258,0.3049597382246581,0.3468585639662533,-0.16430622867106293,0.0
0.42007191728199217,-0.2951446426864373,-0.6210950690172209,0.18448615364082538,0.2938590366228256,-0.27081397431387505,0.0
0.2856743818012156,-0.25156238660053143,-0.21098399534983067,0.13232990250431287,0.8958537176647421,-0.5753008434000757,0.0
0.2856743818012156,-0.25156238660053143,-0.21098399534983067,-0.12257454577973068,0.5808564923311874,-1.0865380836173448,0.0
0.4155919889767492,-0.378956666849664,-0.21952791996665671,-0.13947022915534837,0.8608539934365931,0.23666413573547831,0.0
0.6530278754781327,-0.17780781179210972,-0.7065348760312605,-0.33119952232677063,0.7948545608562395,0.9358561879418934,0.0
0.6530278754781327,-0.17780781179210972,-0.7065348760312605,-0.28051246212027403,1.086852012016216,0.8118060080554921,0.0
0.3707927059243116,-0.24820992793384553,-0.38186360937790986,0.005979572119783163,0.5778565048175447,0.20659135420217845,0.0
0.27671452519072826,-0.32866946408848746,-0.30496776437041484,-0.1321242812250316,0.19285992860095394,-0.0014120176533136076,0.0
0.379752562534799,-0.32866946408848746,-0.38186360937790986,-0.24304812028391984,0.3408586133322834,0.008612240310629215,0.0
0.5186300263208207,-0.26161985062628595,-0.4843913777947575,-0.4979525943270525,0.6748556457501029,-0.10040157364390427,0.0
0.49623069847114054,-0.27167728531014157,-0.2964237649741515,-0.3121000581559312,0.39685810379603836,0.1502048983790804,0.0
0.4559113437239431,-0.3052021067121916,-0.21952791996665671,-0.03442315157660266,-0.029138092397711417,0.17150645514911428,0.0
0.42007191728199217,-0.2649723092929718,-0.3305996877797675,-0.023404228561167105,0.1108606581549915,-0.10666673200581676,0.0
0.4111120606715055,-0.241504951916676,-0.5185673006003733,-0.3334032997621112,0.2878590859888557,-0.23447602677719126,0.0
0.3259937365484102,-0.2984971306950221,-0.3220557257732227,-0.2863892258403373,-0.41013468323000213,-0.38233385275939424,0.0
0.4111120606715055,-0.3152595413960473,-0.39895157078071775,0.0338941818707176,-0.7651315306700589,-0.1279682811343792,0.0
0.567909237678502,-0.27167728531014157,-0.5441992240097259,0.20652399967169643,-0.6921321922733801,0.062492631642741506,0.0
0.6037486641204521,-0.2649723092929718,-0.527111262606918,0.1000077378826973,-0.4131346707436449,0.05121534047812191,0.0
0.5455095961522842,-0.25826736261770117,-0.47584737839849417,0.05299364604155704,-0.0541378684109328,-0.02271356869224389,0.0
0.527589882931308,-0.2649723092929718,-0.4416714555928782,-0.09980210204393085,0.1958599039179389,-0.35476715291039074,0.0
0.527589882931308,-0.28843969601116676,-0.4331274935863337,0.0346287773357255,-0.013138236237116048,0.18528980507361603,0.0
0.527589882931308,-0.28843969601116676,-0.4331274935863337,0.0346287773357255,-0.013138236237116048,0.18528980507361603,0.0
0.44247155880821276,-0.378956666849664,-0.4843913777947575,-0.2716973344595454,-0.47213414872104276,1.7866651962984277,0.0
0.6127085207309388,-0.3052021067121916,-0.5527432234059892,-0.6786629532834352,-0.195136610735964,0.9383622849091328,0.0
0.6530278754781327,-0.27167728531014157,-0.8859584882871745,-0.31797680395662814,0.5108570926615205,0.31936428113131726,0.0
0.40663213236626256,-0.2951446426864373,-0.5698311848087972,0.18375156713550067,2.220841828070489,-0.0314847934555099,0.0
0.03927895236588053,-0.3152595413960473,0.08805538528388658,-0.18648430531704305,-0.26413600643664487,0.8493969735099096,0.0
0.24983495535926578,-0.44265382164517986,-0.07428022934792997,0.02581364071531371,-0.9211301983666458,0.009865273511305995,0.0
0.5813490225942308,-0.2917921546778526,-0.5612871854125338,0.13967585715439193,-0.07213770811618482,-0.020207502290890324,0.0
0.626148305646672,-0.25156238660053143,-0.757798769587114,-0.09833291111391503,0.8068544621241792,0.04620321149615049,0.0
0.5410296678470377,-0.3152595413960473,-0.6552709918228368,-0.439184992965152,1.4698485315082037,0.1865428382742928,0.0
0.6530278754781327,-0.41918643492698493,-0.6979908953298566,-0.6316488793616614,2.463839645796405,-0.24324727446487157,0.0
0.6530278754781327,-0.41918643492698493,-0.6979908953298566,-0.44726551620118943,3.0768342973172214,-0.6905798367305683,0.0
0.4693511286396763,-0.2951446426864373,-0.16826407314795155,-0.2584746160894029,2.9678352063300926,-0.3021397890478517,0.0
0.23191524213829068,-0.21133263319415999,0.32728684492319765,0.0948655606679587,0.6318560361299586,-0.6667721906347666,0.0
0.23191524213829068,-0.21133263319415999,0.32728684492319765,0.46363225115016976,-1.8241221467495743,-0.2783321735179357,0.0
0.34839337807462933,-0.2783822319854122,-0.1938959965573038,0.01846768606523455,-2.1781189170406985,1.1614019806683997,0.0
0.9307828030501775,-0.6438026620317844,-0.9713983011433577,-0.33487249069212704,-1.243127329516526,1.2278127250213262,0.0
0.9307828030501775,-0.6438026620317844,-0.9713983011433577,0.46142845579546277,-0.05713784372791776,-0.13047434753573278,0.0
0.4111120606715055,-0.3688992321658086,-0.057192305334840265,-0.23129460180347639,-1.4301256079920557,-0.5740478254823417,0.0
0.5410296678470377,-0.28843969601116676,-0.30496776437041484,-0.2746356984002107,-0.49013397622963667,-0.09163034888063823,0.0
0.5410296678470377,-0.28843969601116676,-0.30496776437041484,-0.7153927086144647,-0.44613438703382174,0.11136089208251454,0.0
0.6619874184120869,-0.28843969601116676,-0.5014793391975654,-0.32679194953672314,1.0628522094803365,0.2278929033307409,0.0
0.8053448105033486,-0.3353744107637583,-0.5527432234059892,0.0757660964971193,1.0118526168949342,-0.2156805593329253,0.0
0.24983495535926578,-0.3119070533874625,-0.057192305334840265,0.11543423368818036,-0.28213583394523917,-0.32218828969279445,0.0
0.1602367029309264,-0.28843969601116676,0.04533546308200736,-0.04544207459203822,-0.2351362572357813,-0.033990859856863474,0.0
0.5723891659837449,-0.201275183839355,-0.38186360937790986,-0.4178817334396057,-0.22413635993682757,-0.11794403081190778,0.0
0.48279091355540665,-0.201275183839355,-0.8517825619762724,-0.46122283899602307,-0.14513705870952123,0.0700108270260665,0.0
0.5007106267763842,-0.318612029404632,-0.3220557257732227,-0.5493742231195076,-0.9601298408974772,0.2015792213994713,0.0
0.4111120606715055,-0.2917921546778526,-0.49293533980130205,-0.12698211520989697,0.029861379481357392,-0.05905150858745623,0.0
0.5186300263208207,-0.3152595413960473,-0.41603953218352574,-0.19089187810709052,-0.09713749022773509,-0.1392455799404702,0.0
0.49623069847114054,-0.3420793867809278,-0.3305996877797675,-0.17326160038642535,-0.10413743263403337,-0.02146053549156708,0.0
0.514150098015577,-0.28173471999399696,-0.42458349419007035,-0.14167401555037212,0.12186056155227416,-0.0314847934555099,0.0
0.2811944534959723,-0.27502977331872636,-0.2964237649741515,-0.07041830248294098,-0.51813374585483,0.00735920902032029,0.0
0.5410296678470377,-0.3353744107637583,-0.4843913777947575,-0.15856970004595022,0.07386098849674134,0.016130434738770256,0.0
0.5903088792047219,-0.34878433345619847,-0.4416714555928782,-0.07262208887796473,0.11486062524430479,-0.10917279840717033,0.0
0.5186300263208207,-0.3353744107637583,-0.4416714555928782,0.01846768606523455,0.38985817358639774,-0.12546221473302563,0.0
0.514150098015577,-0.3052021067121916,-0.3220557257732227,0.008183358514806912,0.30185897080145213,-0.020207502290890324,0.0
0.4514314154186994,-0.28843969601116676,-0.35623164857883866,-0.09245615187369328,-0.007138291701474965,0.0700108270260665,0.0
0.39319234745053006,-0.27167728531014157,-0.39895157078071775,-0.14240861101538005,-0.08313761761179635,-0.015195373308918908,0.0
0.44247155880821276,-0.2951446426864373,-0.236615918759183,-0.1409394200853642,-0.37213502027484163,0.05497443816978439,0.0
0.44247155880821276,-0.28508720800258175,-0.3135117263769595,-0.22762162447843678,-0.5441335075420506,0.19030193787632319,0.0
0.4559113437239431,-0.2649723092929718,-0.39895157078071775,-0.1975032372921618,-0.6631324430725166,0.28052026719327994,0.0
0.3842324908400427,-0.2649723092929718,-0.3391436871760307,-0.2533324478343475,-0.40213479783800676,0.26423085086742465,0.0
0.4514314154186994,-0.26832479730155656,-0.3220557257732227,-0.12918590048496031,-0.37513500778848413,0.15396399033963937,0.0
0.6037486641204521,-0.358841797481953,-0.5612871854125338,-0.15269294080572848,0.2998589872567955,-0.3384777365845355,0.0
0.6171884490361854,-0.34878433345619847,-0.5441992240097259,-0.10053669638897837,-0.08913755604910853,0.062492631642741506,0.0
0.3125539516326788,-0.27167728531014157,-0.3220557257732227,-0.3304649179020795,-0.330135414623683,-0.028978730874892066,0.0
0.34839337807462933,-0.28173471999399696,-0.41603953218352574,-0.37674440531852865,-0.356135176310904,0.011118305756798844,0.0
0.527589882931308,-0.3152595413960473,-0.42458349419007035,0.0346287773357255,0.14686033756549555,-0.10917279840717033,0.0
0.626148305646672,-0.378956666849664,-0.5014793391975654,0.1977088540916015,0.9308533443196292,-0.2770791250343161,0.0
0.6037486641204521,-0.3688992321658086,-0.586919146211605,0.15510235295987504,0.953853118493207,-0.24951242518531258,0.0
0.5544694527627716,-0.3052021067121916,-0.5612871854125338,0.0008374128244109394,0.7028554153752958,-0.17808957859556473,0.0
0.4559113437239431,-0.241504951916676,-0.27933580357134324,0.3159786433207272,1.2558504629831515,-0.4537566993491422,0.0
0.39319234745053006,-0.25491487460911644,-0.2964237649741515,0.3776846265426595,1.5428479674781443,-0.24951242518531258,0.0
0.527589882931308,-0.3521368214647835,-0.4331274935863337,0.14187965250909892,1.5798475532843725,-0.03649692625821703,0.0
0.40663213236626256,-0.30184961870360694,-0.21098399534983067,-0.027811792391531413,0.7588549058390509,0.08003508499000929,0.0
0.38871241914528676,-0.241504951916676,-0.2964237649741515,-0.2694935391048385,0.5428568293760266,-0.12546221473302563,0.0
0.44247155880821276,-0.25491487460911644,-0.270791841564799,-0.29887733978578873,0.6538558307278658,-0.10290764004525783,0.0
0.5365497395417947,-0.3152595413960473,-0.18535199716104064,-0.2790432711902582,0.6078562335940787,0.28553239999598706,0.0
0.3170338799379228,-0.28173471999399696,0.02824753906891749,-0.11669778597952875,0.23685954219008454,0.12013212448725198,0.0
0.3170338799379228,-0.3052021067121916,0.0026155408801281413,0.14775639830979598,0.2658592913909481,0.1790246390702321,0.0
0.3215138082431669,-0.2917921546778526,-0.08282422874419303,0.16832507133001753,-0.21813640930285763,-0.140498613141147,0.0
0.46487120033442975,-0.3119070533874625,-0.18535199716104064,0.05078986860621648,-0.2611360433163177,-0.3033928069655856,0.0
0.44247155880821276,-0.25491487460911644,-0.1426321497385986,-0.052053429297267854,-0.42313461286024345,-0.2620427571920804,0.0
0.4155919889767492,-0.22474255588660044,-0.236615918759183,-0.08657939151351114,-0.23413627766011078,-0.16806532827309334,0.0
0.5365497395417947,-0.2951446426864373,-0.21098399534983067,0.14041046157908305,0.6198561348620188,-0.3347186216995623,0.0
0.5007106267763842,-0.2314475172328204,-0.18535199716104064,0.09706935602266563,0.3908581775553838,-0.02271356869224389,0.0
0.46487120033442975,-0.21468510653179534,-0.24515991815544616,0.06033960069163621,0.6378559623706128,-0.051533309383395565,0.0
0.42455184558723513,-0.2314475172328204,-0.2964237649741515,-0.17399619585143328,0.5638566443982638,0.18779587147496962,0.0
0.5544694527627716,-0.32866946408848746,-0.20243999595356693,-0.10567886128415259,0.43185780363087184,0.18153070547158567,0.0
0.5858289508994782,-0.3688992321658086,0.3785507665213399,-0.0491150474372362,-0.2531361091376911,0.26673690198583533,0.0
0.20951591428860838,-0.318612029404632,0.13931923210259176,-0.3135692311665806,-0.6051329934574203,-0.26329577510981444,0.0
0.09303777835226934,-0.026946177834418703,-0.01447238313296156,-0.6103456198361149,-0.8591306840889745,0.7616846800284207,0.0
0.49623069847114054,-0.26161985062628595,-0.03156038192548802,-0.1659156502161878,-0.12113728056695702,0.021142564437129613,0.0
0.44247155880821276,-0.358841797481953,-0.09991222753671948,0.010387144909830661,-0.13813712849988077,-0.18059564499691827,0.0
0.527589882931308,-0.3521368214647835,-0.3391436871760307,-0.04176909726699863,-0.026138123179055332,-0.2607897087084608,0.0
0.47383105694492,-0.19457022249313485,-0.270791841564799,-0.2849200349103215,-0.30713561605678963,-0.1279682811343792,0.0
0.6082285924256952,-0.3253169760799027,-0.15117607435542457,-0.15563131818591855,0.2628593038773054,0.16774735554708398,0.0
0.2811944534959723,-0.25826736261770117,-0.12554415094607224,-0.38555955089862354,-0.420134625346601,-0.012689310728301059,0.0
0.3573532346851167,-0.22809502922423563,-0.21098399534983067,-0.337076286046834,-0.3921348557214078,-0.14175164634182377,0.0
0.4559113437239431,-0.25826736261770117,-0.21098399534983067,0.27777971497904835,-0.06813775322352926,0.564958605068652,0.0
0.7784655543484248,-0.36554674415722355,-1.039750151428304,-0.19456485543213015,0.1698601300340603,-0.4111536010920174,0.0
0.5051905550816272,-0.19121773448455,0.28456692272131845,-0.30842707187120844,-0.5821331704972114,-0.06406363374869194,0.0
0.514150098015577,-0.2649723092929718,0.3443748437157239,0.21607373175711614,-0.5671333305022599,-0.07784699131466509,0.0
0.5365497395417947,-0.23815246390809125,0.5921503027512982,-0.15489672272091062,0.2018598545519088,-0.020207502290890324,0.0
0.5903088792047219,-0.2984971306950221,-1.2020857941024092,-0.5089714994231217,-0.1471370422541779,0.14018064041513764,0.0
0.8143046671138389,-0.5700481018943124,-2.0564839016325247,-0.12698211520989697,-0.21813640930285763,0.31059303344363703,0.0
0.5007106267763842,-0.25156238660053143,0.12223130808950189,-0.20337999205254195,0.07486097874448745,-0.018954472910949254,0.0
0.5007106267763842,-0.25156238660053143,0.12223130808950189,-0.20484918298255778,-0.18313673386133966,-0.2607897087084608,0.0
0.4155919889767492,-0.2348000052414054,-0.12554415094607224,0.1411450480844078,-0.15313699288814778,-0.19563202812209673,0.0
0.40215220406101887,-0.24485743992526077,-0.3220557257732227,0.282921892193787,-0.534133614212083,0.004853144529334585,0.0
0.47383105694492,-0.1979227105017197,-0.26224784216853586,-0.0050393508956523905,-0.7121320277199465,0.1138669584838681,0.0
0.5858289508994782,-0.241504951916676,-0.42458349419007035,-0.38629413740394836,-0.13213717786591084,-0.36980352075262646,0.0
0.6664673467173298,-0.318612029404632,-0.4416714555928782,-0.2548016387643633,0.34985852708658055,-0.6818085890428878,0.0
0.4872708418606496,-0.26161985062628595,-0.38186360937790986,-0.15636591365092647,0.21585972716784754,-0.6053736402163186,0.0
0.34839337807462933,-0.27167728531014157,-0.3391436871760307,-0.1842805234018609,-0.17113683259339982,-0.16931836147377008,0.0
0.3573532346851167,-0.241504951916676,-0.3305996877797675,-0.16665024568119569,-0.420134625346601,0.3231233654504048,0.0
0.4693511286396763,-0.28843969601116676,-0.4074955327872624,-0.2210102742530487,-0.5371335529390948,0.3782567957142974,0.0
0.46487120033442975,-0.3420793867809278,-0.4843913777947575,-0.16885402759637783,-0.05613785195558944,-0.10290764004525783,0.0
0.48279091355540665,-0.24820992793384553,-0.27933580357134324,-0.07556046625815481,0.2578593572123215,-0.3898520519634549,0.0
0.39767227575577413,-0.21803759454038016,-0.15972007375168773,0.07209312813176286,-0.17213681216907042,0.006106175819643514,0.0
0.4514314154186994,-0.28173471999399696,-0.42458349419007035,0.26455701452827224,-0.3101356035704321,0.05121534047812191,0.0
0.4872708418606496,-0.25491487460911644,-0.4416714555928782,0.1514293845945186,-0.24013622829408068,-0.025219631272861733,0.0
0.46487120033442975,-0.25156238660053143,-0.4416714555928782,-0.0410345018019907,-0.05113789919227672,0.11010785888183773,0.0
0.49623069847114054,-0.25156238660053143,-0.3220557257732227,-0.24965947946899109,-0.03513804303168133,0.28929148431507457,0.0
0.5051905550816272,-0.241504951916676,-0.4416714555928782,-0.499421767337702,-0.41213469116797435,0.33565369745717255,0.0
0.5096701697103341,-0.2314475172328204,-0.41603953218352574,-0.4105357787895264,-0.1901366640709802,0.24919445245930327,0.0
0.40663213236626256,-0.19457022249313485,-0.1938959965573038,0.06695095091702426,0.027861397461282966,0.18904890467564636,0.0
0.47383105694492,-0.22809502922423563,-0.4416714555928782,-0.2210102742530487,0.16486018336907646,0.061239598442064724,0.0
0.4335117021977261,-0.2951446426864373,-0.42458349419007035,-0.41567793808489867,-0.10213744908937669,-0.057798475386779465,0.0
0.3663127776190676,-0.19121773448455,-0.45875941699568623,-0.3752752143885128,-0.1371371367275524,-0.140498613141147,0.0
0.46487120033442975,-0.23815246390809125,-0.42458349419007035,-0.18060755055666292,0.09786077426221665,-0.04652118422215984,0.0
0.47831098525016297,-0.25156238660053143,-0.42458349419007035,0.0346287773357255,0.029861379481357392,0.13391547441175372,0.0
0.47831098525016297,-0.25156238660053143,-0.42458349419007035,0.016263908629893974,-0.07913765052248309,0.1426867068164912,0.0
0.491750770165894,-0.2783822319854122,-0.5185673006003733,-0.09098696206363785,0.052861175380232134,-0.11418493120987744,0.0
0.5186300263208207,-0.27167728531014157,-0.5441992240097259,-0.09686372130385959,0.4228578898765745,-0.16054712906903262,0.0
0.5186300263208207,-0.27167728531014157,-0.5441992240097259,-0.08217182320330525,0.3678583789884903,-0.013942340108242128,0.0
0.527589882931308,-0.25491487460911644,-0.5185673006003733,0.046382295816168984,0.3618584283545203,0.3281354982531119,0.0
0.49623069847114054,-0.23815246390809125,-0.4673034163919495,0.006714167584791079,0.7268551691245447,0.20659135420217845,0.0
0.379752562534799,-0.27502977331872636,-0.38186360937790986,0.05225905953623232,0.9948528177486415,0.1464457987770501,0.0
0.3663127776190676,-0.27167728531014157,-0.3220557257732227,-0.03442315157660266,0.735855082878842,0.23541110253480155,0.0
0.42455184558723513,-0.2951446426864373,-0.20243999595356693,0.14702181180447124,0.5528567227059945,0.2604717512653943,0.0
0.42455184558723513,-0.2951446426864373,-0.20243999595356693,0.23296943641198148,0.2628593038773054,0.3481839988980547,0.0
0.4559113437239431,-0.24485743992526077,-0.4331274935863337,0.009652549444822762,-0.00013835234434117412,0.19406103747835352,0.0
0.5320698112365511,-0.2348000052414054,-0.4416714555928782,-0.179872955091655,0.07386098849674134,0.08128811819068606,0.0
0.5320698112365511,-0.2348000052414054,-0.4416714555928782,-0.69702783094895,0.2968589997431528,0.1639882559450536,0.0
0.6485479471728898,-0.241504951916676,0.7288539939737617,0.23664240477733772,0.33085869560900016,0.34693098098032077,0.0
0.3125539516326788,-0.241504951916676,0.0026155408801281413,0.2043202043169895,0.08586088214177011,0.35820826450346893,0.0
0.3035940950221918,-0.241504951916676,-0.16826407314795155,0.1903629173608886,-0.07513768343316979,0.28553239999598706,0.0
0.4155919889767492,-0.28843969601116676,-0.26224784216853586,-0.0402999063369828,-0.1371371367275524,0.24167625325524258,0.0
0.527589882931308,-0.2649723092929718,-0.3647756479751019,-0.16665024568119569,0.08786086263726231,0.021142564437129613,0.0
0.567909237678502,-0.27167728531014157,-0.39895157078071775,-0.07849884811818648,0.011861539776105356,0.019889531952840777,0.0
0.491750770165894,-0.28843969601116676,-0.3220557257732227,0.023609854320289947,0.03586132706616288,-0.03774995563815812,0.0
0.4290317738924824,-0.28508720800258175,-0.26224784216853586,-0.25700542515938707,-0.025138131406726986,0.0700108270260665,0.0
0.4514314154186994,-0.26832479730155656,-0.27933580357134324,-0.250394074933999,-0.1851367174059963,-0.09288338208131502,0.0
0.567909237678502,-0.2917921546778526,-0.5185673006003733,-0.1365318495352375,-0.12113728056695702,-0.08536518287725438,0.0
0.5903088792047219,-0.28843969601116676,-0.586919146211605,-0.3069578809411926,-0.2531361091376911,-0.15678802946700227,0.0
0.39767227575577413,-0.27167728531014157,-0.2537038427722721,-0.4068627925048038,-0.781131399027312,-0.1630531954703862,0.0
0.375272634229555,-0.2783822319854122,-0.236615918759183,-0.3701330550931407,-0.7131320072956171,-0.26705488999478755,0.0
0.4514314154186994,-0.27167728531014157,-0.39895157078071775,-0.32973033139675484,-0.5171337662791594,0.026154693896692983,0.0
0.5410296678470377,-0.28173471999399696,-0.41603953218352574,-0.33928006348217454,-0.3141355706597454,0.1865428382742928,0.0
0.44247155880821276,-0.2984971306950221,-0.3476876491825752,-0.343687636272222,-0.5121338196141755,0.013624370247784554,0.0
0.34839337807462933,-0.338726898772343,-0.27933580357134324,-0.2746356984002107,-0.7861313456922959,-0.10165460684458108,0.0
0.3842324908400427,-0.2649723092929718,-0.4673034163919495,-0.10200588619903381,-0.6861322660327259,-0.1843547445989486,0.0
0.5096701697103341,-0.22474255588660044,-0.6809029339270486,0.06548175998700843,-0.4451344074581512,-0.005171115344976089,0.0
0.5410296678470377,-0.2314475172328204,-0.6638149725242408,0.06768555534171537,-0.1571369477808033,0.16774735554708398,0.0
0.5186300263208207,-0.28843969601116676,-0.604007107614413,0.06621636441169954,0.41085798860863476,0.221627737327357,0.0
0.46487120033442975,-0.3119070533874625,-0.5185673006003733,0.03242499094070177,0.8308542646600592,0.25671265166336393,0.0
0.47831098525016297,-0.28843969601116676,-0.5014793391975654,-0.03662693349178482,1.3228499239258067,0.2529535520613336,0.0
0.49623069847114054,-0.28508720800258175,-0.45875941699568623,-0.005773946360660307,1.4448487981832845,0.6301162703720733,0.0
0.5051905550816272,-0.318612029404632,-0.39040757138445453,0.1000077378826973,1.3728493905756454,0.813059025973226,0.0
0.46039127202918606,-0.32866946408848746,-0.2964237649741515,0.1565715438898909,1.0628522094803365,0.4546917751067524,0.0
0.4379916305029698,-0.32866946408848746,-0.30496776437041484,0.21533914525179135,0.511857072237191,-0.34975502010768367,0.0
0.375272634229555,-0.2951446426864373,-0.26224784216853586,0.12057639298355258,0.24485946417205334,0.1126139252831913,0.0
0.5186300263208207,-0.3052021067121916,-0.2964237649741515,-0.04176909726699863,0.2798591518102291,0.01738346746185507,0.0
0.44247155880821276,-0.2649723092929718,-0.27933580357134324,-0.07482587303306769,-0.11513732993298714,0.15647005674099293,0.0
0.4335117021977261,-0.28173471999399696,-0.3220557257732227,-0.21513351053298538,-0.20413654888357666,0.09632450895733602,0.0
0.47383105694492,-0.2951446426864373,-0.4843913777947575,-0.2011762056575182,-0.1371371367275524,0.038685018023193386,0.0
0.4514314154186994,-0.3253169760799027,-0.2964237649741515,-0.011650701121040446,-0.09013754782143685,-0.09288338208131502,0.0
0.491750770165894,-0.338726898772343,-0.27933580357134324,-0.052053429297267854,0.04986120206426133,-0.012689310728301059,0.0
0.48279091355540665,-0.3119070533874625,-0.2964237649741515,-0.09098696206363785,0.07286099824899524,0.019889531952840777,0.0
0.4693511286396763,-0.3052021067121916,-0.37331960998164654,-0.11155562115435205,0.06686105066418975,0.013624370247784554,0.0
0.4514314154186994,-0.3052021067121916,-0.3220557257732227,-0.10641345618918031,0.04186127312638614,0.03116682359505234,0.0
0.46039127202918606,-0.3052021067121916,-0.3220557257732227,-0.09025236659862994,0.016861495588582534,0.022395596802020454,0.0
0.46487120033442975,-0.3052021067121916,-0.3220557257732227,-0.09172155752864578,0.045861237547680546,0.06750476062471292,0.0
0.46487120033442975,-0.2951446426864373,-0.35623164857883866,-0.07041830248294098,0.042861264136423355,0.06625173124477185,0.0
0.46487120033442975,-0.2984971306950221,-0.35623164857883866,-0.0799680368082815,0.032861353273760135,0.03116682359505234,0.0
0.4559113437239431,-0.3052021067121916,-0.28787980296760707,-0.10641345618918031,0.042861264136423355,-0.011436277527624278,0.0
0.46039127202918606,-0.3052021067121916,-0.38186360937790986,-0.11743238088455646,0.07886094278463629,0.0023470781279810215,0.0
0.4693511286396763,-0.3085545653788775,-0.2964237649741515,-0.10641345618918031,0.06686105066418975,-0.0314847934555099,0.0
0.4514314154186994,-0.3253169760799027,-0.3220557257732227,-0.10714805137419812,0.06186109485171259,-0.017701439710272483,0.0
0.46039127202918606,-0.32866946408848746,-0.3305996877797675,-0.11522859616947331,0.04186127312638614,0.001094046837672104,0.0
0.4514314154186994,-0.318612029404632,-0.2964237649741515,-0.08584479604850324,0.05186118437019492,0.0023470781279810215,0.0
0.44247155880821276,-0.3253169760799027,-0.3647756479751019,-0.06013397493251336,-0.0011383441166694778,0.01863649970734792,5.0
0.4514314154186994,-0.3219644880713179,-0.35623164857883866,-0.046911265522054026,0.03086137125368571,0.01738346746185507,5.0
0.4559113437239431,-0.3152595413960473,-0.3135117263769595,-0.052053429297267854,0.028861389233611288,0.029913790871967525,5.0
0.46487120033442975,-0.3119070533874625,-0.21952791996665671,-0.0410345018019907,0.029861379481357392,-0.002665050853990384,5.0
0.46039127202918606,-0.3152595413960473,-0.2964237649741515,-0.03148476971657099,0.03586132706616288,0.021142564437129613,5.0
0.4514314154186994,-0.3119070533874625,-0.27933580357134324,-0.030750174251563095,0.03186136150143181,0.012371338002291697,5.0
0.44695148711345645,-0.3152595413960473,-0.3305996877797675,-0.023404228561167105,0.045861237547680546,0.001094046837672104,5.0
0.44695148711345645,-0.3119070533874625,-0.28787980296760707,-0.0013663735706128091,0.027861397461282966,-0.0314847934555099,5.0
0.46487120033442975,-0.3052021067121916,-0.3476876491825752,-0.015323678446080027,0.018861479133239174,0.013624370247784554,5.0
0.4514314154186994,-0.2984971306950221,-0.27933580357134324,-0.03148476971657099,0.001861628151151024,-0.023966601892920658,5.0
0.4379916305029698,-0.2917921546778526,-0.3391436871760307,-0.03515774704161057,-0.003138324612161704,-0.003918082144299308,5.0
0.46487120033442975,-0.30184961870360694,-0.26224784216853586,-0.03442315157660266,-0.002138335888997816,-0.0064241485456528686,5.0
0.46487120033442975,-0.3085545653788775,-0.28787980296760707,-0.023404228561167105,0.015861503816254202,-0.0014120176533136076,5.0
0.47383105694492,-0.318612029404632,-0.30496776437041484,-0.03662693349178482,0.04386125552760612,-0.0665697001500455,5.0
0.46039127202918606,-0.3320219520970724,-0.38186360937790986,-0.03809612442180065,0.04986120206426133,-0.016448406509595687,5.0
0.4514314154186994,-0.3420793867809278,-0.30496776437041484,0.0008374128244109394,0.03586132706616288,-0.033990859856863474,5.0
0.44247155880821276,-0.3420793867809278,-0.27933580357134324,0.06254339604634314,-0.021138164317413728,-0.015195373308918908,5.0
0.44247155880821276,-0.32866946408848746,-0.3305996877797675,0.07650070092181036,-0.0541378684109328,-0.010183244326947498,5.0
0.46039127202918606,-0.3052021067121916,-0.3391436871760307,0.11029205647344174,-0.044137962884307345,0.009865273511305995,5.0
0.46487120033442975,-0.2917921546778526,-0.3476876491825752,0.11616882019350508,-0.016138211554100997,0.016130434738770256,5.0
0.46487120033442975,-0.28173471999399696,-0.3305996877797675,0.12278017041889314,-0.045137954656635663,0.042444113804488016,5.0
0.46039127202918606,-0.2783822319854122,-0.21952791996665671,0.11543423368818036,-0.04813792387529175,0.04745624469682728,5.0
0.4335117021977261,-0.25156238660053143,-0.24515991815544616,0.10221151531803786,-0.07413769166084148,0.09005934295395211,5.0
0.4335117021977261,-0.23815246390809125,-0.28787980296760707,0.038301754660765096,-0.09013754782143685,0.09131237615462888,5.0
0.4514314154186994,-0.2348000052414054,-0.3135117263769595,-0.03368855611159474,-0.07613767520549813,0.1088548333226324,5.0
0.47383105694492,-0.2314475172328204,-0.27933580357134324,-0.10420967147409715,-0.04913791564762008,0.12890334925051802,5.0
0.4693511286396763,-0.22474255588660044,-0.3391436871760307,-0.13947022915534837,-0.05113789919227672,0.08379418459203963,5.0
0.46487120033442975,-0.22474255588660044,-0.2964237649741515,-0.16518105475117983,-0.029138092397711417,0.07502295600803789,5.0
0.4514314154186994,-0.24485743992526077,-0.27933580357134324,-0.21366431960296955,-0.010138267018459927,0.13266244121107698,5.0
0.44695148711345645,-0.241504951916676,-0.3220557257732227,-0.23790596098854758,-0.030138084170039717,0.08254115139136287,5.0
0.46487120033442975,-0.25491487460911644,-0.2964237649741515,-0.2885930032756779,-0.016138211554100997,0.06625173124477185,5.0
0.47383105694492,-0.27167728531014157,-0.2964237649741515,-0.2974081488557729,-0.005138308156818323,0.08003508499000929,5.0
0.48279091355540665,-0.2951446426864373,-0.26224784216853586,-0.27830868468493347,0.03586132706616288,0.04745624469682728,5.0
0.47383105694492,-0.2951446426864373,-0.27933580357134324,-0.27022814352952956,0.026861407213536866,0.016130434738770256,5.0
0.46487120033442975,-0.28173471999399696,-0.270791841564799,-0.265085966314791,0.05186118437019492,0.008612240310629215,5.0
0.46487120033442975,-0.27502977331872636,-0.27933580357134324,-0.2665551572448068,0.055861148791489325,0.01863649970734792,5.0
0.47383105694492,-0.26161985062628595,-0.24515991815544616,-0.27977787561494927,0.04686122874829053,0.003600111328657805,5.0
0.46487120033442975,-0.26161985062628595,-0.3220557257732227,-0.30401949908116094,0.028861389233611288,0.003600111328657805,5.0
0.46039127202918606,-0.2649723092929718,-0.3391436871760307,-0.32532275860670734,0.026861407213536866,0.013624370247784554,5.0
0.4559113437239431,-0.25826736261770117,-0.3305996877797675,-0.33854547697684984,0.032861353273760135,0.021142564437129613,5.0
0.46487120033442975,-0.27167728531014157,-0.3135117263769595,-0.35837952765301406,0.024861423668880223,0.04495018020584157,5.0
0.4514314154186994,-0.28173471999399696,-0.3391436871760307,-0.3804173736838851,0.011861539776105356,0.08755328037333426,5.0
0.4514314154186994,-0.28173471999399696,-0.3391436871760307,-0.367194673233109,0.010861548003777047,0.08128811819068606,5.0
0.47383105694492,-0.3085545653788775,-0.27933580357134324,-0.36646006880841786,0.040861282116348936,0.0487092759871362,5.0
0.46487120033442975,-0.3119070533874625,-0.2964237649741515,-0.34295303184753084,0.05186118437019492,0.00735920902032029,5.0
0.46487120033442975,-0.3119070533874625,-0.2964237649741515,-0.33119952232677063,0.03086137125368571,0.003600111328657805,5.0
0.47383105694492,-0.32866946408848746,-0.3647756479751019,-0.3422184453422062,0.032861353273760135,-0.0064241485456528686,5.0
0.47383105694492,-0.32866946408848746,-0.38186360937790986,-0.3018157216458204,0.058861121821600956,0.008612240310629215,5.0
0.47383105694492,-0.32866946408848746,-0.38186360937790986,-0.2812470665449651,0.04186127312638614,0.02740772638098182,5.0
0.4559113437239431,-0.32866946408848746,-0.39040757138445453,-0.24672109760895938,0.040861282116348936,0.03993804931350231,5.0
0.46487120033442975,-0.3521368214647835,-0.4074955327872624,-0.23129460180347639,0.05686113980152653,0.032419855840545186,5.0
0.46487120033442975,-0.3521368214647835,-0.4074955327872624,-0.23129460180347639,0.14686033756549555,0.032419855840545186,5.0
0.47383105694492,-0.358841797481953,-0.39895157078071775,-0.21586810599799333,0.16186020805209148,0.06625173124477185,5.0
0.4514314154186994,-0.3353744107637583,-0.42458349419007035,-0.16297726835615609,0.08686087391409843,0.05998656906212366,5.0
0.4514314154186994,-0.3353744107637583,-0.42458349419007035,-0.12404373558978611,0.023861433421134125,0.12765031604984126,5.0
0.44695148711345645,-0.3353744107637583,-0.4416714555928782,-0.10347507656906944,0.06486106864411534,0.10133663411857174,5.0
0.46487120033442975,-0.3420793867809278,-0.45875941699568623,-0.07923344134327356,0.04186127312638614,0.09757754215801277,5.0
0.4514314154186994,-0.3119070533874625,-0.4416714555928782,-0.0623377568476955,0.050861193169584935,0.09131237615462888,5.0
0.4514314154186994,-0.3119070533874625,-0.4416714555928782,-0.07702965718817063,0.013861523320762003,0.12263818324713412,5.0
0.47383105694492,-0.32866946408848746,-0.39895157078071775,-0.09465993714875663,0.010861548003777047,0.09632450895733602,5.0
0.47383105694492,-0.32866946408848746,-0.39895157078071775,-0.08070263227328942,0.009861559280613158,0.12639728284916446,5.0
0.47383105694492,-0.3353744107637583,-0.39895157078071775,-0.06747992062290933,0.04486124653764333,0.14519276557637334,5.0
0.46487120033442975,-0.3320219520970724,-0.45021545498914156,-0.0630723523127034,0.008861567508284854,0.12263818324713412,5.0
0.4559113437239431,-0.32866946408848746,-0.42458349419007035,-0.059399379467505425,-0.012138244464787704,0.10509573372060206,5.0
0.46487120033442975,-0.318612029404632,-0.39895157078071775,-0.048380451972228275,0.001861628151151024,0.08254115139136287,5.0
0.4559113437239431,-0.3052021067121916,-0.4416714555928782,-0.08217182320330525,0.015861503816254202,0.11762605808589845,5.0
0.47383105694492,-0.2951446426864373,-0.45875941699568623,-0.10347507656906944,0.06486106864411534,0.10384270051992525,5.0
0.47831098525016297,-0.3052021067121916,-0.39040757138445453,-0.1196361661596198,0.06886103268426418,0.08755328037333426,5.0
0.4514314154186994,-0.3119070533874625,-0.45875941699568623,-0.1189015706946119,0.06886103268426418,0.04620321149615049,5.0
0.4559113437239431,-0.3320219520970724,-0.4331274935863337,-0.11229021612937728,0.06186109485171259,-0.03023176407556887,5.0
0.47383105694492,-0.3353744107637583,-0.39895157078071775,-0.11743238088455646,0.06786104243651808,-0.015195373308918908,5.0
0.48279091355540665,-0.338726898772343,-0.42458349419007035,-0.08657939151351114,0.09086083795424726,-0.050280283824190176,5.0
0.46039127202918606,-0.318612029404632,-0.45021545498914156,-0.10935183622927633,0.08686087391409843,-0.04902725062351341,5.0
0.4559113437239431,-0.3253169760799027,-0.4673034163919495,-0.0975983167688675,0.07686096228914409,-0.018954472910949254,5.0
0.4514314154186994,-0.32866946408848746,-0.39895157078071775,-0.10641345618918031,0.058861121821600956,-0.011436277527624278,5.0
0.46039127202918606,-0.338726898772343,-0.4074955327872624,-0.09539453149380415,0.045861237547680546,0.042444113804488016,5.0
0.46487120033442975,-0.3353744107637583,-0.39895157078071775,-0.09245615187369328,0.04686122874829053,-0.0014120176533136076,5.0
0.46039127202918606,-0.3353744107637583,-0.4416714555928782,-0.11302481117440005,0.025861415441208544,0.05121534047812191,5.0
0.47383105694492,-0.3219644880713179,-0.38186360937790986,-0.10641345618918031,0.03086137125368571,0.03367288808603804,5.0
0.46487120033442975,-0.32866946408848746,-0.38186360937790986,-0.14240861101538005,0.017861487360910856,0.0737699228073611,5.0
0.4514314154186994,-0.338726898772343,-0.39040757138445453,-0.10641345618918031,0.026861407213536866,0.05121534047812191,5.0
0.47383105694492,-0.34543187478951254,-0.4331274935863337,-0.11008643120430156,0.024861423668880223,0.038685018023193386,5.0
0.46039127202918606,-0.3420793867809278,-0.41603953218352574,-0.10494426637912488,0.013861523320762003,0.07126386022674326,5.0
0.46487120033442975,-0.3353744107637583,-0.39895157078071775,-0.10274048166404172,-0.013138236237116048,0.0349259203315309,5.0
0.4693511286396763,-0.3152595413960473,-0.39895157078071775,-0.10494426637912488,-0.002138335888997816,0.05622746946009332,5.0
0.44247155880821276,-0.3119070533874625,-0.3220557257732227,-0.10935183622927633,0.014861512043925886,0.036178952577023755,5.0
0.44695148711345645,-0.3119070533874625,-0.3476876491825752,-0.12698211520989697,0.024861423668880223,0.032419855840545186,5.0
0.4559113437239431,-0.3052021067121916,-0.39895157078071775,-0.14314320424046714,-0.0011383441166694778,0.08128811819068606,5.0
0.46487120033442975,-0.2984971306950221,-0.42458349419007035,-0.1409394200853642,0.018861479133239174,0.0487092759871362,5.0
0.47383105694492,-0.3119070533874625,-0.39895157078071775,-0.16077348644097397,0.033861345046088454,0.05622746946009332,5.0
0.47383105694492,-0.3253169760799027,-0.41603953218352574,-0.15930429551095812,0.03886130009627451,0.062492631642741506,5.0
0.47383105694492,-0.3219644880713179,-0.45875941699568623,-0.1754653823016075,0.042861264136423355,0.021142564437129613,5.0
0.46487120033442975,-0.3219644880713179,-0.4416714555928782,-0.18207673700683716,0.045861237547680546,0.029913790871967525,5.0
0.47383105694492,-0.3353744107637583,-0.39040757138445453,-0.15710050911593437,0.05186118437019492,0.02740772638098182,5.0
0.4693511286396763,-0.3320219520970724,-0.39895157078071775,-0.17326160038642535,0.027861397461282966,0.049962309187812984,5.0
0.46487120033442975,-0.338726898772343,-0.4416714555928782,-0.1791383596266471,0.047861219853614134,0.06374566484341829,5.0
0.46039127202918606,-0.3353744107637583,-0.42458349419007035,-0.18281133247184508,0.04486124653764333,0.04495018020584157,5.0
0.4559113437239431,-0.34878433345619847,-0.4416714555928782,-0.16518105475117983,0.03686131731390898,0.05998656906212366,5.0
0.4693511286396763,-0.358841797481953,-0.41603953218352574,-0.1409394200853642,0.02286144317338802,0.061239598442064724,5.0
0.4559113437239431,-0.3521368214647835,-0.45021545498914156,-0.12037076050466733,0.032861353273760135,-0.0014120176533136076,5.0
0.4693511286396763,-0.34543187478951254,-0.5014793391975654,-0.12992049483000784,0.052861175380232134,0.0349259203315309,5.0
0.47383105694492,-0.34878433345619847,-0.45875941699568623,-0.10420967147409715,0.03986129110631172,0.014877402493277406,5.0
0.4693511286396763,-0.3420793867809278,-0.42458349419007035,-0.12698211520989697,0.04186127312638614,0.0349259203315309,5.0
0.44695148711345645,-0.3353744107637583,-0.38186360937790986,-0.12404373558978611,0.034861335293834554,0.028660758626474676,5.0
0.44695148711345645,-0.32866946408848746,-0.4843913777947575,-0.1497545589456968,0.017861487360910856,0.019889531952840777,5.0
0.46487120033442975,-0.3420793867809278,-0.42458349419007035,-0.12551292539984155,0.03886130009627451,0.03116682359505234,5.0
0.46039127202918606,-0.3353744107637583,-0.39895157078071775,-0.1277167106749049,0.063861076871787,0.011118305756798844,5.0
0.46487120033442975,-0.358841797481953,-0.4331274935863337,-0.10274048166404172,0.047861219853614134,0.011118305756798844,5.0
0.4514314154186994,-0.34878433345619847,-0.5014793391975654,-0.10641345618918031,0.040861282116348936,0.042444113804488016,5.0
0.4559113437239431,-0.3320219520970724,-0.4843913777947575,-0.1189015706946119,0.04686122874829053,0.036178952577023755,5.0
0.46487120033442975,-0.34543187478951254,-0.42458349419007035,-0.10200588619903381,0.05486115778145211,0.036178952577023755,5.0
0.4559113437239431,-0.3353744107637583,-0.38186360937790986,-0.09245615187369328,0.05486115778145211,0.0349259203315309,5.0
0.46487120033442975,-0.32866946408848746,-0.38186360937790986,-0.08437560735840823,0.0378613090862373,0.016130434738770256,5.0
0.46039127202918606,-0.32866946408848746,-0.3305996877797675,-0.09980210204393085,0.015861503816254202,0.028660758626474676,5.0
0.46487120033442975,-0.32866946408848746,-0.37331960998164654,-0.09392534168374872,0.029861379481357392,0.026154693896692983,5.0
0.4693511286396763,-0.3320219520970724,-0.4843913777947575,-0.09098696206363785,0.06286108662404091,0.012371338002291697,5.0
0.46487120033442975,-0.32866946408848746,-0.47584737839849417,-0.1277167106749049,0.05686113980152653,0.0349259203315309,5.0
0.4693511286396763,-0.3420793867809278,-0.47584737839849417,-0.11375940607942778,0.055861148791489325,0.008612240310629215,5.0
0.46487120033442975,-0.3353744107637583,-0.4843913777947575,-0.11008643120430156,0.06086110460396649,0.011118305756798844,5.0
0.47383105694492,-0.3420793867809278,-0.4416714555928782,-0.09392534168374872,0.05686113980152653,-0.018954472910949254,5.0
0.46487120033442975,-0.338726898772343,-0.42458349419007035,-0.10494426637912488,0.050861193169584935,0.01863649970734792,5.0
0.46487120033442975,-0.3353744107637583,-0.45021545498914156,-0.09906750657892294,0.058861121821600956,0.008612240310629215,5.0
0.46039127202918606,-0.3353744107637583,-0.4331274935863337,-0.08290641642839237,0.06486106864411534,0.014877402493277406,5.0
0.46487120033442975,-0.32866946408848746,-0.4331274935863337,-0.09612912695881207,0.06586106041644366,-0.00767717983596179,5.0
0.4693511286396763,-0.32866946408848746,-0.45875941699568623,-0.088048582443527,0.04686122874829053,0.014877402493277406,5.0
0.4514314154186994,-0.32866946408848746,-0.38186360937790986,-0.0887831779085349,0.07886094278463629,0.019889531952840777,5.0
0.4514314154186994,-0.32866946408848746,-0.39040757138445453,-0.09465993714875663,0.04386125552760612,0.022395596802020454,5.0
0.44247155880821276,-0.32866946408848746,-0.42458349419007035,-0.09319074621874081,0.0708610147043386,0.021142564437129613,5.0
0.46487120033442975,-0.32866946408848746,-0.38186360937790986,-0.09539453149380415,0.06186109485171259,0.03993804931350231,5.0
0.4559113437239431,-0.32866946408848746,-0.39895157078071775,-0.08657939151351114,0.05486115778145211,0.028660758626474676,5.0
0.46039127202918606,-0.34878433345619847,-0.37331960998164654,-0.08584479604850324,0.063861076871787,0.02740772638098182,5.0
0.46487120033442975,-0.3353744107637583,-0.38186360937790986,-0.10641345618918031,0.06486106864411534,0.001094046837672104,5.0
0.47383105694492,-0.3253169760799027,-0.45021545498914156,-0.0887831779085349,0.06786104243651808,0.009865273511305995,5.0
0.46039127202918606,-0.3320219520970724,-0.42458349419007035,-0.09245615187369328,0.055861148791489325,-0.00767717983596179,5.0
0.46487120033442975,-0.3253169760799027,-0.45875941699568623,-0.08364101189340027,0.06886103268426418,0.003600111328657805,5.0
0.47831098525016297,-0.3320219520970724,-0.39895157078071775,-0.12183995031472276,0.06186109485171259,0.01738346746185507,5.0
0.4559113437239431,-0.34543187478951254,-0.42458349419007035,-0.11008643120430156,0.057861130811563743,0.03116682359505234,5.0
0.4559113437239431,-0.34543187478951254,-0.42458349419007035,-0.09612912695881207,0.0378613090862373,-0.00015898636300467947,5.0
0.4693511286396763,-0.3420793867809278,-0.42458349419007035,-0.06968370701793308,0.0778609540614724,-0.04276208462012951,5.0
0.47383105694492,-0.3353744107637583,-0.4331274935863337,-0.08364101189340027,0.0778609540614724,-0.018954472910949254,5.0
0.47383105694492,-0.3353744107637583,-0.4331274935863337,-0.09392534168374872,0.07686096228914409,-0.050280283824190176,5.0
0.46487120033442975,-0.3253169760799027,-0.45875941699568623,-0.07262208887796473,0.05186118437019492,-0.00767717983596179,5.0
0.4559113437239431,-0.318612029404632,-0.41603953218352574,-0.08290641642839237,0.07386098849674134,0.01738346746185507,5.0
0.4559113437239431,-0.318612029404632,-0.41603953218352574,-0.09025236659862994,0.05486115778145211,0.05998656906212366,5.0
0.4559113437239431,-0.3219644880713179,-0.4416714555928782,-0.09245615187369328,0.033861345046088454,0.02740772638098182,5.0
0.46487120033442975,-0.3353744107637583,-0.4416714555928782,-0.088048582443527,0.04186127312638614,0.006106175819643514,5.0
0.46039127202918606,-0.3253169760799027,-0.45021545498914156,-0.06894911155292514,0.06186109485171259,0.03993804931350231,5.0
0.46039127202918606,-0.3253169760799027,-0.45021545498914156,-0.07556046625815481,0.06786104243651808,0.02740772638098182,5.0
0.4693511286396763,-0.3219644880713179,-0.3391436871760307,-0.09172155752864578,0.06886103268426418,-0.0064241485456528686,5.0
0.46487120033442975,-0.32866946408848746,-0.38186360937790986,-0.10053669638897837,0.06786104243651808,0.001094046837672104,5.0
0.46487120033442975,-0.32866946408848746,-0.38186360937790986,-0.10274048166404172,0.06086110460396649,0.0349259203315309,5.0
0.47383105694492,-0.3085545653788775,-0.4416714555928782,-0.09686372130385959,0.06486106864411534,0.0349259203315309,5.0
0.46487120033442975,-0.318612029404632,-0.4331274935863337,-0.10567886128415259,0.06886103268426418,0.028660758626474676,5.0
0.4514314154186994,-0.318612029404632,-0.38186360937790986,-0.09612912695881207,0.07486097874448745,0.01738346746185507,5.0
0.46487120033442975,-0.32866946408848746,-0.38186360937790986,-0.10127129185398628,0.07486097874448745,0.006106175819643514,5.0
0.46039127202918606,-0.318612029404632,-0.4416714555928782,-0.08511020282341612,0.05186118437019492,0.013624370247784554,5.0
0.46039127202918606,-0.318612029404632,-0.45021545498914156,-0.09980210204393085,0.07386098849674134,0.013624370247784554,5.0
0.46487120033442975,-0.3152595413960473,-0.45021545498914156,-0.10200588619903381,0.0708610147043386,0.01863649970734792,5.0
0.47383105694492,-0.318612029404632,-0.42458349419007035,-0.12183995031472276,0.063861076871787,0.00735920902032029,5.0
0.4693511286396763,-0.32866946408848746,-0.4843913777947575,-0.11669778597952875,0.07286099824899524,0.004853144529334585,5.0
0.47383105694492,-0.3320219520970724,-0.4843913777947575,-0.10274048166404172,0.06786104243651808,-0.008930211126270718,5.0
0.48279091355540665,-0.3219644880713179,-0.38186360937790986,-0.10494426637912488,0.08386089859711347,-0.008930211126270718,5.0
0.46487120033442975,-0.3253169760799027,-0.42458349419007035,-0.11449400098445549,0.07286099824899524,0.006106175819643514,5.0
0.46039127202918606,-0.32866946408848746,-0.42458349419007035,-0.10788264627922584,0.06586106041644366,-0.0064241485456528686,5.0
0.46487120033442975,-0.3353744107637583,-0.39895157078071775,-0.11669778597952875,0.07986093455696461,0.001094046837672104,5.0
0.46487120033442975,-0.3353744107637583,-0.41603953218352574,-0.09833291111391503,0.08686087391409843,0.008612240310629215,5.0
0.4514314154186994,-0.3320219520970724,-0.4843913777947575,-0.10641345618918031,0.05686113980152653,0.011118305756798844,5.0
0.46487120033442975,-0.3420793867809278,-0.4843913777947575,-0.09098696206363785,0.05386116639026935,-0.002665050853990384,5.0
0.4514314154186994,-0.338726898772343,-0.42458349419007035,-0.08070263227328942,0.05386116639026935,0.032419855840545186,5.0
0.46487120033442975,-0.3219644880713179,-0.45875941699568623,-0.08657939151351114,0.05686113980152653,0.00735920902032029,5.0
0.47383105694492,-0.3353744107637583,-0.39895157078071775,-0.07188749341295682,0.04986120206426133,0.04620321149615049,5.0
0.46487120033442975,-0.3353744107637583,-0.38186360937790986,-0.08070263227328942,0.05986111283163817,0.03993804931350231,5.0
0.46039127202918606,-0.32866946408848746,-0.3647756479751019,-0.10053669638897837,0.047861219853614134,0.04620321149615049,5.0
0.47383105694492,-0.3253169760799027,-0.45875941699568623,-0.09025236659862994,0.06286108662404091,0.008612240310629215,5.0
0.48279091355540665,-0.32866946408848746,-0.4843913777947575,-0.08584479604850324,0.08386089859711347,0.03993804931350231,5.0
0.47383105694492,-0.3353744107637583,-0.42458349419007035,-0.09686372130385959,0.0708610147043386,0.016130434738770256,5.0
0.4559113437239431,-0.32866946408848746,-0.45875941699568623,-0.08657939151351114,0.08186091810162127,0.011118305756798844,5.0
0.4514314154186994,-0.3219644880713179,-0.45875941699568623,-0.07923344134327356,0.057861130811563743,0.004853144529334585,5.0
0.4559113437239431,-0.3320219520970724,-0.4331274935863337,-0.08511020282341612,0.058861121821600956,0.012371338002291697,5.0
0.47383105694492,-0.3253169760799027,-0.45875941699568623,-0.08070263227328942,0.06486106864411534,0.008612240310629215,5.0
0.47383105694492,-0.3420793867809278,-0.45875941699568623,-0.08437560735840823,0.06286108662404091,-0.010183244326947498,5.0
0.44695148711345645,-0.318612029404632,-0.39895157078071775,-0.07482587303306769,0.05186118437019492,-0.00015898636300467947,5.0
0.46487120033442975,-0.32866946408848746,-0.42458349419007035,-0.053522620227283685,0.045861237547680546,0.026154693896692983,5.0
0.4693511286396763,-0.3320219520970724,-0.41603953218352574,-0.06160316138268758,0.04686122874829053,0.014877402493277406,5.0
0.4514314154186994,-0.318612029404632,-0.3220557257732227,-0.0799680368082815,0.05686113980152653,0.00735920902032029,5.0
0.46487120033442975,-0.3152595413960473,-0.38186360937790986,-0.08657939151351114,0.052861175380232134,0.024901661531802143,5.0
0.4559113437239431,-0.318612029404632,-0.39040757138445453,-0.09319074621874081,0.06086110460396649,0.01738346746185507,5.0
0.46039127202918606,-0.3253169760799027,-0.3647756479751019,-0.09906750657892294,0.05986111283163817,-0.005171115344976089,5.0
0.4559113437239431,-0.3219644880713179,-0.3647756479751019,-0.08217182320330525,0.08286090987394959,0.03116682359505234,5.0
0.4559113437239431,-0.3219644880713179,-0.4074955327872624,-0.09980210204393085,0.018861479133239174,0.021142564437129613,5.0
0.46039127202918606,-0.318612029404632,-0.42458349419007035,-0.10347507656906944,0.04486124653764333,0.001094046837672104,5.0
0.4559113437239431,-0.318612029404632,-0.3647756479751019,-0.10200588619903381,0.06586106041644366,0.01738346746185507,5.0
0.4514314154186994,-0.3119070533874625,-0.4074955327872624,-0.12110535596967524,0.0698610244565925,-0.020207502290890324,5.0
0.4514314154186994,-0.3119070533874625,-0.39895157078071775,-0.11596319107450102,0.07486097874448745,0.019889531952840777,5.0
0.46039127202918606,-0.3253169760799027,-0.3476876491825752,-0.09980210204393085,0.06686105066418975,-0.010183244326947498,5.0
0.4559113437239431,-0.3320219520970724,-0.4416714555928782,-0.09906750657892294,0.04386125552760612,0.04495018020584157,5.0
0.4514314154186994,-0.3320219520970724,-0.4331274935863337,-0.10494426637912488,0.06286108662404091,0.026154693896692983,5.0
0.46039127202918606,-0.3320219520970724,-0.39895157078071775,-0.07923344134327356,0.03886130009627451,-0.0014120176533136076,5.0
0.4693511286396763,-0.318612029404632,-0.4416714555928782,-0.0887831779085349,0.042861264136423355,0.011118305756798844,5.0
0.4514314154186994,-0.3219644880713179,-0.5014793391975654,-0.10494426637912488,0.052861175380232134,0.009865273511305995,5.0
0.46039127202918606,-0.32866946408848746,-0.45021545498914156,-0.10641345618918031,0.029861379481357392,0.022395596802020454,5.0
0.47383105694492,-0.3353744107637583,-0.39040757138445453,-0.10788264627922584,0.05386116639026935,0.011118305756798844,5.0
0.4559113437239431,-0.338726898772343,-0.39040757138445453,-0.09980210204393085,0.040861282116348936,0.01738346746185507,5.0
0.46039127202918606,-0.32866946408848746,-0.45021545498914156,-0.09098696206363785,0.045861237547680546,-0.025219631272861733,5.0
0.46039127202918606,-0.3320219520970724,-0.4074955327872624,-0.08070263227328942,0.03186136150143181,-0.012689310728301059,5.0
0.46039127202918606,-0.3052021067121916,-0.38186360937790986,-0.0799680368082815,0.07186100647666692,-0.00015898636300467947,5.0
0.4693511286396763,-0.30184961870360694,-0.4074955327872624,-0.09686372130385959,0.04686122874829053,0.019889531952840777,5.0
0.47383105694492,-0.32866946408848746,-0.3647756479751019,-0.10935183622927633,0.07186100647666692,0.04620321149615049,5.0
0.4514314154186994,-0.3219644880713179,-0.4331274935863337,-0.11375940607942778,0.058861121821600956,0.02740772638098182,5.0
0.4559113437239431,-0.318612029404632,-0.39895157078071775,-0.09025236659862994,0.032861353273760135,0.00735920902032029,5.0
0.4514314154186994,-0.318612029404632,-0.38186360937790986,-0.08657939151351114,0.063861076871787,0.019889531952840777,5.0
0.4559113437239431,-0.3320219520970724,-0.42458349419007035,-0.08143722773829735,0.03686131731390898,0.038685018023193386,5.0
0.4693511286396763,-0.3320219520970724,-0.45875941699568623,-0.09098696206363785,0.04486124653764333,-0.008930211126270718,5.0
0.48279091355540665,-0.3119070533874625,-0.45021545498914156,-0.09319074621874081,0.057861130811563743,-0.0014120176533136076,5.0
0.46487120033442975,-0.3119070533874625,-0.4074955327872624,-0.10053669638897837,0.04186127312638614,-0.0064241485456528686,5.0
0.4693511286396763,-0.3119070533874625,-0.45875941699568623,-0.11302481117440005,0.057861130811563743,0.026154693896692983,5.0
0.44695148711345645,-0.3152595413960473,-0.42458349419007035,-0.10053669638897837,0.06586106041644366,0.012371338002291697,5.0
0.46487120033442975,-0.3253169760799027,-0.4074955327872624,-0.11596319107450102,0.03886130009627451,0.036178952577023755,5.0
0.46487120033442975,-0.318612029404632,-0.45875941699568623,-0.11008643120430156,0.04686122874829053,0.02740772638098182,5.0
0.46039127202918606,-0.3353744107637583,-0.41603953218352574,-0.10714805137419812,0.03086137125368571,0.05121534047812191,5.0
0.4559113437239431,-0.3420793867809278,-0.45021545498914156,-0.08731398697851907,0.04486124653764333,0.009865273511305995,5.0
0.4693511286396763,-0.3353744107637583,-0.4416714555928782,-0.07776425265317856,0.03886130009627451,0.013624370247784554,5.0
0.46039127202918606,-0.32866946408848746,-0.4843913777947575,-0.08070263227328942,0.04186127312638614,0.028660758626474676,5.0
0.46487120033442975,-0.318612029404632,-0.45875941699568623,-0.07409127756805978,0.05386116639026935,0.01863649970734792,5.0
0.46487120033442975,-0.30184961870360694,-0.45875941699568623,-0.07629506172316271,0.04486124653764333,0.032419855840545186,5.0
0.46487120033442975,-0.3152595413960473,-0.39040757138445453,-0.09612912695881207,0.006861583963628202,0.06374566484341829,5.0
0.4559113437239431,-0.3119070533874625,-0.39895157078071775,-0.0887831779085349,0.03686131731390898,0.00735920902032029,5.0
0.46487120033442975,-0.32866946408848746,-0.39895157078071775,-0.09172155752864578,0.042861264136423355,0.01863649970734792,5.0
0.46487120033442975,-0.32866946408848746,-0.39895157078071775,-0.08731398697851907,0.03886130009627451,-0.013942340108242128,5.0
0.4514314154186994,-0.32866946408848746,-0.38186360937790986,-0.10714805137419812,0.052861175380232134,0.01863649970734792,5.0
0.44695148711345645,-0.318612029404632,-0.3647756479751019,-0.10788264627922584,0.07486097874448745,0.042444113804488016,5.0
0.44695148711345645,-0.318612029404632,-0.3647756479751019,-0.11229021612937728,0.07386098849674134,0.021142564437129613,5.0
0.4693511286396763,-0.3420793867809278,-0.41603953218352574,-0.13432806538013453,0.05386116639026935,0.008612240310629215,5.0
0.46487120033442975,-0.338726898772343,-0.45021545498914156,-0.09612912695881207,0.05986111283163817,0.014877402493277406,5.0
0.46487120033442975,-0.338726898772343,-0.45021545498914156,-0.08217182320330525,0.05686113980152653,0.008612240310629215,5.0
0.4514314154186994,-0.3353744107637583,-0.39895157078071775,-0.07041830248294098,0.02286144317338802,-0.002665050853990384,5.0
0.4514314154186994,-0.318612029404632,-0.4331274935863337,-0.07482587303306769,0.063861076871787,0.0487092759871362,5.0
0.4514314154186994,-0.318612029404632,-0.4331274935863337,-0.10494426637912488,0.05186118437019492,0.0487092759871362,5.0
0.4559113437239431,-0.318612029404632,-0.4331274935863337,-0.10567886128415259,0.029861379481357392,0.04369714700516479,5.0
0.46487120033442975,-0.32866946408848746,-0.4074955327872624,-0.10053669638897837,0.0698610244565925,0.012371338002291697,5.0
0.46039127202918606,-0.3320219520970724,-0.39895157078071775,-0.10347507656906944,0.07386098849674134,-0.0064241485456528686,5.0
0.4514314154186994,-0.318612029404632,-0.37331960998164654,-0.09465993714875663,0.058861121821600956,-0.016448406509595687,5.0
0.46487120033442975,-0.32866946408848746,-0.41603953218352574,-0.09906750657892294,0.06286108662404091,0.016130434738770256,5.0
0.46487120033442975,-0.318612029404632,-0.42458349419007035,-0.10861724118425356,0.05386116639026935,0.021142564437129613,5.0
0.46487120033442975,-0.3219644880713179,-0.4331274935863337,-0.1196361661596198,0.050861193169584935,0.05246837367879869,5.0
0.47383105694492,-0.32866946408848746,-0.42458349419007035,-0.11008643120430156,0.04986120206426133,-0.002665050853990384,5.0
0.47383105694492,-0.3420793867809278,-0.4416714555928782,-0.10127129185398628,0.063861076871787,0.037431984822516605,5.0
0.4514314154186994,-0.34878433345619847,-0.39040757138445453,-0.07335668210305185,0.032861353273760135,0.001094046837672104,5.0
0.4514314154186994,-0.34543187478951254,-0.35623164857883866,-0.06601073417273508,0.052861175380232134,0.00735920902032029,5.0
0.4559113437239431,-0.2951446426864373,-0.42458349419007035,-0.07188749341295682,0.03586132706616288,0.016130434738770256,5.0
0.46487120033442975,-0.3119070533874625,-0.4331274935863337,-0.08437560735840823,0.058861121821600956,0.02740772638098182,5.0
0.4693511286396763,-0.318612029404632,-0.4843913777947575,-0.09025236659862994,0.055861148791489325,-0.011436277527624278,5.0
0.4693511286396763,-0.318612029404632,-0.42458349419007035,-0.10861724118425356,0.03986129110631172,0.021142564437129613,5.0
0.4514314154186994,-0.3152595413960473,-0.39895157078071775,-0.10494426637912488,0.05486115778145211,-0.03023176407556887,5.0
0.4514314154186994,-0.3085545653788775,-0.42458349419007035,-0.11302481117440005,0.04986120206426133,0.008612240310629215,5.0
0.46487120033442975,-0.3085545653788775,-0.39895157078071775,-0.10861724118425356,0.08186091810162127,-0.026472664473538493,5.0
0.46487120033442975,-0.3152595413960473,-0.3647756479751019,-0.10200588619903381,0.04986120206426133,0.05497443816978439,5.0
0.46487120033442975,-0.3219644880713179,-0.41603953218352574,-0.12110535596967524,0.055861148791489325,0.013624370247784554,5.0
0.4693511286396763,-0.3353744107637583,-0.4673034163919495,-0.10494426637912488,0.058861121821600956,-0.0014120176533136076,5.0
0.47831098525016297,-0.3353744107637583,-0.42458349419007035,-0.08143722773829735,0.047861219853614134,0.026154693896692983,5.0
0.46039127202918606,-0.3353744107637583,-0.4416714555928782,-0.08364101189340027,0.06186109485171259,-0.00015898636300467947,5.0
0.4559113437239431,-0.3219644880713179,-0.47584737839849417,-0.07262208887796473,0.05686113980152653,0.009865273511305995,5.0
0.46039127202918606,-0.32866946408848746,-0.45021545498914156,-0.07262208887796473,0.04186127312638614,0.00735920902032029,5.0
0.4559113437239431,-0.32866946408848746,-0.41603953218352574,-0.07556046625815481,0.034861335293834554,-0.012689310728301059,5.0
0.4693511286396763,-0.3219644880713179,-0.45875941699568623,-0.09172155752864578,0.06886103268426418,-0.02146053549156708,5.0
0.46487120033442975,-0.3119070533874625,-0.4416714555928782,-0.08584479604850324,0.07186100647666692,-0.00015898636300467947,5.0
0.4514314154186994,-0.3253169760799027,-0.45875941699568623,-0.08290641642839237,0.04986120206426133,0.004853144529334585,5.0
0.4514314154186994,-0.318612029404632,-0.38186360937790986,-0.10127129185398628,0.03886130009627451,0.021142564437129613,5.0
