acc_x,acc_y,acc_z,gyro_x,gyro_y,gyro_z,activity
-0.7023865027411599,-0.3689707829279523,3.470422921901819,0.0390100673197783,-0.013705628090915642,-0.17396155155128956,0.0
-0.7095925446088122,-0.3501963965998935,3.437067600764657,-0.005418912672949547,-0.006791785554048813,-0.206550626952366,0.0
-0.7095925446088122,-0.35958358291729947,3.4315083805751296,-0.12210601178036733,-0.1287268775334919,-0.09758089754037777,0.0
-0.7095925446088122,-0.35958358291729947,3.4148307200065484,-0.10990024879863541,-0.11992743182068764,-0.09147044745533754,0.0
-0.767240753411501,-0.34706732536526025,3.3925938392484407,-0.040083278111908115,-0.07907290077006472,-0.09656248815776333,0.0
-0.7708436482067985,-0.287615101993074,3.331442611786952,-0.020065827060061093,0.021492129845636285,-0.1454461136806709,0.0
-0.7564316906100228,-0.32829293903720147,3.3536792979217513,-0.041547970741586046,0.09754443033188735,-0.15766701385075138,0.0
-0.6843713980720294,-0.3501963965998935,3.3925938392484407,-0.1348000056386586,-0.06901639138400273,-0.11489384462353043,0.0
-0.6771653562043771,-0.3501963965998935,3.4481860411437104,-0.13577646739177723,-0.07907290077006472,-0.09248885683795201,0.0
-0.7384165859408922,-0.33768013904785427,3.4481860411437104,-0.07914172330078607,-0.04701779243409367,-0.09859930692299222,0.0
-0.7636377324776747,-0.3157766814851622,3.3203241714078984,-0.03666566495340988,0.02714891254227077,-0.10063612568822111,0.0
-0.7636377324776747,-0.3157766814851622,3.3203241714078984,-0.08158287614835201,-0.012448564417657909,-0.09248885683795201,0.0
-0.7276075231394139,-0.3189057527197955,3.3981530594379676,-0.13870585265113308,-0.0055347218807910645,-0.13220679170668312,0.0
-0.6843713980720294,-0.33768013904785427,3.4593044815227647,-0.12942946897392313,0.0020076563257300467,-0.17294314216867512,0.0
-0.6843713980720294,-0.33768013904785427,3.4593044815227647,-0.07425941788478703,0.012692689882370121,-0.12507793844967488,0.0
-0.7023865027411599,-0.32829293903720147,3.3981530594379676,-0.051800813194497676,0.05040457540500166,-0.13831724800236977,0.0
-0.7023865027411599,-0.32829293903720147,3.3981530594379676,-0.05619488810611454,0.05040457540500166,-0.08230476922245401,0.0
-0.7131954394041093,-0.3314220102718347,3.3925938392484407,-0.08890633450496128,-0.03381863153093809,-0.03953160620587954,0.0
-0.7023865027411599,-0.34393826782387393,3.3647977383008056,-0.13968231440425172,-0.05078898345386692,0.010370421809706572,0.0
-0.6951804608735076,-0.32829293903720147,3.342560857542697,-0.1728819901909493,-0.0947861890197358,0.029720186784715975,0.0
-0.6951804608735076,-0.32829293903720147,3.342560857542697,-0.19680528527785385,-0.025019193484184635,-0.011016160571952814,0.0
-0.7023865027411599,-0.3345510678132211,3.3536792979217513,-0.1821583708907423,0.007664439022364521,-0.009997752741999977,0.0
-0.6987834818073336,-0.3314220102718347,3.314764951218371,-0.12747654844510284,-0.034447163367566945,-0.10267294445345,0.0
-0.6807683771382034,-0.34393826782387393,3.3258833915974253,-0.11380609283369296,-0.20666477927916768,-0.10776499136652226,0.0
-0.6519442096675945,-0.3501963965998935,3.3536792979217513,-0.054730195476436615,-0.22866337056302596,-0.15664860446813694,0.0
-0.6843713980720294,-0.35958358291729947,3.3647977383008056,-0.03520097232373195,-0.14758281730025663,-0.1851640547600485,0.0
-0.7095925446088122,-0.32829293903720147,3.3925938392484407,-0.0762123399023158,-0.06335961252039363,-0.134243610471912,0.0
-0.6951804608735076,-0.3126476239437759,3.3536792979217513,-0.08500049009772662,-0.046389260597464795,-0.1362804292371409,0.0
-0.6591502515352465,-0.32516388149581515,3.331442611786952,-0.050824351441379076,-0.036961290714082454,-0.17090632340344622,0.0
-0.644738293938471,-0.3501963965998935,3.3925938392484407,0.06976859467851322,-0.06964492322063161,-0.184145645377434,0.0
-0.6519442096675945,-0.34393826782387393,3.4426268209541835,0.14690902553621327,0.005778843512477899,-0.2778392340502056,0.0
-0.6735623352705511,-0.32203481026118186,3.3481200777322244,0.0648862859129201,-0.08724380698018931,-0.15563019508552245,0.0
-0.6987834818073336,-0.30638949516775627,3.264731969512628,-0.05912427038805345,-0.157010787183639,-0.018145021592269092,0.0
-0.7420196068747182,-0.30013136639173665,3.2369360631883017,-0.19387590001849797,-0.16769582074027908,-0.03240274363290165,0.0
-0.6411352730046448,-0.30951855270914264,3.242495283377828,-0.2192638936899144,-0.11992743182068764,-0.2197899365050609,0.0
-0.6231201683355142,-0.32829293903720147,3.303646510839317,-0.1650703021208342,-0.15826785085689676,-0.21877153954373935,0.0
-0.6267231892693405,-0.32829293903720147,3.342560857542697,-0.14944692002577015,-0.36694028262876915,-0.08739681613552625,0.0
-0.644738293938471,-0.34080919658924064,3.3814753988693864,-0.11331786195713361,-0.4913895096207785,-0.03851319682326511,0.0
-0.6771653562043771,-0.303260423933123,3.264731969512628,-0.19338767509677257,-0.3575123280774881,-0.05073410320399198,0.0
-0.7095925446088122,-0.287615101993074,3.2313768429987744,-0.16653499475051212,-0.17838085429691916,-0.2106242644828238,0.0
-0.6807683771382034,-0.2844860376050642,3.2202584026197205,-0.1528645361616853,-0.22237806752883887,-0.21571629897460318,0.0
-0.5438538339298689,-0.2844860376050642,3.264731969512628,-0.2939631761196518,-0.41408014737778226,-0.16275906076382357,0.0
-0.4393664791259694,-0.29074416638108386,3.248054308944047,-0.42334425717569296,-0.23243457691490085,-0.418379629480656,0.0
-0.45738158379509963,-0.35958358291729947,3.264731969512628,-0.4921847571770508,-0.280202935170289,-0.3817169413917075,0.0
-0.5186328135316148,-0.397132369266664,3.248054308944047,-0.33546277085302373,-0.2500334376763062,-0.3705144257616558,0.0
-0.5366477920622166,-0.397132369266664,3.275850409891682,-0.08255933725016068,-0.06587373986690913,-0.4723553143379285,0.0
-0.4465725209936214,-0.4315520706881485,3.2925280704602633,0.05414521853828305,-0.16895288441353687,-0.5181836744491143,0.0
-0.3024519359176348,-0.45345551455759364,3.314764951218371,0.2133083771096083,-0.21420716131871412,-0.7697306553206603,0.0
-0.16914053978165508,-0.4847461721309385,3.303646510839317,0.2030555346566968,-1.0344406484976885,-0.818614256000982,0.0
-0.16914053978165508,-0.4847461721309385,3.303646510839317,0.16595001185752462,-1.940782989628768,-0.5925275469586756,0.0
-0.2772309155193808,-0.41903581313610916,3.309205731028844,-0.09037102639028498,-2.5938271155891717,-0.13118838232406865,0.0
-0.37451222845562826,-0.4096486268187031,2.9923307640957306,-0.11868839862186911,-3.230529306472516,0.09795356728737385,0.0
-0.24480372711494597,-0.4628427282614934,2.786640200953157,-0.29103377895062804,-4.369428473152583,0.3118193885808926,0.0
-0.021416933771842256,-0.5379402735737286,2.6698967715963984,-0.35352728351154866,-5.485700156407777,0.2232178343999003,0.0
-0.08987420537600968,-0.594263446251152,2.719929558678833,-0.14700577159780748,-6.556717854067724,0.2608989691353419,0.0
-0.20517062298138738,-0.46910084334426605,2.5531533422396397,0.29337819322666436,-5.2751420754636635,0.26904624419625744,0.0
-0.08627118444218339,-0.33768013904785427,2.408614006558555,-0.09622979318722553,-5.429760799949656,0.4340284648094544,0.0
0.17674871303447862,-0.33768013904785427,1.2245025389806596,-0.7870760398835258,-10.209113911247915,0.006296786899365262,0.0
0.23800006890952258,-0.28135697321705444,1.3857196325419796,-2.5310355161672704,-15.213480454136915,0.32098508544571547,0.0
0.5478591123873957,-0.3501963965998935,1.7748642673156358,-2.82104450201782,-12.65661481324704,0.21099693422981983,0.0
0.36050252838255253,-0.4628427282614934,1.1188775500029549,-1.7957602567266564,-9.183978692689593,-0.8929581285105432,0.0
0.2524121526448266,-0.3752289117039719,0.4851278350879498,-1.6165796858099042,-8.101648111914896,-0.5711409623450654,0.0
0.2956481515736823,-0.3126476239437759,0.17937136327169545,-1.0141032247934223,-6.283934990974488,-1.286063827246104,0.0
0.23079402704187,-0.3720998404693387,-0.27092450504542764,-0.7211648894125203,-6.158857423797118,-0.6841843168662185,0.0
0.06145229542910062,-0.5222949447870562,0.029272737458331866,-0.38721520803930726,-4.969047094023552,0.49513297808114937,0.0
0.44337175758349373,-0.44719739947482096,-0.0207601378127893,-0.28517500843191634,-3.6472457685024944,0.914717395292443,0.0
0.5586681751888731,-0.14367812987468795,-0.3431942458697111,-0.9584449644139998,-5.343652283303785,-0.432637385679844,0.0
0.12630667223797057,-0.4565845857922268,-0.3654310779719916,-0.8515224441313479,-5.964012661766878,-1.803415445818041,0.0
-0.14031637231104624,-0.5786181174644794,-0.37654946969521885,0.46035304582293857,-1.171460450893869,-1.7514765548834115,0.0
0.06505531636292662,-0.34706732536526025,-0.6656283356806975,0.667362794568073,-0.7120040386225485,-0.2910785436029005,0.0
0.3028541934413349,-0.19687222960582218,-0.8935558768930332,0.7015389201982214,-0.5152736734163709,0.6672440519513546,0.0
0.27403002597072545,-0.20000129399383196,-0.8212861117408362,1.1424110980347508,0.6110545805532911,1.3363385070560363,0.0
0.23079402704187,-0.3752289117039719,-1.054772873142699,1.4387670793257374,-1.15511863847362,0.7293669621843711,0.0
0.4145475901128866,-0.3908742404906444,-0.9324703209080679,1.6487062252398959,-1.813191080455462,-0.44282145466340245,0.0
0.5262409867844386,-0.20313035838184176,-0.9991808658707378,1.3035271801123134,-1.8100483676099621,-0.8379639970067777,0.0
0.461386862252626,-0.17183971257613093,-0.921351880529014,0.6624804977121477,-0.5410435017163071,-0.3338517128301215,0.0
0.40734154824523433,-0.27822790882904463,-0.921351880529014,0.8372670205140356,2.6355543307723144,0.9126805019994566,0.0
0.4397687366496683,-0.4816171008963051,-1.1214834181053692,1.1306936046359986,2.6965218805950615,1.005355768238664,0.0
0.6739645927942508,-0.562972788677807,-1.1881938657563844,0.9495600387550025,1.283583231779445,0.299598500832105,0.0
0.6487434462574677,-0.6255540764380032,-0.37654946969521885,0.3929771967674214,2.1578703189195894,0.6244708827241339,0.0
0.47219592505410285,-0.7006516491367321,-0.7378980035212398,-0.012742369866505331,1.4382019562654373,0.04906995108043593,0.0
0.5370500495859154,-0.48787524336557175,-0.8991150970825604,-0.26320463685124906,0.6537947147798515,-0.812503824547881,0.0
0.5370500495859154,-0.48787524336557175,-0.8991150970825604,-0.3715918199894093,0.9460618578252119,-0.2381213053921209,0.0
0.5622711961226986,-0.5129077584696501,-0.7712532273467475,-0.2026640557965656,1.93662735773985,0.7161276526316764,0.0
0.713597823066338,-0.6036506325685579,-0.5655625668925199,-0.12845301019822145,1.6789294427109251,0.6163236076632181,0.0
0.5730802589241782,-0.49100431460020494,-0.5822401788052737,-0.23000496106455143,1.115136791555516,0.821023732091914,0.0
0.20557288050508746,-0.531682131104462,-0.42658235408930745,0.017039695739110978,1.4426016561236872,1.831285193738213,0.0
0.08667344196588346,-0.4628427282614934,-0.4432599660020614,0.05951575222560158,1.1239361912720156,1.328191331365464,0.0
0.15873360836534806,-0.35958358291729947,-0.5155296824984309,0.09515658834992961,0.977488434324554,0.09795356728737385,0.0
0.43256269478201687,-0.4221648843707424,-0.4154639137102535,0.0390100673197783,0.4784344780153604,-2.0050603296776006,0.0
1.0522810340148192,-0.6130378188859638,-0.726779611798013,0.021433767673310882,-0.4844756517518099,-2.3166934765446916,0.0
1.0414719712133411,-0.35958358291729947,-0.7601348842793479,0.22746706657499455,0.17233967289441876,0.9259198115521516,0.0
0.6703615718604254,-0.5003915009176109,-0.7490164439002941,-0.06986534297317018,0.3037027347572442,0.6244708827241339,0.0
0.6703615718604254,-0.5003915009176109,-0.7490164439002941,-0.22219327894927024,0.727961425505754,0.021572917934446864,0.0
0.4397687366496683,-0.5222949447870562,-0.5099704623089041,-0.4409205687318283,1.1742187382023255,0.36681347039948686,0.0
0.37491461211785654,-0.5567146462085406,-0.2320100610303929,-0.3496214603184099,0.9165208845018071,-0.20349541122581558,0.0
0.3028541934413349,-0.6255540764380032,-0.1764179807746907,-0.18704067965633542,0.6116831353880723,-0.10674658198390777,0.0
0.21998496424039143,-0.5880053037818853,-0.1819771766363041,0.13470325957706428,0.36655588775592857,0.41875231164894483,0.0
0.25961819451247914,-0.5191658735524227,-0.15418114867240978,0.2543197469212549,0.1302280628384365,1.3913326385598022,0.0
0.2704272573139571,-0.4096486268187031,-0.24868767294314678,0.28996057113591517,-0.14255456260722563,2.7325767893383017,0.0
0.2704272573139571,-0.4096486268187031,-0.24868767294314678,0.06390982415980145,-0.5234445796264957,2.3802075652776624,0.0
0.77845194759815,-0.22816287519757603,-0.537766514600712,-0.19143475159053533,-0.437964341837578,-0.32163082508133384,0.0
0.6775676137280774,-0.7507166793448888,-0.6433915035784163,-0.4633791771438887,-0.4467637722182806,-2.6405473869476417,0.0
0.6775676137280774,-0.7507166793448888,-0.6433915035784163,-0.09427687042534252,-0.4323075629739688,-1.685280007119937,0.0
0.7964670522672811,-0.8226851534224909,-0.47105601829386934,-0.1655585329973935,-0.3248286725727868,-0.6342822695394036,0.0
0.7208038649339917,-0.7663619807450677,-0.5488849549797659,-0.1606762242318004,0.47654887483942293,0.06841972003414071,0.0
0.44337175758349373,-0.6411994052246756,-0.6600691154911704,-0.1006238680988424,0.9825166890175852,0.035830638422417814,0.0
0.45057779945114856,-0.5754890462298462,-0.5322072944111848,-0.17727606212514918,0.660080079142445,-0.02018184035749798,0.0
0.42895967384819145,-0.5441983886565013,-0.3376350256801838,-0.12845301019822145,0.292389177030026,-0.6251165975171663,0.0
0.4181506110467123,-0.6255540764380032,-0.2764837252349546,0.05951575222560158,0.27541882510709725,-1.6201019060029556,0.0
0.32447231904429114,-0.5254240160216893,-0.4432599660020614,0.1908497686975478,0.5123751818612181,-1.964324053743366,0.0
0.5154319239829606,-0.5661018599124401,-0.3654310779719916,0.5682519683103702,0.5287169942814672,-1.8838698491510466,0.0
0.6307283415883366,-0.5003915009176109,-0.3654310779719916,0.5438404363920725,0.507346927168187,-2.1069012182538733,0.0
0.3641055493163783,-0.34393826782387393,-0.3487534174034109,0.12542686696760347,0.4708920959758139,-3.555078490841111,0.0
0.16954267116682634,-0.32203481026118186,-0.2208916449792525,-0.35157436000531156,-0.05078898345386692,-2.5906453893059984,0.0
0.6019044263947874,-0.35958358291729947,-0.30427977752676255,-0.46044977997486497,-0.2726605837949457,-0.9642467107657973,0.0
0.5154319239829606,-0.38148704047999155,-0.22645084084086586,-0.45654393296239054,-0.8634801115914472,-0.5242941555873865,0.0
0.53344702865209,-0.35958358291729947,-0.26536530918381424,-0.12161778090380804,-0.9131341036869759,-0.3939378291404949,0.0
0.5010200925247148,-0.34393826782387393,-0.3487534174034109,0.16350886342956206,-1.015584739395127,-0.4743921082605716,0.0
0.4541808203849746,-0.38774516925601116,-0.3320758054906568,0.03461599538557841,-0.6642356497029572,-0.25441583067136625,0.0
0.8144821569364128,-0.32516388149581515,-0.2598060889942872,-0.031295131266091354,-0.8879928302218211,-0.5385518621014033,0.0
0.8108791360025869,-0.21564661764553686,-0.7990493282943826,-0.5146433894084468,0.773844211249408,0.707980377570761,0.0
0.5910953635933072,-0.11864561477060953,-0.8490822126884715,0.08392728414389929,1.226386888308573,0.8271342132301865,0.0
0.5514621333212212,-0.32516388149581515,-0.6211546228203083,-0.0947651005575476,1.594706283927367,0.4981881689651141,0.0
0.36050252838255253,-0.3783579829386052,-0.05967460007375921,-0.03422451354803027,0.46586384128278285,0.07045653258872317,0.0
0.4253566529143655,-0.4284229994535151,-0.29316136147562205,0.012645617850077177,0.547572934048232,-0.184145645377434,0.0
0.4397687366496683,-0.38774516925601116,-0.3543126375929378,0.06390982415980145,0.650023569756383,-0.2523790119061374,0.0
0.4757989459879288,-0.36584171169331914,-0.3654310779719916,0.0844155090656247,0.7411605864089097,-0.19840336431274339,0.0
0.5082261343923663,-0.2844860376050642,-0.29316136147562205,0.008251545915877262,0.5086039755093432,0.09082470781971917,0.0
0.5010200925247148,-0.29387323761571704,-0.2375692568920063,-0.020065827060061093,0.33512931125658635,0.2272914719303581,0.0
0.49381405065705997,-0.29074416638108386,-0.2208916449792525,-0.011765908113386696,0.16731141820138778,0.13868991774936584,0.0
0.4649898831864514,-0.3157766814851622,-0.24868767294314678,-0.02348344319597626,0.23644988190031005,0.013425647919681542,0.0
0.4541808203849746,-0.23129193958558586,-0.07079301612489969,-0.06840065108784647,0.05166163812000306,0.005278378293081622,0.0
0.49021102972323455,-0.2688407156650152,-0.19309559268744453,-0.050824351441379076,0.16165463933777866,0.04499631665530138,0.0
0.529844007718264,-0.271969780053025,-0.16529956472355023,0.11663872309920366,-0.22237806752883887,0.1173033331357554,0.0
0.5226379658506121,-0.30013136639173665,-0.2820429454244817,-0.48632601047767465,0.6305390444906341,0.11628492375314095,0.0
0.44337175758349373,-0.303260423933123,-0.6155954512866084,-0.40527972069783236,1.0101720591650525,0.2456228408174181,0.0
0.4830049878555831,-0.3720998404693387,-0.07635222415046988,-0.03813035758308781,0.5394020278381073,0.035830638422417814,0.0
0.4541808203849746,-0.303260423933123,0.05150956956061277,0.007763315039317962,-0.04701779243409367,0.014444056525965181,0.0
0.4649898831864514,-0.27822790882904463,-0.12638509638060189,0.035104220307303806,-0.160153454032834,-0.02018184035749798,0.0
0.4469747785173226,-0.3189057527197955,-0.19309559268744453,-0.015183518294467978,-0.03947541806059797,-0.043605237525690885,0.0
0.4830049878555831,-0.3501963965998935,-0.2876021412860951,-0.05619488810611454,0.29678889222037746,-0.2208083583089682,0.0
0.36050252838255253,-0.3783579829386052,-0.6433915035784163,-0.3588978291085351,1.3608925940224412,-0.44689509219386037,0.0
0.44337175758349373,-0.48787524336557175,1.1800288747760974,-0.1606762242318004,0.7927001816803758,-2.142545559066672,0.0
0.44337175758349373,-0.26258258688899555,-0.09858905625275076,-0.2192638936899144,0.675793336727913,-1.5315003269793779,0.0
0.16954267116682634,-0.27822790882904463,0.1293384880005743,-0.40625619436061877,-0.08598674330693155,-2.940977918814338,0.0
0.4109445691790603,-0.24067913617292697,-0.1764179807746907,-0.6098483210150042,0.5488299823893881,-3.3269547891354754,0.0
0.5730802589241782,-0.29074416638108386,0.0904240295408408,-0.13187062335671965,-0.12244155916720317,-2.1659689376029254,0.0
0.5226379658506121,-0.16245251877023056,0.0737464043237592,0.10003888520585501,-0.6981763228846117,-1.890998677565469,0.0
0.8757332605343972,-0.18122690638203126,-0.5044112907752042,0.17913222766012443,-0.7088613871054551,-1.3542972683025647,0.0
0.706391781198686,-0.03728993041241949,-0.42658235408930745,0.06586274766603872,0.21193714793783472,-0.27071038079319737,0.0
0.4866080087894085,-0.07170964552715077,-0.27092450504542764,-0.05619488810611454,0.768187463050002,-0.3705144257616558,0.0
0.5910953635933072,-0.07796777430317037,-0.31539819357790305,-0.09232394840781376,1.565165249275556,-0.27987605281543443,0.0
0.5370500495859154,-0.09048403185520958,-0.03187855994590813,-0.0005366039073564334,1.4375734627590622,-0.1098018101317511,0.0
-0.11509535191279223,-0.1530653247503732,-0.3265166096290436,-0.3935622034797444,1.115136791555516,-0.002868891721683698,0.0
0.28483908877220376,-0.17183971257613093,0.0904240295408408,-0.603501325574567,0.6242537414564469,-0.4499503327629967,0.0
0.396532485443756,-0.099871225019239,0.10154244635222856,-0.5844603392532556,0.5318596457985608,-0.3419989878910369,0.0
0.22719100610804402,-0.14367812987468795,0.284996321839508,-0.44043231999076715,0.5299740426226235,0.5063354440260298,0.0
0.3641055493163783,-0.11551654695928801,0.1404569070927039,-0.17190552843783066,0.30558833793318163,1.9422918040218946,0.0
-0.0034018291027116984,-0.0498061879644587,0.15713453116941456,0.011669162051792453,-0.08787233115076741,3.8161638755883556,0.0
-0.17274356071548108,-0.11864561477060953,0.21828582553266535,0.35538347286585953,-0.2437481346421189,5.8988096594288,0.0
-1.001436609556083,0.0159041573371237,0.45177258693452815,0.5506756805735706,-0.4266507841103598,8.002841531031137,0.0
1.6575872895123174,-0.594263446251152,-0.20977322892811198,0.15569716940461312,0.8957793108949019,0.973785015271152,0.0
1.243240638953487,-0.5535856023604011,-0.07635222415046988,-0.10550617388701856,0.7700730662259395,-1.0477562552975959,0.0
1.0450749921471665,-0.4096486268187031,0.023713526391772474,-0.11429432371025226,0.63933850553554,-1.3054136179370714,0.0
0.6235225519977422,-0.34080919658924064,0.22940424158380585,-0.02885397688329481,0.20879449642074113,-0.8450929247915432,0.0
0.5010200925247148,-0.287615101993074,0.27943711381393777,0.04877468485096453,0.543173203525779,-0.3083914906860532,0.0
0.5190349449167866,-0.26258258688899555,0.21272661750709518,-0.018601134430383158,0.37221266661953756,0.0561988136534138,0.0
0.5262409867844386,-0.2594535225009858,0.14601611511827414,-0.09330040941657813,0.1113721230716718,-0.05073410320399198,0.0
0.4397687366496683,-0.28135697321705444,0.17381215524612523,-0.13235885125586205,-0.11741331980627376,-0.2645999244975107,0.0
0.5082261343923663,-0.33768013904785427,0.13489769906713367,-0.25881056491704907,0.003893251835616669,-0.33690695339925747,0.0
0.53344702865209,-0.32829293903720147,0.10710165589829337,-0.4043032708543815,0.2817041434733859,-0.258489468201824,0.0
0.5946983845271331,-0.3314220102718347,0.27943711381393777,-0.39795627541394435,0.47654887483942293,0.0174992827329815,0.0
0.5910953635933072,-0.30638949516775627,0.31835156999292935,-0.11478255458681158,0.2873609223369951,0.251733272270519,0.0
0.4757989459879288,-0.2970022951571034,0.3517068181463507,0.27482543182707825,-0.585669239118805,-0.23099245213511269,0.0
0.4649898831864514,-0.3189057527197955,0.33502920623359683,0.18938507011303593,-0.7949702103933567,-0.1485013418285142,0.0
0.5262409867844386,-0.27822790882904463,0.1293384880005743,0.13030918764286448,-0.6158387059485848,0.18146308697658675,0.0
0.4217536319805386,-0.2844860376050642,0.10710165589829337,0.41201823072740407,1.0516551450504568,0.38616323624786847,0.0
0.3893266958531608,-0.2844860376050642,0.15713453116941456,-0.0371538958299692,-0.11427065295707858,0.288396010044639,0.0
0.4109445691790603,-0.30951855270914264,0.19604899343038448,-0.007371830224352883,-0.2538046440281808,0.3138562073461214,0.0
0.529844007718264,-0.2688407156650152,0.1126608639238636,-0.00932475373059014,-0.08598674330693155,0.057217223036028275,0.0
0.565874217056524,-0.28135697321705444,0.1126608639238636,-0.015671749171027278,0.017720940742375728,0.0012047434797816654,0.0
0.5406530705197438,-0.30951855270914264,0.11822007194943382,-0.03422451354803027,0.11262918674492955,0.005278378293081622,0.0
0.5082261343923663,-0.30951855270914264,0.0904240295408408,-0.06547126731719909,0.10257268119189296,0.05008836046305036,0.0
0.4830049878555831,-0.28135697321705444,0.17381215524612523,-0.027389284253616874,0.0365768843421658,0.06332767312106849,0.0
0.4649898831864514,-0.27822790882904463,0.1293384880005743,-0.043500894247823295,-0.04010394989722683,0.19775762467712493,5.0
0.49381405065705997,-0.29074416638108386,0.1126608639238636,-0.08304756780106501,-0.018105350947317776,0.20794170608197654,5.0
0.5046231134585408,-0.33768013904785427,0.1126608639238636,-0.06888888196440579,0.008921502695622276,0.057217223036028275,5.0
0.5010200925247148,-0.33768013904785427,0.0904240295408408,-0.06791242021128717,0.011435626209112372,-0.06091818460884353,5.0
0.4649898831864514,-0.3126476239437759,0.17937136327169545,-0.1006238680988424,-0.1563822630130609,-0.11489384462353043,5.0
0.5514621333212212,-0.2970022951571034,0.0904240295408408,-0.05912427038805345,-0.09918590421008715,-0.0334211530155161,5.0
0.5262409867844386,-0.29074416638108386,0.08486482113514694,-0.044965583900084274,0.10320121302852182,0.029720186784715975,5.0
0.5010200925247148,-0.28135697321705444,0.11822007194943382,-0.085976951106491,0.03217716340227637,0.1356346896015225,5.0
0.5010200925247148,-0.28135697321705444,0.11822007194943382,-0.07718880128325731,0.04349072975380169,0.0918431172023336,5.0
0.4866080087894085,-0.3314220102718347,0.13489769906713367,-0.08500049009772662,0.02714891254227077,0.03888586657026114,5.0
0.5010200925247148,-0.32203481026118186,0.11822007194943382,-0.06644772907031771,0.019606536252262365,-0.07517590975479933,5.0
0.5010200925247148,-0.32203481026118186,0.11822007194943382,-0.0527772749476163,-0.008048845394281183,0.007315195699731603,5.0
0.5190349449167866,-0.30638949516775627,0.12377927997500401,-0.028365746006735488,0.05983254648620443,-0.00592411676420381,5.0
0.49741707159088655,-0.30638949516775627,0.1404569070927039,-0.044965583900084274,0.10320121302852182,-0.043605237525690885,5.0
0.49741707159088655,-0.30638949516775627,0.1404569070927039,-0.041547970741586046,0.088116460448505,0.013425647919681542,5.0
0.49381405065705997,-0.287615101993074,0.12377927997500401,-0.031295131266091354,0.15285519362497443,0.028701778954763144,5.0
0.5118289030491352,-0.27822790882904463,0.0904240295408408,0.023386691179548127,0.3433002174667109,0.15498445544990408,5.0
0.5118289030491352,-0.27822790882904463,0.0904240295408408,-0.02348344319597626,0.2603340763601057,0.17229740253305675,5.0
0.49741707159088655,-0.2970022951571034,0.11822007194943382,-0.03227159004179304,0.16416875901824338,0.23951238452173138,5.0
0.5010200925247148,-0.3720998404693387,0.05706877910667759,-0.015183518294467978,0.24210666076391915,0.4044945802923427,5.0
0.5370500495859154,-0.30638949516775627,0.05706877910667759,-0.08304756780106501,0.39546833690875516,0.1936839871466672,5.0
0.5370500495859154,-0.30638949516775627,0.05706877910667759,-0.09232394840781376,0.38415474851733383,0.20386808097281164,5.0
0.46859290412027743,-0.34393826782387393,0.23496344960937604,-0.018601134430383158,0.3986109884258488,0.19572080591189603,5.0
0.46859290412027743,-0.34393826782387393,0.23496344960937604,-0.021530519689739028,0.26976204624348804,0.21099693422981983,5.0
0.47940196692175713,-0.34393826782387393,0.20716740948152496,-0.051800813194497676,0.09000205595839163,0.24867805654396855,5.0
0.5190349449167866,-0.29387323761571704,0.18493057737924407,-0.0635183452996703,0.15725491648137652,0.08675107649990782,5.0
0.49381405065705997,-0.38148704047999155,0.17937136327169545,-0.050336120564819745,0.09691589849525847,-0.019163430974883534,5.0
0.4866080087894085,-0.3627126541519327,0.17937136327169545,-0.026901053377057553,0.024006255275639085,-0.019163430974883534,5.0
0.49021102972323455,-0.3126476239437759,0.19604899343038448,-0.046918507406321516,0.02714891254227077,-0.0038872995516365315,5.0
0.49741707159088655,-0.30951855270914264,0.17381215524612523,-0.05814781012364331,0.022749193518894033,-0.012034569954567255,5.0
0.5046231134585408,-0.3189057527197955,0.14601611511827414,-0.06986534297317018,0.019606536252262365,-0.02629229044253821,5.0
0.49381405065705997,-0.3157766814851622,0.19604899343038448,-0.06840065108784647,0.06234667239533541,-0.02934751859038154,5.0
0.49381405065705997,-0.30951855270914264,0.19604899343038448,-0.06400657617622961,0.04789044973543476,0.008333604403056593,5.0
0.49741707159088655,-0.3157766814851622,0.23496344960937604,-0.0693771128409651,0.034691290748791875,-0.015089796549748978,5.0
0.49021102972323455,-0.32829293903720147,0.21828582553266535,-0.06791242021128717,0.021492129845636285,-0.017126612209654647,5.0
0.4866080087894085,-0.3345510678132211,0.2238450335582356,-0.06791242021128717,0.05291870101467752,0.06129085746116283,5.0
0.4866080087894085,-0.32829293903720147,0.20160820145595473,-0.0605889630177314,0.02777744437889964,0.008333604403056593,5.0
0.47940196692175713,-0.32829293903720147,0.19604899343038448,-0.030806900389532044,-0.011820032581029035,-0.13526201985452643,5.0
0.4541808203849746,-0.30013136639173665,0.16825294722055503,-0.008348291977471518,-0.042618077243742336,-0.14035406676759865,5.0
0.4830049878555831,-0.30638949516775627,0.23496344960937604,0.002392781351999424,-0.010562972740796664,-0.07924954107461069,5.0
0.4830049878555831,-0.29074416638108386,0.20716740948152496,-0.12796477932166214,-0.2776888384879766,-0.017126612209654647,5.0
0.49741707159088655,-0.2469372649489466,0.17937136327169545,-0.0879298734961969,0.017092408905746863,-0.002868891721683698,5.0
0.49381405065705997,-0.2844860376050642,0.2238450335582356,-0.06791242021128717,-0.004277658207533309,0.11934015190098429,5.0
0.5226379658506121,-0.27822790882904463,0.16825294722055503,-0.143099924585333,-0.1412975142660694,0.12850583634451423,5.0
0.49021102972323455,-0.3157766814851622,0.21272661750709518,-0.10111209748669323,0.11514331025841967,0.04906995108043593,5.0
0.5442560914535691,-0.33768013904785427,0.12377927997500401,-0.06644772907031771,0.11577184209504854,-0.012034569954567255,5.0
0.46859290412027743,-0.32203481026118186,0.23496344960937604,-0.050824351441379076,-0.10358561940043849,-0.022218656017403648,5.0
0.4253566529143655,-0.34706732536526025,0.3517068181463507,0.0019045504754401235,-0.10798533459078984,0.0327754133798977,5.0
0.5514621333212212,-0.3345510678132211,0.11822007194943382,-0.04984788968826044,0.1603975756645209,0.07758539826702428,5.0
0.5082261343923663,-0.32203481026118186,0.1126608639238636,-0.05814781012364331,0.15474078913486106,0.05008836046305036,5.0
0.5082261343923663,-0.3189057527197955,0.1515753231438443,-0.10745909441583885,0.13337072202158085,0.037867457187646704,5.0
0.4830049878555831,-0.30013136639173665,0.15713453116941456,-0.14895869510404472,0.09817296216851622,-0.012034569954567255,5.0
0.4830049878555831,-0.303260423933123,0.14601611511827414,-0.15335276703824463,0.22450778467041224,0.01953609994554878,5.0
0.49741707159088655,-0.30638949516775627,0.15713453116941456,-0.13528823651521787,0.14091309639507657,0.0276833695721487,5.0
0.5082261343923663,-0.3314220102718347,0.1404569070927039,-0.15921153160212248,0.15348372546160327,0.0225913257643997,5.0
0.5046231134585408,-0.34706732536526025,0.20716740948152496,-0.13919408352769239,0.15662638464474768,0.011388830513031563,5.0
0.47219592505410285,-0.33768013904785427,0.20160820145595473,-0.12747654844510284,0.07994555232186772,0.007315195699731603,5.0
0.46859290412027743,-0.32829293903720147,0.16825294722055503,-0.12747654844510284,0.10508680853840845,-0.009997752741999977,5.0
0.49021102972323455,-0.32829293903720147,0.1293384880005743,-0.07865349279640388,0.017720940742375728,0.006296786899365262,5.0
0.49021102972323455,-0.32829293903720147,0.1293384880005743,-0.03813035758308781,-0.05895988966399151,0.013425647919681542,5.0
0.49021102972323455,-0.32829293903720147,0.1293384880005743,-0.040083278111908115,-0.013077096254286782,0.012407239313397904,5.0
0.5082261343923663,-0.32516388149581515,0.1293384880005743,-0.07035357310537525,-0.012448564417657909,0.028701778954763144,5.0
0.5082261343923663,-0.303260423933123,0.11822007194943382,-0.1201530882741301,0.033434227075534124,0.09387993596756249,5.0
0.5226379658506121,-0.30951855270914264,0.11822007194943382,-0.1924112133436539,0.07051758052197268,0.05925403869593394,5.0
0.5442560914535691,-0.3752289117039719,0.20160820145595473,-0.00883652285403084,0.06674639237696847,-0.054807734523803324,5.0
0.5046231134585408,-0.3501963965998935,0.21272661750709518,-0.06595949819375839,0.09063058779502049,-0.015089796549748978,5.0
0.5082261343923663,-0.3189057527197955,0.11822007194943382,-0.14505284809157024,0.1685684818746455,0.06740131065152627,5.0
0.49741707159088655,-0.2844860376050642,0.1515753231438443,-0.1811819091376237,0.14468428741484982,0.14174514589720918,5.0
0.43616571571584284,-0.27822790882904463,0.29611473789064846,-0.07962995399125683,-0.019362414620575523,0.16109491174559074,5.0
0.43256269478201687,-0.32829293903720147,0.21828582553266535,0.03168661012622252,-0.18843736368298117,0.0022231520860653046,5.0
0.5514621333212212,-0.303260423933123,0.08486482113514694,0.09369188976541773,-0.08661526747750967,0.19062875899882387,5.0
0.5154319239829606,-0.32516388149581515,0.0737464043237592,0.12103279503340361,-0.2525475650228218,0.2150705717602776,5.0
0.45057779945114856,-0.32516388149581515,0.06818719591806534,-0.010301215483708763,-0.4618485362973735,0.13156105207106475,5.0
0.43616571571584284,-0.3627126541519327,0.19604899343038448,-0.0034659891667122907,-0.41785132306545403,0.007315195699731603,5.0
0.47219592505410285,-0.3501963965998935,0.1293384880005743,-0.04447735302352497,-0.19723680939578536,0.1376715083667514,5.0
0.5370500495859154,-0.3157766814851622,0.0737464043237592,-0.17190552843783066,0.05040457540500166,0.19572080591189603,5.0
0.5190349449167866,-0.32516388149581515,0.04039115350947233,-0.33643922069647464,0.21256568744051438,0.27311985688412943,5.0
0.5226379658506121,-0.3501963965998935,0.1293384880005743,-0.2802927115759911,0.30056008324015054,-0.00897934335938553,5.0
0.5622711961226986,-0.4033904980426837,0.21272661750709518,-0.05570665722955524,0.5098610545147025,-0.16886950463821734,5.0
0.5226379658506121,-0.35958358291729947,0.23496344960937604,0.07953320030003165,0.5067183723334058,-0.16581428891166688,5.0
0.5262409867844386,-0.20313035838184176,0.012595110340632012,-0.20998751299012136,0.23205015137785712,-0.23608448662689202,5.0
0.5190349449167866,-0.40651955558406994,0.2627594897372272,-0.3842858108702837,0.3973539094204895,0.20794170608197654,5.0
0.5586681751888731,-0.35645452537591316,0.2460818656605165,-0.10306502099293048,0.20439476589828823,-0.03953160620587954,5.0
0.47940196692175713,-0.3501963965998935,0.2238450335582356,-0.0527772749476163,0.04789044973543476,0.015462465520414224,5.0
0.49741707159088655,-0.34393826782387393,0.16825294722055503,-0.09378864029313745,0.09817296216851622,0.037867457187646704,5.0
0.49741707159088655,-0.3314220102718347,0.17381215524612523,-0.07425941788478703,0.08371674142512826,0.013425647919681542,5.0
0.49381405065705997,-0.32203481026118186,0.16825294722055503,-0.07865349279640388,0.10697240404829508,0.015462465520414224,5.0
0.49021102972323455,-0.32203481026118186,0.18493057737924407,-0.07084180398193456,0.06863198692859876,0.03481223059246498,5.0
0.4830049878555831,-0.32516388149581515,0.13489769906713367,-0.07474764876134633,0.07303170595197549,0.0561988136534138,5.0
0.5010200925247148,-0.3314220102718347,0.15713453116941456,-0.06791242021128717,0.06548932966196708,0.041941091612781256,5.0
0.5010200925247148,-0.3314220102718347,0.17937136327169545,-0.06986534297317018,0.08560233501850222,0.053143588610893716,5.0
0.49021102972323455,-0.32829293903720147,0.17937136327169545,-0.0762123399023158,0.057946952413702325,0.028701778954763144,5.0
0.49021102972323455,-0.32516388149581515,0.17937136327169545,-0.06888888196440579,0.07680289505523605,0.031757003997283255,5.0
0.47940196692175713,-0.3314220102718347,0.16269373919498475,-0.07670057077887511,0.05857548377120303,0.02360973514701414,5.0
0.49021102972323455,-0.33768013904785427,0.16825294722055503,-0.07572410977011072,0.05857548377120303,-0.002868891721683698,5.0
0.49021102972323455,-0.33768013904785427,0.15713453116941456,-0.060100732141172085,0.07491730146186212,0.005278378293081622,5.0
0.53344702865209,-0.30638949516775627,0.2460818656605165,0.007275084162758639,0.08183114591524167,0.06434608250368291,5.0
0.2992511725075086,-0.3314220102718347,0.45177258693452815,-0.06254188503526018,-0.016848287274060014,0.0999903860526027,5.0
0.5262409867844386,-0.2469372649489466,0.05150956956061277,0.11517403642435976,0.16165463933777866,0.28432237251418124,5.0
0.40734154824523433,-0.3314220102718347,0.20160820145595473,-0.06693595994687701,-0.07153051873051823,-0.14748293244589977,5.0
0.4649898831864514,-0.33768013904785427,0.19604899343038448,-0.15725861405071911,-0.12935541703617157,-0.019163430974883534,5.0
0.4757989459879288,-0.41903581313610916,0.19604899343038448,-0.25636941648908634,0.10194415318828946,0.02360973514701414,5.0
0.5370500495859154,-0.3720998404693387,0.24052265763494626,-0.08158287614835201,0.11325771858155845,-0.11998589153660266,5.0
0.4649898831864514,-0.30013136639173665,0.2238450335582356,0.06732744625055058,-0.16706729656970098,-0.11693066338875932,5.0
0.5082261343923663,-0.24380820056093677,0.16269373919498475,-0.14017053932597712,-0.015591223600802279,-0.018145021592269092,5.0
0.5082261343923663,-0.27822790882904463,0.15713453116941456,-0.15872330072556315,0.056061358101636136,0.08471425773467892,5.0
0.53344702865209,-0.3345510678132211,0.1126608639238636,-0.18801714140945405,0.16416875901824338,0.06943812941675515,5.0
0.4649898831864514,-0.34393826782387393,0.19604899343038448,-0.15774684492727845,0.12771394315797177,0.08267743896945005,5.0
0.4757989459879288,-0.3783579829386052,0.21272661750709518,-0.1304059307270417,-0.06398814435702252,0.08064062020422116,5.0
0.4757989459879288,-0.44719739947482096,0.21828582553266535,0.056098142044520294,0.024634787112267967,-0.006942526146818255,5.0
0.4649898831864514,-0.38148704047999155,0.19604899343038448,0.027780763113748032,-0.07341611424040483,-0.08535999737029733,5.0
0.49741707159088655,-0.3345510678132211,0.10154244635222856,-0.15579392142104118,0.12897099916517876,-0.17497996093390406,5.0
0.5082261343923663,-0.34393826782387393,0.12377927997500401,-0.22121681719615163,0.006407375349106766,-0.03647637805803621,5.0
0.4757989459879288,-0.35958358291729947,0.03483194548390212,-0.31544531086892585,-0.20855038245510513,0.09489834535017694,5.0
0.5586681751888731,-0.3720998404693387,0.20716740948152496,-0.1528645361616853,-0.28146001417564837,-0.29209696540680774,5.0
0.4830049878555831,-0.33768013904785427,0.3016739580801755,-0.030318669512972733,-0.3493413912031605,-0.545680740200997,5.0
0.36770857025020426,-0.24067913617292697,0.2738779057883676,0.09857419853101096,-0.4411069933546714,0.057217223036028275,5.0
0.4649898831864514,-0.271969780053025,0.11822007194943382,0.2733607332425664,-0.2676323291019146,0.30978256981566366,5.0
0.5874923426594817,-0.33768013904785427,0.0014766942894915975,0.30167811217333873,-0.3436846123395515,0.12952424572712873,5.0
0.5478591123873957,-0.36584171169331914,0.06818719591806534,0.1908497686975478,-0.4656197426492484,-0.328759678338342,5.0
0.5478591123873957,-0.36584171169331914,0.06818719591806534,0.2484609764025432,-0.2016365245861368,-0.004905708934250973,5.0
0.4577838413188,-0.34393826782387393,0.0737464043237592,0.21282015218788305,-0.36694028262876915,0.16516854927604852,5.0
0.5550651542550471,-0.30638949516775627,-0.05411539204818903,0.07611559011895036,-0.8735366209775092,0.13156105207106475,5.0
0.5550651542550471,-0.30638949516775627,-0.05411539204818903,0.2035437595784222,-1.3417924942937356,-0.17599837031651844,5.0
0.4541808203849746,-0.256324458112976,-0.009641721761648871,0.3173014764039011,-0.8842216238699462,0.04499631665530138,5.0
0.4109445691790603,-0.26258258688899555,-0.0207601378127893,0.33487778796003614,-0.58629773262518,0.3994025458005633,5.0
0.47940196692175713,-0.3126476239437759,-0.08191143217604012,0.2401610574558688,-0.6007540031978978,0.5317956661700979,5.0
0.5694772379903494,-0.3501963965998935,-0.24868767294314678,0.06928036975678781,-0.38579622239553374,0.09897197666998828,5.0
0.5190349449167866,-0.3189057527197955,-0.19309559268744453,-0.20510520422452824,0.033434227075534124,-0.26663674326273956,5.0
0.5190349449167866,-0.3189057527197955,-0.19309559268744453,-0.46826147399981394,0.3891830032103649,-0.1973849549301289,5.0
0.49381405065705997,-0.30013136639173665,-0.24312847708153332,-0.528313830132772,0.5903130682747921,0.13665309898413697,5.0
0.49021102972323455,-0.36584171169331914,-0.10414826427832101,-0.4287148027726793,0.4740347474929076,0.30163531959733386,5.0
0.49021102972323455,-0.36584171169331914,-0.10414826427832101,0.015086772232873734,0.8172129003107498,0.4381020526547406,5.0
0.49381405065705997,-0.45971365702686,-0.15974034453402322,0.10687411747768537,0.8593244797025289,-0.027310699825152638,5.0
0.47940196692175713,-0.46910084334426605,-0.004082513736078616,0.007275084162758639,0.8976649140708394,-0.6342822695394036,5.0
0.4830049878555831,-0.4284229994535151,0.007035902315061811,-0.12210601178036733,0.864981289230341,-0.4132875949888765,5.0
0.5010200925247148,-0.29074416638108386,0.05706877910667759,-0.14847046422748542,0.6035122291779479,0.06027244807854836,5.0
0.4649898831864514,-0.2688407156650152,0.05706877910667759,-0.11331786195713361,0.40678189463597336,0.2435860220521892,5.0
0.47219592505410285,-0.29074416638108386,0.1293384880005743,-0.12747654844510284,0.44449377416950264,0.1356346896015225,5.0
0.5082261343923663,-0.34393826782387393,0.15713453116941456,-0.10501794301045925,0.28484679499047955,-0.04258683124839966,5.0
0.4649898831864514,-0.3501963965998935,0.19604899343038448,-0.11527078546337088,0.07366023778860437,-0.11693066338875932,5.0
0.4577838413188,-0.34706732536526025,0.15713453116941456,-0.1733702210675086,0.1729682047310476,-0.09859930692299222,5.0
0.5262409867844386,-0.30638949516775627,0.04039115350947233,-0.19289943826537936,0.27981854029744846,0.04499631665530138,5.0
0.5262409867844386,-0.30013136639173665,0.04039115350947233,-0.13138239248016034,0.23205015137785712,0.057217223036028275,5.0
0.5226379658506121,-0.3189057527197955,0.16269373919498475,-0.08939456463716636,0.2917606375273463,0.014444056525965181,5.0
0.5082261343923663,-0.34706732536526025,0.1293384880005743,-0.03520097232373195,0.32444427769994627,-0.028329109207767104,5.0
0.5046231134585408,-0.34393826782387393,0.1404569070927039,-0.030806900389532044,0.19496679601490588,0.07351176073656648,5.0
0.4649898831864514,-0.3189057527197955,0.21272661750709518,-0.05717134837052469,0.07051758052197268,0.09082470781971917,5.0
0.4757989459879288,-0.32203481026118186,0.18493057737924407,-0.0806064150000212,0.08497380318187332,0.0663829012689118,5.0
0.49741707159088655,-0.33768013904785427,0.1404569070927039,-0.08353579839849148,0.07366023778860437,0.0561988136534138,5.0
0.5010200925247148,-0.3345510678132211,0.1515753231438443,-0.0864651816108732,0.2031377022250305,0.02564655235958142,5.0
0.5010200925247148,-0.32829293903720147,0.15713453116941456,-0.04301266337126398,0.09754443033188735,0.028701778954763144,5.0
0.49021102972323455,-0.32203481026118186,0.15713453116941456,-0.0527772749476163,0.07994555232186772,0.014444056525965181,5.0
0.4757989459879288,-0.30951855270914264,0.1293384880005743,-0.05521842635299592,0.04851898109293547,0.03684904780503226,5.0
0.49021102972323455,-0.3189057527197955,0.17937136327169545,-0.07084180398193456,0.0522901695972858,0.09591675473279139,5.0
0.5082261343923663,-0.32829293903720147,0.10154244635222856,-0.10794732529239817,0.15096960578113855,-0.01305297778452009,5.0
0.47219592505410285,-0.35332545414127986,0.11822007194943382,-0.05375373372331798,0.03971954160879748,0.016480874126697864,5.0
0.49741707159088655,-0.34393826782387393,0.1126608639238636,-0.04252443249470467,0.04851898109293547,0.015462465520414224,5.0
0.5010200925247148,-0.32203481026118186,0.15713453116941456,-0.0527772749476163,0.05040457540500166,0.033793822762512145,5.0
0.5010200925247148,-0.3157766814851622,0.16269373919498475,-0.09330040941657813,0.06423226694696568,-0.0008320737327856157,5.0
0.49741707159088655,-0.32516388149581515,0.17381215524612523,-0.08353579839849148,0.05543282674413544,0.003241560692348942,5.0
0.5082261343923663,-0.33768013904785427,0.1293384880005743,-0.09281217854001883,0.07617436321860717,-0.06702864090453023,5.0
0.4866080087894085,-0.3157766814851622,0.1404569070927039,-0.0879298734961969,0.0636037351103368,-0.007960935529432701,5.0
0.4830049878555831,-0.3157766814851622,0.12377927997500401,-0.09720625345163568,0.06674639237696847,0.01851769133926514,5.0
0.4830049878555831,-0.32516388149581515,0.13489769906713367,-0.11673547511563186,0.06674639237696847,0.037867457187646704,5.0
0.4830049878555831,-0.34706732536526025,0.17937136327169545,-0.11331786195713361,0.05417576384946097,-0.00897934335938553,5.0
0.5010200925247148,-0.3501963965998935,0.16825294722055503,-0.08451225940725587,0.04789044973543476,-0.00897934335938553,5.0
0.5010200925247148,-0.3501963965998935,0.15713453116941456,-0.07767703178763949,0.05417576384946097,0.004259969686797984,5.0
0.49021102972323455,-0.34393826782387393,0.1404569070927039,-0.08451225940725587,0.04789044973543476,-0.004905708934250973,5.0
0.49381405065705997,-0.34393826782387393,0.1293384880005743,-0.085976951106491,0.06234667239533541,0.015462465520414224,5.0
0.49021102972323455,-0.32516388149581515,0.1404569070927039,-0.0879298734961969,0.05417576384946097,0.005278378293081622,5.0
0.4830049878555831,-0.32829293903720147,0.16269373919498475,-0.1006238680988424,0.051033106762502355,0.06230926373845405,5.0
0.4830049878555831,-0.32516388149581515,0.17381215524612523,-0.09281217854001883,0.04034807248717001,0.037867457187646704,5.0
0.5046231134585408,-0.33768013904785427,0.14601611511827414,-0.09330040941657813,0.054804295266852696,0.0327754133798977,5.0
0.5082261343923663,-0.33768013904785427,0.1293384880005743,-0.08304756780106501,0.06234667239533541,0.02564655235958142,5.0
0.49021102972323455,-0.34393826782387393,0.1293384880005743,-0.09232394840781376,0.06108960968033401,0.035830638422417814,5.0
0.4830049878555831,-0.34393826782387393,0.14601611511827414,-0.08402402890287368,0.04600485518380449,0.024628142976966975,5.0
0.5010200925247148,-0.35958358291729947,0.1404569070927039,-0.060100732141172085,0.02714891254227077,0.006296786899365262,5.0
0.5010200925247148,-0.32829293903720147,0.11822007194943382,-0.0752358788935514,0.042862197917172815,0.015462465520414224,5.0
0.49741707159088655,-0.32203481026118186,0.1293384880005743,-0.09183571753125444,0.06234667239533541,0.003241560692348942,5.0
0.49021102972323455,-0.32829293903720147,0.1293384880005743,-0.09085925652249005,0.0365768843421658,0.016480874126697864,5.0
0.4866080087894085,-0.34393826782387393,0.1404569070927039,-0.08402402890287368,0.04349072975380169,0.0012047434797816654,5.0
0.49741707159088655,-0.32829293903720147,0.12377927997500401,-0.07962995399125683,0.04411926159043056,0.0012047434797816654,5.0
0.5046231134585408,-0.32829293903720147,0.17937136327169545,-0.07181826499069895,0.042862197917172815,-0.028329109207767104,5.0
0.5010200925247148,-0.32516388149581515,0.1515753231438443,-0.07328295687602264,0.049147512450436165,-0.0008320737327856157,5.0
0.49381405065705997,-0.32516388149581515,0.15713453116941456,-0.0947651005575476,0.047261918377934066,-0.0008320737327856157,5.0
0.4866080087894085,-0.32203481026118186,0.13489769906713367,-0.09671802257507636,0.042862197917172815,0.007315195699731603,5.0
0.4830049878555831,-0.32516388149581515,0.10154244635222856,-0.10404148125734063,0.06234667239533541,0.00018633487349802345,5.0
0.4830049878555831,-0.3345510678132211,0.15713453116941456,-0.09330040941657813,0.06234667239533541,0.037867457187646704,5.0
0.4830049878555831,-0.34706732536526025,0.15713453116941456,-0.07084180398193456,0.04411926159043056,0.01851769133926514,5.0
0.5082261343923663,-0.34393826782387393,0.10710165589829337,-0.08109464559744768,0.03971954160879748,0.00018633487349802345,5.0
0.4866080087894085,-0.3345510678132211,0.10710165589829337,-0.06303011591181948,0.04474779246880309,0.01851769133926514,5.0
0.4866080087894085,-0.32829293903720147,0.1126608639238636,-0.06742419082343633,0.033434227075534124,0.04092268223016681,5.0
0.4830049878555831,-0.33768013904785427,0.10154244635222856,-0.08304756780106501,0.047261918377934066,0.01851769133926514,5.0
0.49741707159088655,-0.32829293903720147,0.11822007194943382,-0.07767703178763949,0.05731842105620163,-0.002868891721683698,5.0
0.49381405065705997,-0.3501963965998935,0.16825294722055503,-0.07962995399125683,0.04663338702043336,0.003241560692348942,5.0
0.49021102972323455,-0.3345510678132211,0.16269373919498475,-0.08451225940725587,0.04851898109293547,0.03481223059246498,5.0
0.49381405065705997,-0.32203481026118186,0.14601611511827414,-0.09574156231066622,0.05857548377120303,0.016480874126697864,5.0
0.5010200925247148,-0.33768013904785427,0.18493057737924407,-0.10404148125734063,0.05920401512870373,0.01851769133926514,5.0
0.5010200925247148,-0.33768013904785427,0.16269373919498475,-0.1006238680988424,0.054804295266852696,0.0012047434797816654,5.0
0.5010200925247148,-0.34393826782387393,0.13489769906713367,-0.09085925652249005,0.04411926159043056,0.011388830513031563,5.0
0.5010200925247148,-0.33768013904785427,0.17937136327169545,-0.0864651816108732,0.05166163812000306,0.016480874126697864,5.0
0.5046231134585408,-0.3345510678132211,0.1404569070927039,-0.09671802257507636,0.06108960968033401,0.03684904780503226,5.0
0.49741707159088655,-0.32829293903720147,0.16269373919498475,-0.1118531693274557,0.07491730146186212,0.016480874126697864,5.0
0.49021102972323455,-0.33768013904785427,0.16269373919498475,-0.10990024879863541,0.054804295266852696,0.041941091612781256,5.0
0.5010200925247148,-0.3501963965998935,0.12377927997500401,-0.12210601178036733,0.12268568846494077,0.0276833695721487,5.0
0.5082261343923663,-0.3627126541519327,0.1293384880005743,-0.09769448432819498,0.1302280628384365,0.057217223036028275,5.0
0.49381405065705997,-0.35332545414127986,0.1404569070927039,-0.09671802257507636,0.11577184209504854,0.09387993596756249,5.0
0.4757989459879288,-0.32829293903720147,0.18493057737924407,-0.07816526229202168,0.09817296216851622,0.10508243296567495,5.0
0.46859290412027743,-0.3314220102718347,0.1515753231438443,-0.08402402890287368,0.08560233501850222,0.1061008423482894,5.0
0.49021102972323455,-0.30638949516775627,0.16825294722055503,-0.12454716318574696,0.10257268119189296,0.10100879543521717,5.0
0.5046231134585408,-0.30638949516775627,0.2238450335582356,-0.12894124107478075,0.19433827184432778,0.048051544803144705,5.0
0.49021102972323455,-0.32203481026118186,0.13489769906713367,-0.15432922879136327,0.20188065388387427,0.04703313542053027,5.0
0.47940196692175713,-0.3157766814851622,0.0737464043237592,-0.19924643370581652,0.10257268119189296,0.1264690175792854,5.0
0.49021102972323455,-0.30638949516775627,0.1126608639238636,-0.22707557580519555,0.04034807248717001,0.1061008423482894,5.0
0.5010200925247148,-0.287615101993074,0.1293384880005743,-0.2651575603574862,0.04600485518380449,0.0796222108216067,5.0
0.49021102972323455,-0.28135697321705444,0.0904240295408408,-0.3178864592968885,0.0636037351103368,0.10711925173090384,5.0
0.49021102972323455,-0.28135697321705444,0.1404569070927039,-0.3828211361051075,0.09817296216851622,0.12952424572712873,5.0
0.5082261343923663,-0.29387323761571704,0.1404569070927039,-0.4375029466410791,0.11514331025841967,0.10915606428548628,5.0
0.49021102972323455,-0.30013136639173665,0.11822007194943382,-0.49169655607466095,0.09565883865502613,0.1183217425183698,5.0
0.49381405065705997,-0.30638949516775627,0.10154244635222856,-0.5556547592200934,0.07743142689186491,0.06943812941675515,5.0
0.5046231134585408,-0.29074416638108386,0.08486482113514694,-0.6176600150399533,0.09565883865502613,0.037867457187646704,5.0
0.5082261343923663,-0.30638949516775627,0.0904240295408408,-0.6552537865801862,0.10005855767840284,0.06434608250368291,5.0
0.49021102972323455,-0.32203481026118186,0.11822007194943382,-0.7260471862684456,0.11514331025841967,0.04906995108043593,5.0
0.4866080087894085,-0.32516388149581515,0.12377927997500401,-0.7719408529360177,0.10697240404829508,0.10304561420044604,5.0
0.4866080087894085,-0.32516388149581515,0.12377927997500401,-0.8109993230607624,0.09817296216851622,0.15396604606728959,5.0
0.4757989459879288,-0.34393826782387393,0.10154244635222856,-0.8158816199166877,0.049147512450436165,0.2008128528249683,5.0
0.4757989459879288,-0.33768013904785427,0.1404569070927039,-0.8402931518349854,0.0378339470571672,0.18961034961620943,5.0
0.4757989459879288,-0.33768013904785427,0.1404569070927039,-0.9027867040345773,0.08874499228513388,0.17637104006351453,5.0
0.5082261343923663,-0.30951855270914264,0.0904240295408408,-0.9579566680342676,0.07994555232186772,0.20896011546459098,5.0
0.49021102972323455,-0.3189057527197955,0.11822007194943382,-1.0409559051396828,0.10822946388852746,0.23951238452173138,5.0
0.49021102972323455,-0.3189057527197955,0.11822007194943382,-1.0961259644167154,0.09503030681839723,0.24969647834787587,5.0
0.4866080087894085,-0.34393826782387393,0.15713453116941456,-1.1107728549844915,0.12268568846494077,0.19775762467712493,5.0
0.47219592505410285,-0.36584171169331914,0.1293384880005743,-1.1210257450760743,0.10131562135166058,0.17229740253305675,5.0
0.47219592505410285,-0.36584171169331914,0.1293384880005743,-1.137137334228362,0.09565883865502613,0.08471425773467892,5.0
0.49021102972323455,-0.3627126541519327,0.09598323832665834,-1.1566665216520633,0.09691589849525847,0.055180404270799385,5.0
0.49381405065705997,-0.36584171169331914,0.06818719591806534,-1.1879132977518592,0.10445827670177957,0.07249335135395206,5.0
0.5010200925247148,-0.36584171169331914,0.0904240295408408,-1.2045131832838791,0.1113721230716718,0.18146308697658675,5.0
0.49381405065705997,-0.34080919658924064,0.0904240295408408,-1.2030484846993674,0.12834246732854987,0.2130337529950487,5.0
0.5118289030491352,-0.34393826782387393,0.0904240295408408,-1.2030484846993674,0.15222666178834554,0.2914512257711894,5.0
0.49021102972323455,-0.34393826782387393,0.06818719591806534,-1.1991425900482218,0.18051057910454332,0.3169114479152576,5.0
0.4830049878555831,-0.3752289117039719,0.06818719591806534,-1.1908426949208828,0.20125211438119464,0.3566293765733422,5.0
0.49021102972323455,-0.40651955558406994,0.0904240295408408,-1.1254198408296097,0.21759392680144382,0.3291323356640452,5.0
0.5046231134585408,-0.44719739947482096,0.09598323832665834,-1.0487675991646317,0.22702189668482614,0.3362612137636392,5.0
0.5046231134585408,-0.4628427282614934,0.09598323832665834,-0.9682095581258505,0.24273518493449725,0.340334851294097,5.0
0.49741707159088655,-0.4753589858135325,0.10154244635222856,-0.8910691153584827,0.24336372443717685,0.2853407694755028,5.0
0.49021102972323455,-0.4753589858135325,0.1404569070927039,-0.8324814578100365,0.20628036907422562,0.20896011546459098,5.0
0.4757989459879288,-0.49100431460020494,0.15713453116941456,-0.7597351107962043,0.1893100171512968,0.18961034961620943,5.0
0.4757989459879288,-0.4847461721309385,0.16269373919498475,-0.6611125332795623,0.1635402271816145,0.21914419686944253,5.0
0.49021102972323455,-0.5222949447870562,0.1404569070927039,-0.5483312662975343,0.17736791992139897,0.20386808097281164,5.0
0.49021102972323455,-0.5097786872350168,0.11822007194943382,-0.46777324907808854,0.15222666178834554,0.16516854927604852,5.0
0.4830049878555831,-0.47848805704816566,0.11822007194943382,-0.40918556771030695,0.14594135108810757,0.15600286483251852,5.0
0.47940196692175713,-0.46910084334426605,0.15713453116941456,-0.36133897753649763,0.06171814055870653,0.07249335135395206,5.0
0.4541808203849746,-0.46910084334426605,0.1404569070927039,-0.3086100905067633,0.019606536252262365,-0.021200246634789203,5.0
0.47940196692175713,-0.46910084334426605,0.0904240295408408,-0.26564579718887943,-0.018105350947317776,-0.06295500337407242,5.0
0.49021102972323455,-0.4628427282614934,0.0737464043237592,-0.21535804667743988,-0.04701779243409367,-0.09248885683795201,5.0
0.5190349449167866,-0.4252939556053756,0.06262798713224782,-0.19582882352473524,0.0013791244891011654,-0.059899781436875556,5.0
0.5082261343923663,-0.4096486268187031,0.0737464043237592,-0.2114521996649654,0.005778843512477899,-0.03749478744065064,5.0
0.49381405065705997,-0.4033904980426837,0.0737464043237592,-0.2339108080770259,-0.00490619004416219,-0.0018504823390692534,5.0
0.47940196692175713,-0.41590674190147603,0.10710165589829337,-0.22902849931143282,-0.0017635308610178197,0.003241560692348942,5.0
0.4830049878555831,-0.44719739947482096,0.11822007194943382,-0.18508775615009818,-0.03256157552373111,0.037867457187646704,5.0
0.5010200925247148,-0.47848805704816566,0.14601611511827414,-0.13333531300898066,-0.05078898345386692,-0.027310699825152638,5.0
0.49741707159088655,-0.5066496160003837,0.15713453116941456,-0.06449480705278894,-0.057074294154104886,-0.054807734523803324,5.0
0.4830049878555831,-0.5222949447870562,0.1515753231438443,0.005322160656521404,-0.04953191978060918,-0.08739681613552625,5.0
0.49021102972323455,-0.5066496160003837,0.15713453116941456,0.05707460379763892,-0.04890338794398031,-0.13322520108929756,5.0
0.49741707159088655,-0.5003915009176109,0.17381215524612523,0.13323856099255246,-0.06084548517387813,-0.13118838232406865,5.0
0.5082261343923663,-0.5129077584696501,0.17381215524612523,0.2479727514808178,-0.04953191978060918,-0.14035406676759865,5.0
0.5082261343923663,-0.4941333584483444,0.15713453116941456,0.30216633709506396,-0.0074203135576523015,-0.1586854232333658,5.0
0.4866080087894085,-0.46910084334426605,0.21828582553266535,0.3177897013256265,-0.026904788994071255,-0.11591225400614492,5.0
0.49021102972323455,-0.41903581313610916,0.1293384880005743,0.2967957914980777,-0.02061947829383327,-0.07517590975479933,5.0
0.49381405065705997,-0.39400329803203077,0.1515753231438443,0.26994311115181724,-0.028161852667328992,-0.03647637805803621,5.0
0.5118289030491352,-0.397132369266664,0.15713453116941456,0.24650805289630592,-0.00993444090416779,-0.07924954107461069,5.0
0.5046231134585408,-0.41277769805333653,0.16825294722055503,0.23381406201543165,0.021492129845636285,-0.10572817260129332,5.0
0.4866080087894085,-0.4252939556053756,0.16825294722055503,0.22453766940597084,0.0051503116758490316,-0.11998589153660266,5.0
0.4830049878555831,-0.4315520706881485,0.17381215524612523,0.26408436445244116,-0.021876534301040265,-0.15359337632029355,5.0
0.49381405065705997,-0.4409392570055543,0.1293384880005743,0.29386641814838976,-0.013077096254286782,-0.17396155155128956,5.0
0.5010200925247148,-0.4565845857922268,0.16825294722055503,0.3382953862314497,0.020235068088891233,-0.1851640547600485,5.0
0.49021102972323455,-0.4409392570055543,0.11822007194943382,0.38272435431450985,-0.00993444090416779,-0.18720086110398446,5.0
0.49741707159088655,-0.4409392570055543,0.10710165589829337,0.397371292520957,0.013321221718999009,-0.13322520108929756,5.0
0.5082261343923663,-0.4628427282614934,0.11822007194943382,0.4227592742827056,-0.008048845394281183,-0.12405952906706048,5.0
0.49741707159088655,-0.4816171008963051,0.1404569070927039,0.4710940893782401,-0.0017635308610178197,-0.10470976321867888,5.0
0.5010200925247148,-0.4659717721096329,0.13489769906713367,0.494040922712026,0.007664439022364521,-0.10776499136652226,5.0
0.5010200925247148,-0.44719739947482096,0.10154244635222856,0.5091761096595341,0.010807094372483499,-0.11082021951436555,5.0
0.5010200925247148,-0.4284229994535151,0.09598323832665834,0.5262641486552727,-0.021248002464411376,-0.08535999737029733,5.0
0.5118289030491352,-0.3783579829386052,0.09598323832665834,0.5477462834045468,-0.018733882783946665,-0.07517590975479933,5.0
0.5082261343923663,-0.38774516925601116,0.09598323832665834,0.5384699384337572,0.018978004415633486,-0.07619431913741377,5.0
0.49021102972323455,-0.38148704047999155,0.0904240295408408,0.5116172580874969,0.019606536252262365,-0.1118386164756871,5.0
0.47940196692175713,-0.38148704047999155,0.08486482113514694,0.4818351805722127,0.017092408905746863,-0.08739681613552625,5.0
0.4830049878555831,-0.38148704047999155,0.0904240295408408,0.4774410848186772,-0.0055347218807910645,-0.11489384462353043,5.0
0.5010200925247148,-0.38774516925601116,0.03483194548390212,0.45986479708187755,0.013949753555627876,-0.10267294445345,5.0
0.49741707159088655,-0.36584171169331914,0.03483194548390212,0.43154741815110537,0.010178566368880024,-0.13322520108929756,5.0
0.49741707159088655,-0.3501963965998935,0.06818719591806534,0.39004784723706903,-0.0017635308610178197,-0.10878340074913666,5.0
0.4866080087894085,-0.3345510678132211,0.04039115350947233,0.31583680163872485,-0.0017635308610178197,-0.11693066338875932,5.0
0.4830049878555831,-0.3314220102718347,0.04039115350947233,0.2684784363866411,0.025891850785525725,-0.11387543524091599,5.0
0.49021102972323455,-0.303260423933123,0.05706877910667759,0.1947556157100224,0.024006255275639085,-0.027310699825152638,5.0
0.5010200925247148,-0.29074416638108386,0.04595036153504255,0.1229857185396409,0.05166163812000306,-0.01305297778452009,5.0
0.47940196692175713,-0.28135697321705444,0.05706877910667759,0.06732744625055058,0.051033106762502355,0.0225913257643997,5.0
0.4757989459879288,-0.30013136639173665,0.05706877910667759,-0.011277677236827396,0.06674639237696847,0.01953609994554878,5.0
0.47940196692175713,-0.33768013904785427,0.06818719591806534,-0.05863603951149415,0.05983254648620443,-0.02018184035749798,5.0
0.4866080087894085,-0.3752289117039719,0.11822007194943382,-0.085976951106491,0.08308820958849941,-0.015089796549748978,5.0
0.46859290412027743,-0.38148704047999155,0.1293384880005743,-0.08353579839849148,0.057946952413702325,-0.021200246634789203,5.0
0.5010200925247148,-0.3689707829279523,0.0904240295408408,-0.07914172330078607,0.047261918377934066,-0.05073410320399198,5.0
0.5046231134585408,-0.34706732536526025,0.04039115350947233,-0.09378864029313745,0.042233667038800285,-0.03953160620587954,5.0
0.5190349449167866,-0.34706732536526025,0.06262798713224782,-0.12112955002724872,0.06423226694696568,-0.00897934335938553,5.0
0.5010200925247148,-0.3752289117039719,0.06262798713224782,-0.11771193686875049,0.088116460448505,-0.0334211530155161,5.0
0.49021102972323455,-0.38774516925601116,0.06262798713224782,-0.10892378704551679,0.07051758052197268,0.00018633487349802345,5.0
0.49021102972323455,-0.36584171169331914,0.1293384880005743,-0.11234140020401502,0.04851898109293547,-0.014071387167134535,5.0
0.49021102972323455,-0.34706732536526025,0.0904240295408408,-0.12552362493886557,0.022749193518894033,0.01953609994554878,5.0
0.49381405065705997,-0.35958358291729947,0.0904240295408408,-0.1304059307270417,0.05731842105620163,0.05416199488818491,5.0
0.4830049878555831,-0.3689707829279523,0.09598323832665834,-0.14212346283221436,0.07994555232186772,0.04906995108043593,5.0
0.4830049878555831,-0.38148704047999155,0.1293384880005743,-0.15530569054448184,0.088116460448505,0.05008836046305036,5.0
0.4830049878555831,-0.3908742404906444,0.14601611511827414,-0.14114700107909575,0.08560233501850222,0.04092268223016681,5.0
0.49021102972323455,-0.39400329803203077,0.10154244635222856,-0.1304059307270417,0.07303170595197549,0.04906995108043593,5.0
0.5010200925247148,-0.397132369266664,0.12377927997500401,-0.12210601178036733,0.08057408415849661,0.04499631665530138,5.0
0.4866080087894085,-0.38461611171462473,0.1126608639238636,-0.10452971213389992,0.05166163812000306,0.042959500995395715,5.0
0.4830049878555831,-0.3627126541519327,0.09598323832665834,-0.10111209748669323,0.06046107784370513,0.04092268223016681,5.0
0.49021102972323455,-0.38148704047999155,0.12377927997500401,-0.09964740634572375,0.06108960968033401,0.02055450855183242,5.0
0.5154319239829606,-0.3720998404693387,0.0737464043237592,-0.08451225940725587,0.07868848864860997,0.04703313542053027,5.0
0.5082261343923663,-0.3689707829279523,0.08486482113514694,-0.09232394840781376,0.07240317411534661,0.06943812941675515,5.0
0.5010200925247148,-0.36584171169331914,0.10154244635222856,-0.08304756780106501,0.10382974486515072,0.06129085746116283,5.0
0.4866080087894085,-0.35332545414127986,0.10154244635222856,-0.08011818449563901,0.08371674142512826,0.048051544803144705,5.0
0.4866080087894085,-0.3501963965998935,0.1293384880005743,-0.09037102639028498,0.08497380318187332,0.08064062020422116,5.0
0.4757989459879288,-0.36584171169331914,0.1404569070927039,-0.08500049009772662,0.07240317411534661,0.05416199488818491,5.0
0.49021102972323455,-0.38774516925601116,0.10154244635222856,-0.08548872060210881,0.08057408415849661,0.07656698888440983,5.0
0.5046231134585408,-0.3908742404906444,0.05706877910667759,-0.07572410977011072,0.08434527134524447,0.09387993596756249,5.0
0.5010200925247148,-0.3720998404693387,0.05706877910667759,-0.04301266337126398,0.10382974486515072,0.07249335135395206,5.0
0.4866080087894085,-0.35958358291729947,0.14601611511827414,-0.04887142793514181,0.09063058779502049,-0.004905708934250973,5.0
0.4866080087894085,-0.35958358291729947,0.14601611511827414,-0.05912427038805345,0.04537632430543196,-0.022218656017403648,5.0
0.5082261343923663,-0.33768013904785427,0.10154244635222856,-0.06449480705278894,0.03217716340227637,-0.014071387167134535,5.0
0.5082261343923663,-0.35958358291729947,0.1404569070927039,-0.09232394840781376,0.07366023778860437,0.012407239313397904,5.0
0.5082261343923663,-0.35958358291729947,0.1404569070927039,-0.11331786195713361,0.0636037351103368,-0.004905708934250973,5.0
0.49741707159088655,-0.36584171169331914,0.09598323832665834,-0.1201530882741301,0.07680289505523605,0.010370421809706572,5.0
0.49021102972323455,-0.3689707829279523,0.15713453116941456,-0.1035532503807813,0.08685939677524726,-0.00592411676420381,5.0
0.49021102972323455,-0.3689707829279523,0.15713453116941456,-0.09574156231066622,0.09000205595839163,0.05416199488818491,5.0
0.49021102972323455,-0.38148704047999155,0.1404569070927039,-0.06205365415870085,0.08245967775187052,0.03684904780503226,5.0
0.49021102972323455,-0.38774516925601116,0.10154244635222856,-0.0605889630177314,0.07617436321860717,0.01851769133926514,5.0
0.49021102972323455,-0.38774516925601116,0.10154244635222856,-0.046918507406321516,0.04600485518380449,0.016480874126697864,5.0
0.5010200925247148,-0.38774516925601116,0.1293384880005743,-0.035689203200291245,0.034062758912162996,-0.00897934335938553,5.0
0.49741707159088655,-0.3783579829386052,0.10710165589829337,-0.04057150898846742,0.051033106762502355,0.026664961742195865,5.0
0.49741707159088655,-0.3783579829386052,0.10710165589829337,-0.04252443249470467,0.088116460448505,0.0898062984371047,5.0
0.4830049878555831,-0.3501963965998935,0.1126608639238636,-0.05375373372331798,0.07680289505523605,0.09489834535017694,5.0
0.4830049878555831,-0.3501963965998935,0.1404569070927039,-0.06644772907031771,0.06674639237696847,0.08267743896945005,5.0
0.49021102972323455,-0.38148704047999155,0.1404569070927039,-0.0752358788935514,0.06863198692859876,0.028701778954763144,5.0
0.5082261343923663,-0.38774516925601116,0.16825294722055503,-0.08451225940725587,0.06926051780697129,0.01851769133926514,5.0
0.5118289030491352,-0.3908742404906444,0.1293384880005743,-0.08255933725016068,0.07743142689186491,0.041941091612781256,5.0
0.5082261343923663,-0.3720998404693387,0.11822007194943382,-0.09134748739904937,0.09063058779502049,0.06536449188629738,5.0
0.49381405065705997,-0.3752289117039719,0.15713453116941456,-0.08939456463716636,0.06423226694696568,0.05212517922827926,5.0
0.4866080087894085,-0.3752289117039719,0.1404569070927039,-0.1118531693274557,0.042233667038800285,0.0327754133798977,5.0
0.4757989459879288,-0.3908742404906444,0.12377927997500401,-0.10452971213389992,0.0522901695972858,-0.0018504823390692534,5.0
0.4866080087894085,-0.40651955558406994,0.11822007194943382,-0.09085925652249005,0.05668988945913684,-0.00897934335938553,5.0
0.49021102972323455,-0.40651955558406994,0.0904240295408408,-0.07230649586725825,0.06611786054033962,0.011388830513031563,5.0
0.49021102972323455,-0.39400329803203077,0.10154244635222856,-0.061077192405582216,0.057946952413702325,0.03684904780503226,5.0
0.5010200925247148,-0.38148704047999155,0.1293384880005743,-0.0635183452996703,0.0636037351103368,0.0561988136534138,5.0
0.47940196692175713,-0.3689707829279523,0.1293384880005743,-0.06449480705278894,0.07805995681198111,0.05008836046305036,5.0
0.5010200925247148,-0.3783579829386052,0.1404569070927039,-0.06888888196440579,0.08183114591524167,0.05925403869593394,5.0
0.5010200925247148,-0.38148704047999155,0.16269373919498475,-0.05717134837052469,0.07303170595197549,0.05110676984566482,5.0
0.49381405065705997,-0.38461611171462473,0.1293384880005743,-0.05326550284675868,0.05983254648620443,0.06230926373845405,5.0
0.5046231134585408,-0.40026142680805027,0.11822007194943382,-0.031295131266091354,0.07114611235860156,0.03888586657026114,5.0
0.49741707159088655,-0.4096486268187031,0.0904240295408408,-0.02348344319597626,0.05543282674413544,0.037867457187646704,5.0
0.4830049878555831,-0.38148704047999155,0.11822007194943382,-0.025436360747379618,0.03971954160879748,0.014444056525965181,5.0
0.49021102972323455,-0.38148704047999155,0.13489769906713367,-0.050824351441379076,0.029663037972273574,-0.017126612209654647,5.0
0.5010200925247148,-0.397132369266664,0.11822007194943382,-0.05912427038805345,0.04160513520217141,-0.04971569382137754,5.0
0.49741707159088655,-0.397132369266664,0.10710165589829337,-0.06888888196440579,0.05417576384946097,-0.02629229044253821,5.0
0.49021102972323455,-0.35645452537591316,0.06818719591806534,-0.09330040941657813,0.05668988945913684,-0.0038872995516365315,5.0
0.49021102972323455,-0.3501963965998935,0.1126608639238636,-0.11868839862186911,0.05543282674413544,0.01851769133926514,5.0
0.4830049878555831,-0.35958358291729947,0.13489769906713367,-0.13382354388553996,0.06108960968033401,0.0225913257643997,5.0
0.49381405065705997,-0.3783579829386052,0.1293384880005743,-0.14017053932597712,0.07051758052197268,0.06434608250368291,5.0
0.49741707159088655,-0.39400329803203077,0.14601611511827414,-0.11478255458681158,0.035319820668908056,0.11119288305071517,5.0
0.5010200925247148,-0.41590674190147603,0.15713453116941456,-0.0752358788935514,0.05417576384946097,0.14785560219289584,5.0
0.49741707159088655,-0.4284229994535151,0.1126608639238636,-0.027877515130176174,0.04411926159043056,0.08878788905449028,5.0
0.4866080087894085,-0.41590674190147603,0.12377927997500401,-0.012254138989946008,0.05417576384946097,0.08267743896945005,5.0
0.4866080087894085,-0.39400329803203077,0.16825294722055503,-0.007860061100912205,0.056061358101636136,0.058235632418642706,5.0
0.49381405065705997,-0.3752289117039719,0.13489769906713367,-0.008348291977471518,0.04097660432379888,0.0561988136534138,5.0
0.5082261343923663,-0.32516388149581515,0.10154244635222856,-0.018112903553823834,0.06926051780697129,0.10508243296567495,5.0
0.5082261343923663,-0.32203481026118186,0.09598323832665834,-0.03910681933620644,0.06674639237696847,0.13359787083629363,5.0
0.49381405065705997,-0.34393826782387393,0.0904240295408408,-0.0693771128409651,0.06800345509196988,0.10711925173090384,5.0
0.4830049878555831,-0.3689707829279523,0.1293384880005743,-0.07230649586725825,0.05668988945913684,0.0663829012689118,5.0
0.4757989459879288,-0.38461611171462473,0.1515753231438443,-0.07670057077887511,0.054804295266852696,0.037867457187646704,5.0
0.49021102972323455,-0.4033904980426837,0.18493057737924407,-0.06791242021128717,0.02777744437889964,0.033793822762512145,5.0
0.49021102972323455,-0.38148704047999155,0.1293384880005743,-0.09671802257507636,0.024634787112267967,0.05416199488818491,5.0
0.49741707159088655,-0.38148704047999155,0.13489769906713367,-0.10257679011637116,0.05731842105620163,0.09489834535017694,5.0
0.4866080087894085,-0.397132369266664,0.1293384880005743,-0.11478255458681158,0.08497380318187332,0.08165902958683559,5.0
0.47940196692175713,-0.4096486268187031,0.12377927997500401,-0.09378864029313745,0.07931702048523885,0.06434608250368291,5.0
0.4866080087894085,-0.4096486268187031,0.1293384880005743,-0.085976951106491,0.06423226694696568,0.08776948588252226,5.0
0.49381405065705997,-0.40651955558406994,0.13489769906713367,-0.061077192405582216,0.06863198692859876,0.1122112924333296,5.0
0.49741707159088655,-0.4284229994535151,0.1126608639238636,-0.024459898994260994,0.047261918377934066,0.0999903860526027,5.0
0.49021102972323455,-0.4252939556053756,0.11822007194943382,-0.017136441800705213,0.04160513520217141,0.0460147260379158,5.0
0.4866080087894085,-0.40651955558406994,0.10154244635222856,-0.013718831619623954,0.0390910097721686,0.057217223036028275,5.0
0.49021102972323455,-0.40026142680805027,0.08486482113514694,-0.028365746006735488,0.04977604380793687,0.024628142976966975,5.0
0.49381405065705997,-0.40026142680805027,0.11822007194943382,-0.041547970741586046,0.0522901695972858,0.00018633487349802345,5.0
0.4866080087894085,-0.38774516925601116,0.11822007194943382,-0.04447735302352497,0.05857548377120303,-0.004905708934250973,5.0
0.4830049878555831,-0.3720998404693387,0.10154244635222856,-0.06840065108784647,0.04789044973543476,0.0857326671172934,5.0
0.4830049878555831,-0.3783579829386052,0.09598323832665834,-0.08353579839849148,0.03594835250553693,0.0898062984371047,5.0
0.5010200925247148,-0.4033904980426837,0.11822007194943382,-0.07962995399125683,0.04851898109293547,0.07045653258872317,5.0
0.5046231134585408,-0.41903581313610916,0.1293384880005743,-0.08451225940725587,0.05166163812000306,0.053143588610893716,5.0
0.5082261343923663,-0.40651955558406994,0.12377927997500401,-0.08402402890287368,0.07868848864860997,0.055180404270799385,5.0
0.49021102972323455,-0.4252939556053756,0.1404569070927039,-0.08841810362840197,0.08120261407861278,0.05110676984566482,5.0
0.49021102972323455,-0.4315520706881485,0.13489769906713367,-0.07084180398193456,0.06548932966196708,0.0561988136534138,5.0
0.4830049878555831,-0.4096486268187031,0.12377927997500401,-0.06400657617622961,0.042862197917172815,0.05212517922827926,5.0
0.49741707159088655,-0.397132369266664,0.10710165589829337,-0.05814781012364331,0.03971954160879748,0.07249335135395206,5.0
0.5082261343923663,-0.40651955558406994,0.10710165589829337,-0.06742419082343633,0.04851898109293547,0.06129085746116283,5.0
0.5010200925247148,-0.4033904980426837,0.10710165589829337,-0.07133003485849387,0.06108960968033401,0.0276833695721487,5.0
0.4830049878555831,-0.41903581313610916,0.12377927997500401,-0.06449480705278894,0.0522901695972858,0.0276833695721487,5.0
0.47940196692175713,-0.41903581313610916,0.12377927997500401,-0.05912427038805345,0.03846247793553973,0.013425647919681542,5.0
0.4866080087894085,-0.4252939556053756,0.15713453116941456,-0.041547970741586046,0.035319820668908056,0.007315195699731603,5.0
0.5046231134585408,-0.41903581313610916,0.1515753231438443,-0.042036201618145363,0.035319820668908056,-0.0038872995516365315,5.0
0.49021102972323455,-0.4096486268187031,0.10154244635222856,-0.05570665722955524,0.042862197917172815,-0.014071387167134535,5.0
0.4830049878555831,-0.4033904980426837,0.11822007194943382,-0.07328295687602264,0.04789044973543476,-0.00592411676420381,5.0
0.47940196692175713,-0.4096486268187031,0.11822007194943382,-0.06888888196440579,0.05920401512870373,0.003241560692348942,5.0
0.49021102972323455,-0.41903581313610916,0.10154244635222856,-0.05863603951149415,0.06548932966196708,-0.015089796549748978,5.0
0.4830049878555831,-0.41277769805333653,0.12377927997500401,-0.05912427038805345,0.051033106762502355,-0.01305297778452009,5.0
0.49021102972323455,-0.41903581313610916,0.15713453116941456,-0.05375373372331798,0.051033106762502355,-0.009997752741999977,5.0
0.49021102972323455,-0.41903581313610916,0.12377927997500401,-0.046918507406321516,0.02714891254227077,-0.031384334250287194,5.0
0.4830049878555831,-0.4252939556053756,0.1404569070927039,-0.038618588459647135,0.022749193518894033,-0.03851319682326511,5.0
0.49741707159088655,-0.4346811419227817,0.1293384880005743,-0.046918507406321516,0.030920101645531328,-0.09045203807272312,5.0
0.5010200925247148,-0.40651955558406994,0.14601611511827414,-0.052289044071057,0.04851898109293547,-0.02629229044253821,5.0
0.5010200925247148,-0.38774516925601116,0.0904240295408408,-0.051800813194497676,0.05291870101467752,-0.023237065400018093,5.0
0.5010200925247148,-0.38774516925601116,0.10154244635222856,-0.07084180398193456,0.06423226694696568,0.04499631665530138,5.0
0.49381405065705997,-0.397132369266664,0.11822007194943382,-0.08353579839849148,0.06674639237696847,0.08776948588252226,5.0
0.49021102972323455,-0.3908742404906444,0.1293384880005743,-0.08890633450496128,0.09314471130851061,0.11424810498791206,5.0
0.49021102972323455,-0.397132369266664,0.1293384880005743,-0.10013563722228308,0.09314471130851061,0.12850583634451423,5.0
0.4866080087894085,-0.4096486268187031,0.10154244635222856,-0.08939456463716636,0.08748792861187613,0.13359787083629363,5.0
0.49381405065705997,-0.4033904980426837,0.09598323832665834,-0.10550617388701856,0.08183114591524167,0.10100879543521717,5.0
0.4830049878555831,-0.40026142680805027,0.1404569070927039,-0.08988279551372567,0.07617436321860717,0.0999903860526027,5.0
0.49021102972323455,-0.4033904980426837,0.1404569070927039,-0.07035357310537525,0.07680289505523605,0.04499631665530138,5.0
0.49021102972323455,-0.40651955558406994,0.10154244635222856,-0.06400657617622961,0.07491730146186212,0.011388830513031563,5.0
0.49021102972323455,-0.397132369266664,0.1515753231438443,-0.04057150898846742,0.0522901695972858,-0.007960935529432701,5.0
0.49021102972323455,-0.3908742404906444,0.1404569070927039,-0.05131258231793837,0.03594835250553693,-0.03240274363290165,5.0
0.4866080087894085,-0.3908742404906444,0.1126608639238636,-0.060100732141172085,0.03217716340227637,-0.02934751859038154,5.0
0.49021102972323455,-0.38774516925601116,0.10154244635222856,-0.06254188503526018,0.04600485518380449,-0.03953160620587954,5.0
0.49741707159088655,-0.4033904980426837,0.0904240295408408,-0.07133003485849387,0.04789044973543476,-0.03953160620587954,5.0
0.5010200925247148,-0.397132369266664,0.09598323832665834,-0.08451225940725587,0.05417576384946097,-0.034439562398130556,5.0
0.5010200925247148,-0.397132369266664,0.09598323832665834,-0.09134748739904937,0.04600485518380449,-0.06601023152191576,5.0
0.5010200925247148,-0.4096486268187031,0.1293384880005743,-0.08744164261963759,0.04600485518380449,-0.025273884165246986,5.0
0.49021102972323455,-0.4033904980426837,0.1293384880005743,-0.07474764876134633,0.04474779246880309,-0.015089796549748978,5.0
0.49021102972323455,-0.4033904980426837,0.1293384880005743,-0.06303011591181948,0.03846247793553973,0.041941091612781256,5.0
0.5010200925247148,-0.4096486268187031,0.11822007194943382,-0.0762123399023158,0.0522901695972858,0.029720186784715975,5.0
0.5010200925247148,-0.4096486268187031,0.10154244635222856,-0.05668311898267384,0.05417576384946097,0.06129085746116283,5.0
0.5010200925247148,-0.4096486268187031,0.10154244635222856,-0.05131258231793837,0.06611786054033962,0.09591675473279139,5.0
0.49021102972323455,-0.41277769805333653,0.11822007194943382,-0.03520097232373195,0.04789044973543476,0.02564655235958142,5.0
0.49021102972323455,-0.40651955558406994,0.16269373919498475,-0.02934220775985411,0.04537632430543196,0.0225913257643997,5.0
0.49021102972323455,-0.40651955558406994,0.16269373919498475,-0.031295131266091354,0.034062758912162996,0.0174992827329815,5.0
0.49021102972323455,-0.397132369266664,0.1515753231438443,-0.051800813194497676,0.051033106762502355,-0.01305297778452009,5.0
0.4830049878555831,-0.3720998404693387,0.08486482113514694,-0.054730195476436615,0.07177464419523043,0.005278378293081622,5.0
0.4830049878555831,-0.3720998404693387,0.08486482113514694,-0.06449480705278894,0.05731842105620163,0.039904272847552366,5.0
0.49021102972323455,-0.3908742404906444,0.11822007194943382,-0.07133003485849387,0.03720541617879468,0.0460147260379158,5.0
0.4830049878555831,-0.4096486268187031,0.0904240295408408,-0.08988279551372567,0.04789044973543476,0.012407239313397904,5.0
0.49741707159088655,-0.4033904980426837,0.0904240295408408,-0.09330040941657813,0.042233667038800285,-0.004905708934250973,5.0
0.4830049878555831,-0.40651955558406994,0.0904240295408408,-0.1006238680988424,0.054804295266852696,-0.0018504823390692534,5.0
0.49381405065705997,-0.4033904980426837,0.1293384880005743,-0.09281217854001883,0.04034807248717001,0.006296786899365262,5.0
0.49021102972323455,-0.41590674190147603,0.12377927997500401,-0.07572410977011072,0.049147512450436165,0.02055450855183242,5.0
0.49741707159088655,-0.4033904980426837,0.08486482113514694,-0.10013563722228308,0.0378339470571672,0.033793822762512145,5.0
0.5010200925247148,-0.4033904980426837,0.10154244635222856,-0.11722370599219119,0.067374923255341,0.0561988136534138,5.0
0.49741707159088655,-0.40651955558406994,0.10710165589829337,-0.10697086502798801,0.07491730146186212,0.02564655235958142,5.0
0.4830049878555831,-0.41277769805333653,0.1404569070927039,-0.09574156231066622,0.057946952413702325,0.053143588610893716,5.0
0.47219592505410285,-0.4252939556053756,0.12377927997500401,-0.07767703178763949,0.05417576384946097,0.07554857950179539,5.0
0.49021102972323455,-0.41903581313610916,0.13489769906713367,-0.06840065108784647,0.05291870101467752,0.033793822762512145,5.0
0.49021102972323455,-0.41903581313610916,0.15713453116941456,-0.06693595994687701,0.06108960968033401,0.04906995108043593,5.0
0.49021102972323455,-0.41903581313610916,0.18493057737924407,-0.07181826499069895,0.0390910097721686,0.039904272847552366,5.0
0.49021102972323455,-0.4096486268187031,0.13489769906713367,-0.05814781012364331,0.07240317411534661,0.02055450855183242,5.0
0.49021102972323455,-0.4284229994535151,0.10710165589829337,-0.0527772749476163,0.049147512450436165,0.011388830513031563,5.0
0.4830049878555831,-0.4096486268187031,0.12377927997500401,-0.05765957924708401,0.03029156980890244,0.02360973514701414,5.0
0.49381405065705997,-0.3908742404906444,0.10710165589829337,-0.046918507406321516,0.04411926159043056,0.04703313542053027,5.0
0.49021102972323455,-0.40026142680805027,0.1404569070927039,-0.05961250126461277,0.034062758912162996,0.06434608250368291,5.0
0.4830049878555831,-0.397132369266664,0.17937136327169545,-0.07328295687602264,0.04851898109293547,0.03073859616733042,5.0
0.49741707159088655,-0.4096486268187031,0.13489769906713367,-0.06595949819375839,0.05166163812000306,-0.007960935529432701,5.0
0.49741707159088655,-0.41903581313610916,0.14601611511827414,-0.06205365415870085,0.06423226694696568,0.008333604403056593,5.0
0.49021102972323455,-0.41277769805333653,0.1404569070927039,-0.052289044071057,0.04663338702043336,-0.025273884165246986,5.0
0.49021102972323455,-0.41903581313610916,0.12377927997500401,-0.038618588459647135,0.05040457540500166,-0.0008320737327856157,5.0
0.4866080087894085,-0.4252939556053756,0.0904240295408408,-0.027389284253616874,0.0648607978253382,-0.054807734523803324,5.0
0.49021102972323455,-0.41903581313610916,0.0904240295408408,-0.02348344319597626,0.042862197917172815,-0.045642056290919754,5.0
0.47940196692175713,-0.4096486268187031,0.10154244635222856,-0.02348344319597626,0.03029156980890244,-0.047678875056148644,5.0
0.49741707159088655,-0.4096486268187031,0.1404569070927039,-0.03520097232373195,0.034691290748791875,-0.00592411676420381,5.0
0.49381405065705997,-0.4033904980426837,0.10154244635222856,-0.0371538958299692,0.0522901695972858,-0.014071387167134535,5.0
0.5010200925247148,-0.397132369266664,0.10154244635222856,-0.06498303792934824,0.06423226694696568,-0.035457968675421746,5.0
0.4830049878555831,-0.40026142680805027,0.11822007194943382,-0.08890633450496128,0.0522901695972858,-0.00897934335938553,5.0
0.4866080087894085,-0.38774516925601116,0.10710165589829337,-0.11380609283369296,0.0390910097721686,-0.014071387167134535,5.0
0.4866080087894085,-0.3720998404693387,0.09598323832665834,-0.1113649384508964,0.05983254648620443,0.003241560692348942,5.0
0.49381405065705997,-0.3783579829386052,0.1126608639238636,-0.11429432371025226,0.05920401512870373,0.02564655235958142,5.0
0.5046231134585408,-0.38774516925601116,0.10154244635222856,-0.11478255458681158,0.06863198692859876,0.039904272847552366,5.0
0.5082261343923663,-0.40026142680805027,0.0904240295408408,-0.12161778090380804,0.06171814055870653,0.01953609994554878,5.0
0.49021102972323455,-0.4096486268187031,0.11822007194943382,-0.10697086502798801,0.05920401512870373,0.0174992827329815,5.0
0.49021102972323455,-0.4315520706881485,0.12377927997500401,-0.08988279551372567,0.06046107784370513,0.012407239313397904,5.0
0.49381405065705997,-0.4221648843707424,0.1126608639238636,-0.07816526229202168,0.054804295266852696,0.012407239313397904,5.0
0.5010200925247148,-0.41903581313610916,0.10710165589829337,-0.06156542328214154,0.04851898109293547,-0.002868891721683698,5.0
0.4830049878555831,-0.397132369266664,0.08486482113514694,-0.06498303792934824,0.049147512450436165,0.01953609994554878,5.0
0.4830049878555831,-0.41277769805333653,0.0904240295408408,-0.05424196459987728,0.03594835250553693,0.03073859616733042,5.0
0.49021102972323455,-0.4096486268187031,0.1404569070927039,-0.04447735302352497,0.05417576384946097,0.01851769133926514,5.0
0.49021102972323455,-0.41277769805333653,0.10710165589829337,-0.03666566495340988,0.06297520327370794,-0.014071387167134535,5.0
0.49021102972323455,-0.41903581313610916,0.1404569070927039,-0.03520097232373195,0.05040457540500166,0.0022231520860653046,5.0
0.49021102972323455,-0.41277769805333653,0.11822007194943382,-0.05375373372331798,0.05731842105620163,-0.034439562398130556,5.0
0.5010200925247148,-0.397132369266664,0.12377927997500401,-0.05521842635299592,0.04097660432379888,0.00018633487349802345,5.0
0.5010200925247148,-0.397132369266664,0.10154244635222856,-0.06986534297317018,0.03971954160879748,0.0022231520860653046,5.0
0.5046231134585408,-0.397132369266664,0.0904240295408408,-0.07670057077887511,0.04160513520217141,0.005278378293081622,5.0
0.5010200925247148,-0.41277769805333653,0.1293384880005743,-0.085976951106491,0.057946952413702325,0.02055450855183242,5.0
0.49741707159088655,-0.4096486268187031,0.11822007194943382,-0.08451225940725587,0.06926051780697129,-0.031384334250287194,5.0
0.49381405065705997,-0.4096486268187031,0.11822007194943382,-0.08548872060210881,0.06548932966196708,-0.006942526146818255,5.0
0.49021102972323455,-0.41903581313610916,0.11822007194943382,-0.06498303792934824,0.05920401512870373,-0.018145021592269092,5.0
0.49021102972323455,-0.41903581313610916,0.1293384880005743,-0.06888888196440579,0.04349072975380169,0.0012047434797816654,5.0
0.5046231134585408,-0.397132369266664,0.10154244635222856,-0.07279472599946334,0.047261918377934066,0.006296786899365262,5.0
0.49741707159088655,-0.397132369266664,0.10154244635222856,-0.07914172330078607,0.049147512450436165,0.01851769133926514,5.0
0.4830049878555831,-0.39400329803203077,0.13489769906713367,-0.09134748739904937,0.07491730146186212,0.03481223059246498,5.0
0.4830049878555831,-0.397132369266664,0.11822007194943382,-0.09232394840781376,0.07491730146186212,0.035830638422417814,5.0
0.49021102972323455,-0.4096486268187031,0.13489769906713367,-0.08548872060210881,0.07805995681198111,0.011388830513031563,5.0
0.4830049878555831,-0.4252939556053756,0.1404569070927039,-0.08890633450496128,0.067374923255341,0.012407239313397904,5.0
0.4866080087894085,-0.4221648843707424,0.1293384880005743,-0.07425941788478703,0.03971954160879748,-0.018145021592269092,5.0
0.4830049878555831,-0.41903581313610916,0.11822007194943382,-0.0605889630177314,0.042862197917172815,-0.00592411676420381,5.0
0.4830049878555831,-0.41277769805333653,0.11822007194943382,-0.05570665722955524,0.049147512450436165,-0.014071387167134535,5.0
0.4830049878555831,-0.41903581313610916,0.10154244635222856,-0.043500894247823295,0.05668988945913684,-0.006942526146818255,5.0
0.4866080087894085,-0.40651955558406994,0.11822007194943382,-0.030806900389532044,0.047261918377934066,-0.011016160571952814,5.0
0.49381405065705997,-0.3908742404906444,0.10154244635222856,-0.03275982091835235,0.05166163812000306,-0.017126612209654647,5.0
0.49381405065705997,-0.39400329803203077,0.11822007194943382,-0.03373628267147097,0.0390910097721686,0.01953609994554878,5.0
0.49741707159088655,-0.39400329803203077,0.11822007194943382,-0.026412822500498243,0.0390910097721686,0.00018633487349802345,5.0
0.49381405065705997,-0.38774516925601116,0.10154244635222856,-0.028365746006735488,0.049147512450436165,0.0225913257643997,5.0
0.49741707159088655,-0.38461611171462473,0.10154244635222856,-0.038618588459647135,0.05731842105620163,0.004259969686797984,5.0
0.49741707159088655,-0.3783579829386052,0.1293384880005743,-0.051800813194497676,0.06611786054033962,-0.0008320737327856157,5.0
0.49381405065705997,-0.38461611171462473,0.11822007194943382,-0.07767703178763949,0.07240317411534661,0.015462465520414224,5.0
0.49021102972323455,-0.397132369266664,0.1126608639238636,-0.08890633450496128,0.07051758052197268,0.02564655235958142,5.0
0.47219592505410285,-0.38774516925601116,0.11822007194943382,-0.07914172330078607,0.06423226694696568,0.003241560692348942,5.0
0.47940196692175713,-0.397132369266664,0.11822007194943382,-0.08451225940725587,0.05417576384946097,-0.002868891721683698,5.0
0.4830049878555831,-0.4033904980426837,0.11822007194943382,-0.08304756780106501,0.06046107784370513,-0.0008320737327856157,5.0
0.49741707159088655,-0.397132369266664,0.11822007194943382,-0.08500049009772662,0.05668988945913684,-0.00897934335938553,5.0
0.49021102972323455,-0.4033904980426837,0.12377927997500401,-0.0762123399023158,0.05417576384946097,0.0225913257643997,5.0
0.4866080087894085,-0.41277769805333653,0.10710165589829337,-0.07914172330078607,0.05731842105620163,0.008333604403056593,5.0
0.49381405065705997,-0.397132369266664,0.09598323832665834,-0.0752358788935514,0.05417576384946097,0.013425647919681542,5.0
0.49381405065705997,-0.397132369266664,0.09598323832665834,-0.08548872060210881,0.05543282674413544,-0.011016160571952814,5.0
0.49381405065705997,-0.397132369266664,0.10154244635222856,-0.10111209748669323,0.04977604380793687,0.02055450855183242,5.0
0.49741707159088655,-0.38774516925601116,0.05706877910667759,-0.09818271520475431,0.0698890486853438,0.04703313542053027,5.0
0.49741707159088655,-0.38774516925601116,0.05706877910667759,-0.09671802257507636,0.06674639237696847,0.06332767312106849,5.0
0.49741707159088655,-0.4096486268187031,0.10154244635222856,-0.08255933725016068,0.04600485518380449,0.031757003997283255,5.0
0.4866080087894085,-0.4096486268187031,0.10710165589829337,-0.07279472599946334,0.04349072975380169,-0.002868891721683698,5.0
0.49021102972323455,-0.41277769805333653,0.10710165589829337,-0.05814781012364331,0.05166163812000306,-0.012034569954567255,5.0
0.49021102972323455,-0.41590674190147603,0.10154244635222856,-0.07230649586725825,0.05731842105620163,-0.047678875056148644,5.0
0.49021102972323455,-0.4096486268187031,0.11822007194943382,-0.061077192405582216,0.05166163812000306,0.005278378293081622,5.0
0.4830049878555831,-0.39400329803203077,0.1404569070927039,-0.060100732141172085,0.06046107784370513,0.00018633487349802345,5.0
0.4830049878555831,-0.38461611171462473,0.14601611511827414,-0.07425941788478703,0.0390910097721686,-0.006942526146818255,5.0
0.4830049878555831,-0.38148704047999155,0.1293384880005743,-0.07865349279640388,0.056061358101636136,0.028701778954763144,5.0
0.5010200925247148,-0.39400329803203077,0.11822007194943382,-0.08500049009772662,0.06171814055870653,0.0174992827329815,5.0
0.5010200925247148,-0.39400329803203077,0.1126608639238636,-0.06498303792934824,0.07931702048523885,-0.012034569954567255,5.0
0.4830049878555831,-0.4033904980426837,0.1515753231438443,-0.08353579839849148,0.07743142689186491,-0.02629229044253821,5.0
0.4757989459879288,-0.397132369266664,0.1404569070927039,-0.07425941788478703,0.04977604380793687,0.02055450855183242,5.0
0.47219592505410285,-0.39400329803203077,0.1515753231438443,-0.050824351441379076,0.04851898109293547,0.0174992827329815,5.0
0.4757989459879288,-0.4033904980426837,0.1126608639238636,-0.04984788968826044,0.030920101645531328,0.0174992827329815,5.0
0.49021102972323455,-0.4033904980426837,0.1404569070927039,-0.0605889630177314,0.04537632430543196,-0.00592411676420381,5.0
0.49741707159088655,-0.38774516925601116,0.1126608639238636,-0.07279472599946334,0.0636037351103368,0.02564655235958142,5.0
0.49741707159088655,-0.3908742404906444,0.1404569070927039,-0.08841810362840197,0.06674639237696847,0.021572917934446864,5.0
0.49021102972323455,-0.397132369266664,0.0904240295408408,-0.07718880128325731,0.047261918377934066,0.007315195699731603,5.0
0.4866080087894085,-0.39400329803203077,0.1126608639238636,-0.07230649586725825,0.05291870101467752,0.013425647919681542,5.0
0.49021102972323455,-0.397132369266664,0.16269373919498475,-0.05814781012364331,0.04851898109293547,0.006296786899365262,5.0
0.49381405065705997,-0.38774516925601116,0.1404569070927039,-0.049359658811701124,0.04851898109293547,0.0174992827329815,5.0
0.49741707159088655,-0.4033904980426837,0.11822007194943382,-0.05814781012364331,0.05731842105620163,0.026664961742195865,5.0
0.49021102972323455,-0.40651955558406994,0.1404569070927039,-0.051800813194497676,0.042233667038800285,0.0022231520860653046,5.0
0.4866080087894085,-0.4096486268187031,0.13489769906713367,-0.04057150898846742,0.05668988945913684,-0.0008320737327856157,5.0
0.49021102972323455,-0.4033904980426837,0.1293384880005743,-0.05717134837052469,0.04663338702043336,-0.03749478744065064,5.0
0.5010200925247148,-0.397132369266664,0.12377927997500401,-0.06254188503526018,0.04789044973543476,-0.021200246634789203,5.0
0.5010200925247148,-0.38774516925601116,0.1293384880005743,-0.06693595994687701,0.04160513520217141,0.0276833695721487,5.0
0.5082261343923663,-0.3720998404693387,0.1515753231438443,-0.06888888196440579,0.05291870101467752,0.0225913257643997,5.0
0.49021102972323455,-0.38774516925601116,0.13489769906713367,-0.06449480705278894,0.05668988945913684,0.021572917934446864,5.0
0.49021102972323455,-0.38774516925601116,0.13489769906713367,-0.07767703178763949,0.05417576384946097,0.04397791037801015,5.0
0.49021102972323455,-0.38461611171462473,0.10154244635222856,-0.07230649586725825,0.05166163812000306,0.033793822762512145,5.0
0.49021102972323455,-0.36584171169331914,0.1293384880005743,-0.08011818449563901,0.056061358101636136,0.048051544803144705,5.0
0.49741707159088655,-0.39400329803203077,0.10710165589829337,-0.08939456463716636,0.06297520327370794,0.06129085746116283,5.0
0.5010200925247148,-0.40026142680805027,0.1126608639238636,-0.08939456463716636,0.0636037351103368,0.031757003997283255,5.0
0.49381405065705997,-0.41590674190147603,0.15713453116941456,-0.07425941788478703,0.06674639237696847,0.0012047434797816654,5.0
0.5010200925247148,-0.3908742404906444,0.15713453116941456,-0.08158287614835201,0.054804295266852696,0.0276833695721487,5.0
0.5010200925247148,-0.38148704047999155,0.10154244635222856,-0.08548872060210881,0.067374923255341,0.029720186784715975,5.0
0.49021102972323455,-0.40026142680805027,0.11822007194943382,-0.08011818449563901,0.0698890486853438,0.05110676984566482,5.0
0.49741707159088655,-0.39400329803203077,0.1293384880005743,-0.06742419082343633,0.04411926159043056,0.06332767312106849,5.0
0.49021102972323455,-0.39400329803203077,0.10710165589829337,-0.06986534297317018,0.05291870101467752,0.031757003997283255,5.0
0.49021102972323455,-0.38774516925601116,0.1126608639238636,-0.06644772907031771,0.03846247793553973,0.039904272847552366,5.0
0.49381405065705997,-0.39400329803203077,0.10154244635222856,-0.09134748739904937,0.04663338702043336,0.031757003997283255,5.0
0.4866080087894085,-0.4033904980426837,0.13489769906713367,-0.07377118700822771,0.04789044973543476,0.003241560692348942,5.0
0.49381405065705997,-0.4033904980426837,0.11822007194943382,-0.08255933725016068,0.057946952413702325,0.01953609994554878,5.0
0.49741707159088655,-0.397132369266664,0.08486482113514694,-0.07670057077887511,0.06548932966196708,0.029720186784715975,5.0
0.49021102972323455,-0.4033904980426837,0.11822007194943382,-0.06205365415870085,0.0522901695972858,0.03073859616733042,5.0
0.49021102972323455,-0.41277769805333653,0.1404569070927039,-0.05912427038805345,0.054804295266852696,0.028701778954763144,5.0
0.49741707159088655,-0.4096486268187031,0.1293384880005743,-0.05521842635299592,0.07303170595197549,0.012407239313397904,5.0
0.5010200925247148,-0.4033904980426837,0.12377927997500401,-0.07670057077887511,0.067374923255341,0.006296786899365262,5.0
0.49021102972323455,-0.39400329803203077,0.10710165589829337,-0.07133003485849387,0.04349072975380169,0.016480874126697864,5.0
0.49021102972323455,-0.38774516925601116,0.1293384880005743,-0.07670057077887511,0.04600485518380449,0.011388830513031563,5.0
0.49021102972323455,-0.4033904980426837,0.09598323832665834,-0.06644772907031771,0.05983254648620443,0.024628142976966975,5.0
0.49741707159088655,-0.4096486268187031,0.13489769906713367,-0.05961250126461277,0.05731842105620163,0.03481223059246498,5.0
0.5010200925247148,-0.4096486268187031,0.11822007194943382,-0.0635183452996703,0.05417576384946097,0.033793822762512145,5.0
0.5046231134585408,-0.41903581313610916,0.10154244635222856,-0.0635183452996703,0.06234667239533541,0.033793822762512145,5.0
0.4866080087894085,-0.41903581313610916,0.13489769906713367,-0.0605889630177314,0.05983254648620443,0.035830638422417814,5.0
0.49021102972323455,-0.39400329803203077,0.13489769906713367,-0.060100732141172085,0.05983254648620443,0.037867457187646704,5.0
0.4866080087894085,-0.39400329803203077,0.1293384880005743,-0.05912427038805345,0.05731842105620163,-0.006942526146818255,5.0
0.49381405065705997,-0.40651955558406994,0.11822007194943382,-0.06303011591181948,0.04977604380793687,0.016480874126697864,5.0
0.5010200925247148,-0.397132369266664,0.0904240295408408,-0.08500049009772662,0.05291870101467752,0.04092268223016681,5.0
0.5010200925247148,-0.397132369266664,0.0904240295408408,-0.07914172330078607,0.07051758052197268,0.041941091612781256,5.0
0.49021102972323455,-0.40651955558406994,0.15713453116941456,-0.06791242021128717,0.0636037351103368,0.01851769133926514,5.0
0.5010200925247148,-0.4033904980426837,0.12377927997500401,-0.07279472599946334,0.04600485518380449,0.008333604403056593,5.0
0.5010200925247148,-0.4033904980426837,0.12377927997500401,-0.08500049009772662,0.04851898109293547,0.003241560692348942,5.0
0.4830049878555831,-0.397132369266664,0.11822007194943382,-0.08890633450496128,0.06611786054033962,0.007315195699731603,5.0
0.4830049878555831,-0.397132369266664,0.11822007194943382,-0.08988279551372567,0.06297520327370794,0.0012047434797816654,5.0
0.49021102972323455,-0.4096486268187031,0.0904240295408408,-0.0806064150000212,0.047261918377934066,0.02564655235958142,5.0
0.5010200925247148,-0.4252939556053756,0.16825294722055503,-0.07181826499069895,0.04789044973543476,0.007315195699731603,5.0
0.49741707159088655,-0.4252939556053756,0.1404569070927039,-0.07181826499069895,0.051033106762502355,0.010370421809706572,5.0
0.49381405065705997,-0.41903581313610916,0.12377927997500401,-0.0693771128409651,0.057946952413702325,0.003241560692348942,5.0
0.4830049878555831,-0.4096486268187031,0.1404569070927039,-0.0635183452996703,0.04663338702043336,0.041941091612781256,5.0
0.47219592505410285,-0.4096486268187031,0.16825294722055503,-0.06400657617622961,0.06548932966196708,0.0225913257643997,5.0
0.4866080087894085,-0.41590674190147603,0.17381215524612523,-0.03520097232373195,0.04977604380793687,0.06740131065152627,5.0
0.4866080087894085,-0.4033904980426837,0.15713453116941456,-0.03520097232373195,0.04411926159043056,0.06230926373845405,5.0
0.4830049878555831,-0.3908742404906444,0.1404569070927039,-0.0459420456532029,0.04600485518380449,0.026664961742195865,5.0
0.49381405065705997,-0.38461611171462473,0.11822007194943382,-0.06840065108784647,0.07491730146186212,0.05416199488818491,5.0
0.49021102972323455,-0.3720998404693387,0.1404569070927039,-0.08255933725016068,0.06863198692859876,0.06434608250368291,5.0
0.4866080087894085,-0.38774516925601116,0.1293384880005743,-0.08158287614835201,0.06171814055870653,0.04906995108043593,5.0
0.4757989459879288,-0.40026142680805027,0.0904240295408408,-0.07133003485849387,0.06423226694696568,0.028701778954763144,5.0
0.49021102972323455,-0.40026142680805027,0.1293384880005743,-0.0635183452996703,0.04663338702043336,0.028701778954763144,5.0
0.4830049878555831,-0.38461611171462473,0.1293384880005743,-0.07328295687602264,0.0636037351103368,0.012407239313397904,5.0
0.4866080087894085,-0.38774516925601116,0.1404569070927039,-0.08353579839849148,0.06234667239533541,0.029720186784715975,5.0
0.49021102972323455,-0.38774516925601116,0.10154244635222856,-0.07425941788478703,0.054804295266852696,0.05416199488818491,5.0
0.49381405065705997,-0.41277769805333653,0.1293384880005743,-0.05424196459987728,0.05857548377120303,0.05212517922827926,5.0
0.5010200925247148,-0.4033904980426837,0.12377927997500401,-0.046918507406321516,0.049147512450436165,0.04499631665530138,5.0
0.5010200925247148,-0.40026142680805027,0.1515753231438443,-0.06595949819375839,0.04097660432379888,0.048051544803144705,5.0
0.49741707159088655,-0.4033904980426837,0.1404569070927039,-0.07816526229202168,0.06423226694696568,0.03684904780503226,5.0
0.5010200925247148,-0.4096486268187031,0.09598323832665834,-0.09037102639028498,0.054804295266852696,0.0174992827329815,5.0
0.5010200925247148,-0.4096486268187031,0.11822007194943382,-0.07914172330078607,0.04977604380793687,0.04397791037801015,5.0
0.5010200925247148,-0.41590674190147603,0.12377927997500401,-0.06205365415870085,0.06046107784370513,0.0174992827329815,5.0
0.49741707159088655,-0.4096486268187031,0.10154244635222856,-0.0635183452996703,0.042862197917172815,0.03888586657026114,5.0
0.49021102972323455,-0.4033904980426837,0.11822007194943382,-0.07572410977011072,0.0648607978253382,0.039904272847552366,5.0
0.47940196692175713,-0.40026142680805027,0.10154244635222856,-0.07767703178763949,0.07177464419523043,0.015462465520414224,5.0
0.4830049878555831,-0.41903581313610916,0.1293384880005743,-0.08353579839849148,0.0365768843421658,0.003241560692348942,5.0
0.4830049878555831,-0.41590674190147603,0.15713453116941456,-0.07425941788478703,0.04097660432379888,0.0174992827329815,5.0
0.49381405065705997,-0.41590674190147603,0.12377927997500401,-0.0693771128409651,0.04034807248717001,0.021572917934446864,5.0
0.5010200925247148,-0.41590674190147603,0.11822007194943382,-0.04789496915944014,0.04537632430543196,0.0174992827329815,5.0
0.5010200925247148,-0.40026142680805027,0.10154244635222856,-0.061077192405582216,0.06800345509196988,0.026664961742195865,5.0
0.49381405065705997,-0.41590674190147603,0.09598323832665834,-0.0869534121152554,0.04977604380793687,0.02055450855183242,5.0
0.49741707159088655,-0.41903581313610916,0.0737464043237592,-0.07914172330078607,0.06423226694696568,0.006296786899365262,5.0
0.4866080087894085,-0.4096486268187031,0.1293384880005743,-0.0693771128409651,0.047261918377934066,0.026664961742195865,5.0
0.49741707159088655,-0.41590674190147603,0.11822007194943382,-0.06400657617622961,0.0648607978253382,0.0022231520860653046,5.0
0.49381405065705997,-0.4096486268187031,0.1404569070927039,-0.07230649586725825,0.07051758052197268,0.015462465520414224,5.0
0.49021102972323455,-0.4033904980426837,0.11822007194943382,-0.06888888196440579,0.06548932966196708,0.04397791037801015,5.0
0.49741707159088655,-0.4096486268187031,0.1404569070927039,-0.07328295687602264,0.07303170595197549,0.021572917934446864,5.0
0.4830049878555831,-0.4096486268187031,0.0904240295408408,-0.05765957924708401,0.0390910097721686,0.0327754133798977,5.0
0.49381405065705997,-0.40651955558406994,0.12377927997500401,-0.045453814776643585,0.042862197917172815,0.015462465520414224,5.0
0.49381405065705997,-0.397132369266664,0.09598323832665834,-0.05570665722955524,0.07114611235860156,0.04092268223016681,5.0
0.49021102972323455,-0.40651955558406994,0.11822007194943382,-0.07718880128325731,0.05166163812000306,0.039904272847552366,5.0
0.49381405065705997,-0.4252939556053756,0.14601611511827414,-0.08353579839849148,0.04663338702043336,0.01851769133926514,5.0
0.5010200925247148,-0.4315520706881485,0.10710165589829337,-0.06888888196440579,0.04600485518380449,0.012407239313397904,5.0
0.49741707159088655,-0.41903581313610916,0.10710165589829337,-0.0762123399023158,0.05417576384946097,0.005278378293081622,5.0
0.49021102972323455,-0.4096486268187031,0.13489769906713367,-0.07377118700822771,0.067374923255341,0.010370421809706572,5.0
0.49021102972323455,-0.4096486268187031,0.13489769906713367,-0.07377118700822771,0.067374923255341,0.010370421809706572,5.0
0.47940196692175713,-0.4315520706881485,0.11822007194943382,-0.07718880128325731,0.04789044973543476,-0.006942526146818255,5.0
0.49021102972323455,-0.4346811419227817,0.0737464043237592,-0.07572410977011072,0.035319820668908056,-0.027310699825152638,5.0
0.49741707159088655,-0.4252939556053756,0.0904240295408408,-0.05521842635299592,0.03029156980890244,-0.047678875056148644,5.0
0.49741707159088655,-0.41590674190147603,0.1293384880005743,-0.07230649586725825,0.049147512450436165,-0.03749478744065064,5.0
0.5010200925247148,-0.4315520706881485,0.1293384880005743,-0.05863603951149415,0.04851898109293547,-0.018145021592269092,5.0
0.49381405065705997,-0.41277769805333653,0.14601611511827414,-0.07865349279640388,0.06171814055870653,0.015462465520414224,5.0
0.49021102972323455,-0.4221648843707424,0.10154244635222856,-0.07962995399125683,0.04977604380793687,0.016480874126697864,5.0
0.49021102972323455,-0.4252939556053756,0.10154244635222856,-0.07865349279640388,0.042233667038800285,0.004259969686797984,5.0
0.49021102972323455,-0.41903581313610916,0.10710165589829337,-0.08011818449563901,0.05731842105620163,-0.014071387167134535,5.0
0.4866080087894085,-0.41903581313610916,0.1126608639238636,-0.09281217854001883,0.06297520327370794,-0.00897934335938553,5.0
0.4830049878555831,-0.4096486268187031,0.1126608639238636,-0.09622979318722553,0.08183114591524167,-0.006942526146818255,5.0
0.49741707159088655,-0.40026142680805027,0.11822007194943382,-0.09622979318722553,0.0636037351103368,0.039904272847552366,5.0
0.49021102972323455,-0.397132369266664,0.10154244635222856,-0.09183571753125444,0.051033106762502355,0.02360973514701414,5.0
0.49021102972323455,-0.397132369266664,0.1126608639238636,-0.08939456463716636,0.06297520327370794,0.029720186784715975,5.0
0.49381405065705997,-0.41277769805333653,0.1126608639238636,-0.08744164261963759,0.08057408415849661,0.03481223059246498,5.0
0.49021102972323455,-0.41277769805333653,0.10154244635222856,-0.08109464559744768,0.06926051780697129,-0.014071387167134535,5.0
0.47940196692175713,-0.41590674190147603,0.1404569070927039,-0.07425941788478703,0.05291870101467752,-0.011016160571952814,5.0
0.4866080087894085,-0.4096486268187031,0.14601611511827414,-0.07767703178763949,0.05417576384946097,-0.025273884165246986,5.0
0.5010200925247148,-0.39400329803203077,0.13489769906713367,-0.06547126731719909,0.05040457540500166,0.028701778954763144,5.0
0.5082261343923663,-0.38774516925601116,0.12377927997500401,-0.08353579839849148,0.08245967775187052,0.0561988136534138,5.0
0.49381405065705997,-0.397132369266664,0.11822007194943382,-0.06400657617622961,0.05983254648620443,0.0561988136534138,5.0
0.46859290412027743,-0.40651955558406994,0.1293384880005743,-0.06156542328214154,0.06423226694696568,0.07249335135395206,5.0
0.4830049878555831,-0.4096486268187031,0.13489769906713367,-0.05570665722955524,0.05731842105620163,0.055180404270799385,5.0
0.49021102972323455,-0.4033904980426837,0.11822007194943382,-0.04301266337126398,0.04160513520217141,0.008333604403056593,5.0
0.4866080087894085,-0.38148704047999155,0.09598323832665834,-0.0439891251243826,0.04977604380793687,0.037867457187646704,5.0
0.49021102972323455,-0.3908742404906444,0.10710165589829337,-0.0693771128409651,0.06926051780697129,0.04499631665530138,5.0
0.4830049878555831,-0.397132369266664,0.12377927997500401,-0.07133003485849387,0.07680289505523605,0.05008836046305036,5.0
0.49021102972323455,-0.4033904980426837,0.12377927997500401,-0.05863603951149415,0.0365768843421658,0.048051544803144705,5.0
0.49021102972323455,-0.4033904980426837,0.12377927997500401,-0.05863603951149415,0.0365768843421658,0.048051544803144705,5.0
0.49381405065705997,-0.40026142680805027,0.11822007194943382,-0.07914172330078607,0.0636037351103368,0.016480874126697864,5.0
0.5010200925247148,-0.41590674190147603,0.1293384880005743,-0.07914172330078607,0.08560233501850222,0.058235632418642706,5.0
0.49021102972323455,-0.40651955558406994,0.1293384880005743,-0.08890633450496128,0.06800345509196988,0.048051544803144705,5.0
0.49021102972323455,-0.41903581313610916,0.13489769906713367,-0.07670057077887511,0.04851898109293547,0.04397791037801015,5.0
0.4866080087894085,-0.4252939556053756,0.1404569070927039,-0.0605889630177314,0.04034807248717001,-0.0038872995516365315,5.0
0.4866080087894085,-0.4252939556053756,0.1293384880005743,-0.06498303792934824,0.033434227075534124,0.010370421809706572,5.0
0.4866080087894085,-0.4096486268187031,0.1404569070927039,-0.0752358788935514,0.05857548377120303,0.011388830513031563,5.0
0.4830049878555831,-0.4096486268187031,0.1293384880005743,-0.08451225940725587,0.0698890486853438,0.04499631665530138,5.0
0.49381405065705997,-0.397132369266664,0.1293384880005743,-0.08939456463716636,0.05668988945913684,0.05416199488818491,5.0
0.49021102972323455,-0.41903581313610916,0.1126608639238636,-0.07816526229202168,0.04789044973543476,0.0857326671172934,5.0
0.49021102972323455,-0.4315520706881485,0.17381215524612523,-0.06498303792934824,0.057946952413702325,0.0663829012689118,5.0
0.4830049878555831,-0.4346811419227817,0.1404569070927039,-0.054730195476436615,0.06046107784370513,0.037867457187646704,5.0
0.49021102972323455,-0.4221648843707424,0.1126608639238636,-0.0605889630177314,0.06234667239533541,0.05212517922827926,5.0
0.4757989459879288,-0.40026142680805027,0.11822007194943382,-0.06498303792934824,0.0522901695972858,0.05110676984566482,5.0
0.49741707159088655,-0.4096486268187031,0.11822007194943382,-0.061077192405582216,0.05291870101467752,0.03888586657026114,5.0
0.49381405065705997,-0.4096486268187031,0.13489769906713367,-0.0693771128409651,0.06611786054033962,0.0327754133798977,5.0
0.49381405065705997,-0.41903581313610916,0.12377927997500401,-0.07133003485849387,0.05731842105620163,0.02564655235958142,5.0
0.49021102972323455,-0.4033904980426837,0.10154244635222856,-0.08011818449563901,0.05731842105620163,0.04703313542053027,5.0
0.49021102972323455,-0.41277769805333653,0.15713453116941456,-0.08304756780106501,0.042233667038800285,0.0327754133798977,5.0
0.4830049878555831,-0.4221648843707424,0.1293384880005743,-0.0752358788935514,0.042862197917172815,0.0276833695721487,5.0
0.49741707159088655,-0.41277769805333653,0.10154244635222856,-0.07572410977011072,0.049147512450436165,0.011388830513031563,5.0
0.5010200925247148,-0.41903581313610916,0.10154244635222856,-0.06791242021128717,0.05857548377120303,0.026664961742195865,5.0
0.49381405065705997,-0.41903581313610916,0.10154244635222856,-0.08939456463716636,0.05857548377120303,0.015462465520414224,5.0
0.49021102972323455,-0.41903581313610916,0.1293384880005743,-0.0806064150000212,0.05291870101467752,0.014444056525965181,5.0
0.49741707159088655,-0.41903581313610916,0.1126608639238636,-0.07718880128325731,0.0522901695972858,0.0276833695721487,5.0
0.5082261343923663,-0.40651955558406994,0.11822007194943382,-0.09183571753125444,0.056061358101636136,0.048051544803144705,5.0
0.5010200925247148,-0.40026142680805027,0.11822007194943382,-0.08255933725016068,0.08748792861187613,0.0225913257643997,5.0
0.5010200925247148,-0.40026142680805027,0.11822007194943382,-0.09330040941657813,0.06611786054033962,0.03073859616733042,5.0
0.5010200925247148,-0.40026142680805027,0.11822007194943382,-0.08744164261963759,0.04474779246880309,0.02564655235958142,5.0
0.49021102972323455,-0.41903581313610916,0.1404569070927039,-0.07084180398193456,0.051033106762502355,0.06536449188629738,5.0
0.5010200925247148,-0.43781021315741486,0.1293384880005743,-0.07230649586725825,0.04663338702043336,0.0174992827329815,5.0
0.5010200925247148,-0.4315520706881485,0.1293384880005743,-0.06254188503526018,0.05731842105620163,0.01851769133926514,5.0
0.5010200925247148,-0.41590674190147603,0.1515753231438443,-0.0527772749476163,0.06297520327370794,0.033793822762512145,5.0
0.49021102972323455,-0.4252939556053756,0.14601611511827414,-0.06595949819375839,0.033434227075534124,0.042959500995395715,5.0
0.4830049878555831,-0.41903581313610916,0.10710165589829337,-0.06888888196440579,0.04349072975380169,0.010370421809706572,5.0
0.5082261343923663,-0.4315520706881485,0.11822007194943382,-0.08744164261963759,0.04537632430543196,0.00018633487349802345,5.0
0.5046231134585408,-0.41903581313610916,0.14601611511827414,-0.0806064150000212,0.06926051780697129,-0.009997752741999977,5.0
0.49021102972323455,-0.4284229994535151,0.1404569070927039,-0.07425941788478703,0.06234667239533541,0.005278378293081622,5.0
0.49021102972323455,-0.4315520706881485,0.16269373919498475,-0.05717134837052469,0.04411926159043056,0.0174992827329815,5.0
0.49021102972323455,-0.4252939556053756,0.15713453116941456,-0.05814781012364331,0.04160513520217141,-0.0008320737327856157,5.0
0.4866080087894085,-0.4221648843707424,0.11822007194943382,-0.07035357310537525,0.04789044973543476,0.010370421809706572,5.0
0.4866080087894085,-0.4221648843707424,0.11822007194943382,-0.07474764876134633,0.07366023778860437,-0.028329109207767104,5.0
0.49021102972323455,-0.4252939556053756,0.0904240295408408,-0.0806064150000212,0.06926051780697129,-0.017126612209654647,5.0
0.49021102972323455,-0.41590674190147603,0.11822007194943382,-0.07181826499069895,0.04349072975380169,0.005278378293081622,5.0
0.49021102972323455,-0.41590674190147603,0.11822007194943382,-0.0693771128409651,0.034691290748791875,0.01953609994554878,5.0
0.5046231134585408,-0.41277769805333653,0.12377927997500401,-0.07816526229202168,0.029663037972273574,-0.011016160571952814,5.0
0.5010200925247148,-0.41277769805333653,0.10154244635222856,-0.08402402890287368,0.051033106762502355,0.007315195699731603,5.0
0.5010200925247148,-0.41277769805333653,0.10154244635222856,-0.07425941788478703,0.0698890486853438,0.0012047434797816654,5.0
0.49381405065705997,-0.41277769805333653,0.11822007194943382,-0.08109464559744768,0.06297520327370794,0.02360973514701414,5.0
0.49381405065705997,-0.41277769805333653,0.1404569070927039,-0.07914172330078607,0.05291870101467752,0.015462465520414224,5.0
0.49381405065705997,-0.41277769805333653,0.1404569070927039,-0.06644772907031771,0.04851898109293547,0.008333604403056593,5.0
0.49021102972323455,-0.4315520706881485,0.1293384880005743,-0.0605889630177314,0.04789044973543476,-0.0038872995516365315,5.0
0.47940196692175713,-0.41590674190147603,0.12377927997500401,-0.0605889630177314,0.04474779246880309,-0.025273884165246986,5.0
0.49021102972323455,-0.4033904980426837,0.1293384880005743,-0.0693771128409651,0.05040457540500166,0.005278378293081622,5.0
0.49021102972323455,-0.4033904980426837,0.1293384880005743,-0.08744164261963759,0.051033106762502355,-0.00592411676420381,5.0
0.4866080087894085,-0.40651955558406994,0.10710165589829337,-0.08158287614835201,0.05291870101467752,0.007315195699731603,5.0
0.4757989459879288,-0.40651955558406994,0.1293384880005743,-0.06644772907031771,0.056061358101636136,0.0174992827329815,5.0
0.49021102972323455,-0.41903581313610916,0.09598323832665834,-0.06156542328214154,0.042862197917172815,-0.021200246634789203,5.0
0.5010200925247148,-0.41590674190147603,0.12377927997500401,-0.05619488810611454,0.04663338702043336,-0.02018184035749798,5.0
0.49021102972323455,-0.4033904980426837,0.10154244635222856,-0.06498303792934824,0.042862197917172815,0.005278378293081622,5.0
0.49021102972323455,-0.4096486268187031,0.13489769906713367,-0.06547126731719909,0.04537632430543196,0.0174992827329815,5.0
0.5010200925247148,-0.41277769805333653,0.08486482113514694,-0.05912427038805345,0.056061358101636136,-0.007960935529432701,5.0
0.4830049878555831,-0.4252939556053756,0.1404569070927039,-0.05717134837052469,0.04789044973543476,-0.006942526146818255,5.0
0.49741707159088655,-0.41903581313610916,0.12377927997500401,-0.06791242021128717,0.05291870101467752,-0.041568421865785195,5.0
0.5082261343923663,-0.41903581313610916,0.1126608639238636,-0.07328295687602264,0.06863198692859876,-0.014071387167134535,5.0
0.49741707159088655,-0.4096486268187031,0.12377927997500401,-0.07718880128325731,0.06800345509196988,-0.009997752741999977,5.0
0.49021102972323455,-0.41277769805333653,0.1293384880005743,-0.06595949819375839,0.06171814055870653,0.031757003997283255,5.0
0.49021102972323455,-0.4096486268187031,0.1293384880005743,-0.06303011591181948,0.056061358101636136,0.0327754133798977,5.0
0.5010200925247148,-0.41277769805333653,0.10154244635222856,-0.0527772749476163,0.035319820668908056,0.015462465520414224,5.0
0.4830049878555831,-0.38774516925601116,0.0904240295408408,-0.06742419082343633,0.04411926159043056,0.04499631665530138,5.0
0.49021102972323455,-0.41277769805333653,0.1404569070927039,-0.06986534297317018,0.04537632430543196,0.006296786899365262,5.0
0.4866080087894085,-0.40026142680805027,0.08486482113514694,-0.0869534121152554,0.03971954160879748,0.003241560692348942,5.0
0.49021102972323455,-0.40651955558406994,0.10710165589829337,-0.07572410977011072,0.05731842105620163,-0.009997752741999977,5.0
0.49741707159088655,-0.4096486268187031,0.11822007194943382,-0.0752358788935514,0.06171814055870653,0.012407239313397904,5.0
0.5118289030491352,-0.41277769805333653,0.06818719591806534,-0.07035357310537525,0.07051758052197268,0.003241560692348942,5.0
0.5010200925247148,-0.4033904980426837,0.10710165589829337,-0.0869534121152554,0.06297520327370794,0.029720186784715975,5.0
0.5010200925247148,-0.41277769805333653,0.11822007194943382,-0.07670057077887511,0.04537632430543196,0.003241560692348942,5.0
0.47940196692175713,-0.41277769805333653,0.09598323832665834,-0.06400657617622961,0.033434227075534124,-0.019163430974883534,5.0
0.49381405065705997,-0.41277769805333653,0.11822007194943382,-0.07279472599946334,0.056061358101636136,-0.00592411676420381,5.0
0.49381405065705997,-0.41903581313610916,0.11822007194943382,-0.07035357310537525,0.06863198692859876,0.029720186784715975,5.0
0.49741707159088655,-0.41903581313610916,0.10710165589829337,-0.06840065108784647,0.05857548377120303,0.026664961742195865,5.0
0.4830049878555831,-0.41903581313610916,0.1293384880005743,-0.06742419082343633,0.05668988945913684,0.04703313542053027,5.0
0.4866080087894085,-0.41277769805333653,0.10154244635222856,-0.06840065108784647,0.04349072975380169,-0.021200246634789203,5.0
0.49021102972323455,-0.4096486268187031,0.10154244635222856,-0.06547126731719909,0.054804295266852696,0.005278378293081622,5.0
0.49021102972323455,-0.4096486268187031,0.11822007194943382,-0.06156542328214154,0.057946952413702325,0.007315195699731603,5.0
0.4830049878555831,-0.4096486268187031,0.0904240295408408,-0.07035357310537525,0.07240317411534661,0.014444056525965181,5.0
0.4830049878555831,-0.41590674190147603,0.06818719591806534,-0.0605889630177314,0.06297520327370794,0.02055450855183242,5.0
0.4830049878555831,-0.4033904980426837,0.0737464043237592,-0.06986534297317018,0.05668988945913684,0.00018633487349802345,5.0
0.49021102972323455,-0.40651955558406994,0.10154244635222856,-0.049359658811701124,0.05731842105620163,-0.017126612209654647,5.0
0.49381405065705997,-0.4033904980426837,0.16269373919498475,-0.06303011591181948,0.07428876962523324,0.013425647919681542,5.0
0.49021102972323455,-0.4033904980426837,0.16269373919498475,-0.06400657617622961,0.05543282674413544,0.03684904780503226,5.0
0.49021102972323455,-0.4033904980426837,0.10154244635222856,-0.0752358788935514,0.05166163812000306,0.01953609994554878,5.0
0.4866080087894085,-0.4096486268187031,0.10154244635222856,-0.06888888196440579,0.05857548377120303,0.01953609994554878,5.0
0.49021102972323455,-0.40651955558406994,0.10154244635222856,-0.06595949819375839,0.06863198692859876,0.031757003997283255,5.0
0.49741707159088655,-0.4033904980426837,0.13489769906713367,-0.07181826499069895,0.05920401512870373,0.003241560692348942,5.0
0.5010200925247148,-0.4033904980426837,0.1293384880005743,-0.06986534297317018,0.04537632430543196,0.024628142976966975,5.0
0.4830049878555831,-0.4033904980426837,0.15713453116941456,-0.07133003485849387,0.04977604380793687,-0.006942526146818255,5.0
0.49021102972323455,-0.4096486268187031,0.0904240295408408,-0.054730195476436615,0.04663338702043336,0.04703313542053027,5.0
0.49021102972323455,-0.41277769805333653,0.10154244635222856,-0.05326550284675868,0.04663338702043336,0.0327754133798977,5.0
0.49381405065705997,-0.4033904980426837,0.1126608639238636,-0.06840065108784647,0.06423226694696568,-0.006942526146818255,5.0
0.5010200925247148,-0.4096486268187031,0.1126608639238636,-0.07670057077887511,0.06171814055870653,0.041941091612781256,5.0
0.49741707159088655,-0.41590674190147603,0.1515753231438443,-0.08548872060210881,0.056061358101636136,0.04499631665530138,5.0
