acc_x,acc_y,acc_z,gyro_x,gyro_y,gyro_z,activity
-1.3158727822327752,0.7263038385123823,2.4826289761616787,0.6734357343899651,2.6857701148429096,1.7062949412652733,0.0
-1.261754504758039,0.6025311784755142,2.5351530255619315,0.7300152037820791,2.0431533431308795,1.3306480018192681,0.0
-1.3429317630841173,0.24038154782507903,2.3810827258305016,-0.27514360161105667,-1.9154762623237986,3.361924216536269,0.0
-1.3429317630841173,0.24038154782507903,2.3810827258305016,-0.27514360161105667,-1.9154762623237986,3.361924216536269,0.0
-1.1986166722568732,0.26330241144499483,2.307549301846125,-0.015297124344791298,-1.549194074383997,3.161347164467504,0.0
-1.1986166722568732,0.26330241144499483,2.307549301846125,-0.015297124344791298,-1.549194074383997,3.161347164467504,0.0
-1.139988696211935,0.25871823922253695,2.2725332689126234,0.48344047241578436,-0.8064294164886167,2.1364338736169914,0.0
-1.1760675478617595,0.3091441374310131,2.3040476985527745,0.903944703959823,0.6661178044458556,1.365430067183156,0.0
-1.2482250932753813,0.33206499979711557,2.2550252524458725,0.41428779517616765,-0.7239000100557966,1.2796342380755166,0.0
-1.2437152368191535,0.23121320338016335,2.1499773988213446,-0.22275519866158097,-1.817182767233839,1.9752766766318748,0.0
-1.1309689832994794,0.25871823922253695,2.1779902251681458,-0.47212398852228077,-1.9738958701374336,2.2338238376404536,0.0
-1.0994001459919092,0.21746068671278984,2.206003051514947,-0.7228898289291534,-1.149529137076184,2.4552700384252635,0.0
-1.2121462416255573,0.23121320338016335,2.0554343550768674,-3.1467265633615944,0.03926522318115717,5.415229253654975,0.0
-1.2121462416255573,0.23121320338016335,2.0554343550768674,-3.936045255268131,1.091747021946414,2.4564293727273445,0.0
-0.7746911126875975,0.11660888277295767,2.293542888672724,-5.069031582901942,5.414804243287162,0.9480446040493412,0.0
-0.9415554857959814,-0.4289076417910441,2.7487503361043375,-4.446657555902093,4.7554962326113825,0.3532702031275988,0.0
-0.9415554857959814,-0.4289076417910441,2.7487503361043375,-1.3424700445026445,0.7338104534884867,0.0019707264054940306,0.0
-1.2662643612142672,-0.38306589950545256,2.3390634863102995,0.19285944542652686,1.8048381650614156,0.6523964828169942,0.0
-1.2301856674504694,-0.40140262851731034,2.3110509051394748,0.5155719960086576,3.0900713465647947,0.5422531061395591,0.0
-1.4060697534713094,-0.40140262851731034,2.2830380787926736,-0.05371528593976761,1.8892221435479666,0.6825409847168413,0.0
-1.4060697534713094,-0.40140262851731034,2.2830380787926736,-0.6893612292313439,1.0982380693745577,1.1312303971804432,0.0
-1.4331287343226513,-0.31430332619909157,2.374079519243801,-0.9254582987508366,0.7950120551029739,0.8657268909758025,0.0
-1.4331287343226513,-0.31430332619909157,2.374079519243801,-0.6139219480679757,0.6494264750019358,0.3184880811997809,0.0
-1.4105794520415111,-0.36472921061562114,2.3985907422972517,0.04198086606061495,0.060593047792027295,0.017042977355417464,0.0
-1.3474416195403451,-0.40140262851731034,2.3670763126571006,0.3961264873790301,-0.19905003405845598,0.12950518702593458,0.0
-1.3474416195403451,-0.40140262851731034,2.3670763126571006,0.47575682646544853,0.5066227529814942,0.4622542030800061,0.0
-1.3429317630841173,-0.36472921061562114,2.4090955521773023,0.3751710955287232,1.4385559771216139,1.0674632207827186,0.0
-1.369990901821485,-0.34639252172579005,2.4266035686440532,0.4450223108208079,2.0246074416332287,1.7851344251768513,0.0
-1.424109021410195,-0.30055081956222485,2.430105171937403,0.12999337211066164,1.190967757823154,1.475573500424521,0.0
-1.3339120501716608,-0.36472921061562114,2.297044491966074,-0.34918587482619184,0.24234320423911399,1.0315217079888903,0.0
-1.392540184102625,-0.3922342640113816,2.290041285379374,-0.10540517639553894,-0.17401301727253327,0.9944207477651221,0.0
-1.4601878730600193,-0.37389757512155014,2.34956829619035,0.4086996952265329,-0.5124763077257734,1.007174216983025,0.0
-1.5594044782679959,-0.36472921061562114,2.4055939488839524,0.09786181443943655,-1.1411835175943095,0.9410881457254198,0.0
-1.5594044782679959,-0.31430332619909157,2.3810827258305016,-0.6579282096125869,-0.8537215014996953,0.5781946189333874,0.0
-1.5323454184736414,-0.2547090772766333,2.3810827258305016,-0.7228898289291534,0.36010988685359036,0.4877610849518819,0.0
-1.7307786288895948,-0.2592932595295976,2.475625769574979,0.1907639335041775,1.6017601274533522,1.0268840879609193,0.0
-1.5594044782679959,-0.24095657063976655,2.34956829619035,0.3926338652733928,1.4107370343949668,0.6918162247727832,0.0
-1.5007765022230584,-0.3280558328359586,2.335561883016949,0.4652791646186468,1.1631488150965068,0.8518140308918895,0.0
-1.5864635380623509,-0.3280558328359586,2.430105171937403,0.8641295344166136,1.79556521431259,1.5833981519338653,0.0
-1.7217589949201522,-0.21345151724400607,2.4686225629882785,1.0750801200843976,1.288333921646163,1.104564124442557,0.0
-1.8209756001281294,-0.0988472016520538,2.3145525084328247,0.8599384424152117,-0.4206739505441279,-0.14179539547473113,0.0
-1.902152858454207,-0.13093643730077867,2.2515236491525226,0.5393214037554303,-2.080535075189439,-1.0519277744657325,0.0
-1.884113432629295,-0.21345151724400607,2.2795364754993237,0.8368875727209071,-2.493182197833709,-0.9927981049681194,0.0
-1.884113432629295,-0.21345151724400607,2.2795364754993237,1.2280542965685382,-2.3105047242571985,-0.576571976136385,0.0
-1.690189999726556,-0.05758968174145327,2.3145525084328247,1.2657739882677497,-2.1714101011041333,-0.4246900192072106,0.0
-1.518815849104957,0.04784630946659679,2.671715308826612,1.6255076584182722,0.22565186348517263,-1.2096067422888885,0.0
-1.5639143347242241,-0.00716377726391044,2.556162645322032,1.7330784290961618,0.7032096526812431,-2.641471035043053,0.0
-1.55038476535554,-0.25012489502366886,2.321555715019525,-0.010407545408448661,-1.0549448765738572,-2.2959683712411763,0.0
-1.4195991649539672,-0.387650081758417,2.2865396820860235,-1.5254801985789572,-2.702751101909575,-0.7574390440993958,0.0
-1.3339120501716608,-0.46558101957070663,2.3320605248995756,-1.3236101304963355,-2.860391626560291,0.3300821171287261,0.0
-1.1850871028881889,-0.38306589950545256,2.237517235979122,-0.8667832833580216,-3.35185892104975,1.0152900096090265,0.0
-1.0994001459919092,-0.3555608862317187,2.237517235979122,-1.3222131225481024,-3.959238190379697,1.185722390086156,0.0
-1.0994001459919092,-0.3555608862317187,2.237517235979122,-1.1538717223199935,-4.212390125839351,1.2135481102539818,0.0
-0.9370456293397534,-0.5435119573829964,2.3285589216062257,-1.3403744985019435,-5.1916153897504635,1.4361537584687325,0.0
-0.7792009691438253,-0.5618486061508015,2.3880859324172015,-1.294971160852396,-4.529525656714343,1.613542653833712,0.0
-0.7792009691438253,-0.5618486061508015,2.3880859324172015,-0.5377841288521396,-2.6591682514861295,1.2065917650579197,0.0
-0.48155107457688134,-0.6351954419541794,2.3005460952594246,0.2068296953006142,-1.5816494924850566,-0.10237565351894215,0.0
-0.5401790506218196,-0.5297594106241033,2.3005460952594246,1.0415515203865882,-1.499119995572066,-1.9226403266550505,0.0
-0.5401790506218196,-0.5297594106241033,2.3005460952594246,1.9042139133774398,-0.7786104737619698,-1.5585874089970073,0.0
-0.9505751987084375,0.05243047165854804,2.107958281889131,0.7076628039835393,0.08933924685673393,-0.21367847762631734,0.0
-0.9505751987084375,-0.36931339286858583,1.9748976019178024,-1.848192646926033,-2.1751194261719364,-0.625266958148116,0.0
-0.9505751987084375,-0.36931339286858583,1.9748976019178024,-4.081335717645232,-5.753557327083404,-0.7458450223114332,0.0
-0.8062601078811934,-0.4472443708029019,2.0589359583702174,-3.088051547968781,-6.544541129816302,-1.1075791016735255,0.0
-0.5401790506218196,-0.4289076417910441,1.9994088249712532,-1.5450384461676245,-5.320509821367922,-1.756845453078033,0.0
-0.5401790506218196,-0.4289076417910441,1.9994088249712532,-0.9443181446004423,-5.376147525860875,-1.497138957767374,0.0
-0.3733146775134353,-0.5847695174156236,1.8383354412411113,-1.4388646152812643,-6.725364664700274,-0.39454551730736354,0.0
-0.26507843833601574,-0.598522064174517,1.6772619349229814,-1.7357323143509764,-6.217205588366043,-0.21251905847834215,0.0
-0.18390118000993771,-0.46558101957070663,1.6527508344575186,-2.101752622503602,-4.984828388995278,-0.7539608149374352,0.0
-0.16586175418502544,-0.3280558328359586,1.586220494471854,-1.9208378781145836,-4.67603874904267,-1.6061229435787987,0.0
-0.09370420877140356,-0.38306589950545256,1.474169434260626,-1.806281999538826,-5.921398043269726,-1.7069911367642217,0.0
0.019041886862244253,-0.5801853351626592,1.3691215806360981,-2.0661284768050914,-8.150619167262473,-1.4913419468733924,0.0
0.10472915953057663,-0.5801853351626592,1.3095944472371341,-2.7953749409004693,-9.308813122563318,-1.885539366431282,0.0
0.11825872889926066,-0.36472921061562114,1.3200992571171846,-3.3939999009370596,-8.198838583540505,-2.217128887329598,0.0
0.0957094466181205,-0.4426601885499375,1.1625273540924048,-3.185144588643164,-6.103148457019798,-2.255389408111166,0.0
0.10472915953057663,-0.3922342640113816,1.0854922655206838,-2.1003555463986654,-4.076077767927651,-2.2658238693413293,0.0
0.1949259728830843,-0.3555608862317187,0.9699396020161056,-1.4207033074841267,-2.614657979315562,-1.8356850501174704,0.0
0.3302213507978723,-0.3922342640113816,0.8648917483915778,-1.3473596063998112,-2.4644359238401115,-1.400908441173852,0.0
0.42492802060660817,-0.4105709127791863,0.8403805866321209,-1.2293110375617131,-3.388023483258271,-0.9116398393245208,0.0
0.4610068722564331,-0.40140262851731034,0.7458374815936494,-1.52198757647332,-5.370583719219512,-2.1556805492278235,0.0
0.4519871593439759,-0.1584414505745121,0.6267832147957211,-2.128295977990137,-7.401363733379463,-3.444938125108756,0.0
0.16335697768948837,0.11202472058100646,0.7178247165408426,-2.073113584702959,-7.110192754137727,-3.276824469799718,0.0
0.1453175518645761,0.3595700356394892,0.787856598525863,-1.9376022461201916,-5.786940166931585,-2.6461085985070945,0.0
0.48355615453757034,-0.12176807279484958,0.5077289479977927,-0.652340109662952,-4.680674952976575,-1.7974247555916214,0.0
0.6459106711897292,0.0340937827687167,0.3151411805979951,-0.21646859260793264,-3.30734846791884,-0.3690386354354875,0.0
0.6278712453648163,0.06159881610346369,0.08403585406769797,-0.6942508252068622,-1.586285877379299,-0.11049148856789145,0.0
0.5106152932749398,0.0340937827687167,0.08403585406769797,-1.0847190450803768,-0.8824676850131224,-0.39454551730736354,0.0
0.5466941449247636,-0.020916283900777297,0.19958851709341685,-1.6393376072589498,-1.2237129240271292,-1.4496034231855828,0.0
0.1588471212332601,-0.12635225504781397,0.3151411805979951,-2.156236545895015,0.2618164370037158,-1.6130794019027201,0.0
0.3392410637103284,0.08910384943821066,0.21359489961982037,-1.697314152756,-0.9399601425201476,-1.65713670732255,0.0
0.30767206851673246,0.09827219388312634,0.15406777388260545,-0.7864544062191351,-1.597413490662026,-1.3951114302798704,0.0
0.30767206851673246,0.09827219388312634,0.15406777388260545,-0.2479016313957623,0.7013550806275122,-0.8316409079830026,0.0
0.4384575899752922,0.1670347872505004,-0.031516809915739616,-0.2723495516362392,0.9405976352040123,-0.8246845062230111,0.0
0.8217947572105683,0.07535134280134378,-0.1820854297363266,-1.3319923144991395,-2.894701526234912,-2.173071695037627,0.0
0.8217947572105683,0.07535134280134378,-0.1820854297363266,-3.1327563475658606,-5.924180127550749,-4.367823662216048,0.0
0.18139640351440064,0.5016793895814419,-0.3816763883993259,-2.7541627634090275,-1.1040916241188368,-1.9910451230807464,0.0
0.1949259728830843,0.42833262399161,0.0034991464002691913,-2.459390746653423,1.121420536726792,-0.0003480836084914865,0.0
0.5151251497311677,0.20370816503016306,-0.08754234002135365,-1.8551777548239008,0.14497705172612624,-0.9081616101625598,0.0
0.5151251497311677,0.20370816503016306,-0.08754234002135365,-1.4179092915876608,-1.6511967135814187,-1.2583017243006194,0.0
0.37982977181638083,0.19912399280770524,-0.1295614876005642,-0.8933267751579633,-1.4601735300428624,-0.47338500121894145,0.0
0.37982977181638083,0.19912399280770524,-0.1295614876005642,-0.9303478606480036,-1.3451887959891533,-0.4896166995988049,0.0
0.4610068722564331,0.22662903115770555,-0.15407266468351957,-2.8638290800876183,-1.5918496840206624,-1.9307561192810525,0.0
0.7361074845422362,0.22662903115770555,-0.4937274486105541,-4.258757703615205,-1.4629554333635442,-1.1319265926793913,0.0
0.42492802060660817,0.44208514065898347,-0.4657146835577469,-3.676198641688461,0.7940847690761084,0.8425387908359473,0.0
0.465516728712661,0.3228966553521999,-0.4937274486105541,-6.051838158888296,-2.5636566597168513,1.4848487404804633,0.0
0.44747730288774834,0.2724707571437238,-0.4937274486105541,-3.4980781858227195,2.8480470243878684,0.465732403960002,0.0
1.0788559436714604,0.07535134280134378,0.6653007897285784,-1.4996351766747804,-0.980761180103082,-1.0809128289356391,0.0
0.7676764797358329,-0.039252972790608506,-0.1925902089693801,-2.2051323011800896,-1.8227465738752024,-1.243229473350696,0.0
0.4159086234662043,0.4741743562466949,-0.15407266468351957,-1.5380533382697565,-0.27787025114372865,0.5271808269076709,0.0
0.19041611642685605,0.3779067295445738,-0.11205351710430911,-1.1412985144724905,-4.204044596837645,-0.03744902969127734,0.0
0.6098318195399047,0.06618299835642813,-0.14006628215711608,-0.4749180555362742,-4.459978616578322,-1.6316298820146042,0.0
1.033757379109181,0.1670347872505004,-0.03852000117894136,0.2235939951495191,-3.554009717871034,-2.151042985763782,0.0
0.582772680802536,0.3870750739894895,-0.3186476823540086,0.2948422183898366,-2.304940917615835,-1.3081560406144312,0.0
0.41139876700997674,0.5291844229161888,-0.521740213663361,0.5770410954546418,-2.0165516607344403,-1.3754015027380462,0.0
0.33473120725410016,0.6346203940632255,-0.6057785088217822,0.5393214037554303,-2.232611793198791,-0.99627633413008,0.0
0.22198511162045198,0.4329167962140678,-0.8228774839515322,-0.37293528257296443,-1.857983895296944,0.08312901679581186,0.0
0.24453439390159248,0.6942146429856841,-0.65480089363469,-0.8206814758127093,0.9174152583319483,0.9561603966753435,0.0
0.36630020244769645,0.7263038385123823,-0.3431588441134654,-0.236026927522376,1.8011290209539534,1.068622611648729,0.0
0.06414045142452457,0.4329167962140678,-0.5357466268367616,-0.3037825968137598,0.5019862776070813,0.7973220379861772,0.0
0.019041886862244253,0.6804620962267907,-0.4937274486105541,-1.0630651833343052,1.7853650227769842,0.8402200091039269,0.0
0.24904425035782074,0.46042182954881483,-0.6337912738745892,-1.3780940538877484,1.7269452340030083,0.36022661902857295,0.0
0.9210112834755331,0.37332255230686273,-0.46921628685109723,-0.4323088019398959,1.6351427863411923,0.25703965825211195,0.0
0.8488538959479363,0.5429369295530557,-0.6022769668224262,-0.7599109825758966,1.5442677604264976,0.6616717228729365,0.0
0.6414008147334977,0.6804620962267907,-0.6723088488074466,-1.1028803528775146,0.9702711499843903,0.13298339939547865,0.0
0.4204181641503799,0.5200160784712732,-0.36767000587292253,-0.7515287985730926,1.1149293988184776,-0.04208663557826597,0.0
0.7586567668233778,0.35498586341703137,-0.25211734236834427,-0.4399924478902318,2.743262481869764,-1.2942432370944477,0.0
0.5647335707496781,0.37332255230686273,-0.22760618060888743,0.16631598770493702,2.1748294971086795,-1.1052603199415048,0.0
0.47453644162511605,0.3228966553521999,-0.24511416642864112,0.6014889730971791,1.934659656505314,-0.2867209223619492,0.0
0.40688891055374854,0.6804620962267907,-0.3466604474068158,0.21591034919918298,2.38996238878625,0.6883380521747521,0.0
0.4429674464315201,0.6712937718428884,-0.3606668299332191,-0.18014596636417243,2.15906549893171,0.9260158947754964,0.0
0.4294378770628364,0.5933628340305985,-0.3466604474068158,-0.28212872654810034,1.5043940541105139,1.2796342380755166,0.0
0.40688891055374854,0.5246002406632245,-0.25211734236834427,-0.15709506898120726,0.8385949960065903,1.4025310274069247,0.0
0.43394773351906396,0.5291844229161888,-0.30814287247395816,-0.32194390461089745,0.4454211966070922,1.588035715397907,0.0
0.8172849007543396,0.1670347872505004,-0.45170833167834057,-0.9345389526494055,2.6152954719994264,0.3903711492103847,0.0
0.7045388051206926,0.13036140947083774,-0.20309501884943032,-0.9024074290565322,3.8161448559765963,-0.7296133239315699,0.0
0.5061054368187127,0.3228966553521999,-0.01400883175773521,0.43803720292294024,0.9749076253588029,-0.36092278624555596,0.0
0.24904425035782074,0.1762031316954161,-0.0945455312845554,0.3144005341352073,1.1195658741928904,0.44950076214406814,0.0
0.465516728712661,-0.11259974841094722,-0.08754234002135365,0.44851486476974195,1.6008328866665722,1.7677433924949073,0.0
0.8308144701230261,0.020341276131849793,-0.045523192442143125,0.6308264807935865,2.172047593787998,0.8529734217578998,0.0
0.47453644162511605,0.08451968724625944,-0.16457745924007147,3.2732973786874435,-4.232790870831243,0.7254389558345911,0.0
0.40688891055374854,2.1244764967586067,-0.4587114769710467,0.8739086582109471,-1.249677204219875,-0.859466628150829,0.0
0.02355174331847214,1.5789599320725787,-0.3361556375267653,-2.3245778779664206,1.6759439144042974,-1.5527903981030264,0.0
0.21296539870799655,0.8088189585776364,-0.17858384176647513,-1.808377545539527,-0.8806131129593914,-2.049015458276279,0.0
0.31218192497296,0.6758779540958527,-0.031516809915739616,-2.504095546250504,0.9804714320001665,-2.00843626889055,0.0
0.28963264269182054,0.6025311784755142,0.13305819626212556,-2.093370438500798,1.5915599359177464,-0.3133872233818,0.0
0.6278712453648163,0.6162837051733943,-0.017510427389336104,-1.1811136840157,-1.2070215945832095,0.475007644015944,0.0
0.5466941449247636,0.42833262399161,-0.09804713457790554,-1.1971794458121365,-1.4815013348611956,2.0320874512696077,0.0
0.41139876700997674,0.3779067295445738,-0.04202159681054225,-0.954097268394776,-1.2051669320493081,3.0570009683758395,0.0
0.41139876700997674,0.3779067295445738,-0.04202159681054225,-0.2590778227754442,-1.3776441236100425,3.8929312289455513,0.0
0.582772680802536,0.4191642795466943,-0.20309501884943032,-0.09981708496549194,0.223797268811399,2.4471542457992617,0.0
0.1949259728830843,0.5704419628878028,0.01750553275754731,0.09576628547791155,0.4324390338906768,3.332939048938503,0.0
0.3302213507978723,0.48792686288356185,-0.021012023020936958,0.21032224924954818,0.6225348635422393,3.5509070205613535,0.0
0.3302213507978723,0.48792686288356185,-0.021012023020936958,0.023819541224301466,0.513113845649723,2.8019320365292217,0.0
0.7676764797358329,0.2724707571437238,-0.24511416642864112,-0.019488199307017454,-0.3557631595820933,2.666281551724192,0.0
0.36630020244769645,-0.12176807279484958,-0.19609181226273018,0.3144005341352073,-0.5022760709500823,3.4036627402240787,0.0
-2.055487662193907,0.22662903115770555,-0.4902258453172038,0.46038953456477655,-2.584984464535184,10.372841386900582,0.0
-1.3339120501716608,0.6987987851166222,0.16807415640900894,0.021724012262776288,-2.5061642926899967,8.660401450119714,0.0
2.0755320100934846,-0.5160069441092628,-0.5112354650773047,-0.21018198442438732,0.4843676621362956,0.6964538448007543,0.0
1.6380768811555262,-0.6168587129423216,-0.3396572408201154,-0.17246233425816687,0.10324869701376753,0.7231201741025703,0.0
0.8533637524041648,-0.3280558328359586,-0.29063491730120167,-0.24231353570592132,0.03926522318115717,0.7834091779022642,0.0
0.5647335707496781,-0.14927312619060978,-0.26262215224839447,-0.23393139430105686,-0.08684713546530048,0.5712381888914311,0.0
0.5692431114338538,-0.22720406400289947,-0.26262215224839447,-0.09283196002844829,0.0012460606438510222,0.3161692711857954,0.0
0.48806601099380187,-0.29138245505629606,-0.27662853477479804,-0.17316084568692275,0.17465054388646167,0.29529999520090816,0.0
0.4429674464315201,-0.19511482835417496,-0.2696253281880979,-0.21437305512681953,0.4240933691687166,0.29066237517293714,0.0
0.42492802060660817,-0.20428319286010369,-0.17858384176647513,-0.07886171867394891,0.6197529602215576,0.03791225334030471,0.0
0.42492802060660817,-0.13552057943171666,-0.1750822384731248,0.24245380692077306,-0.15361249848106595,1.4361537584687325,0.0
-0.7115532801864314,0.024925438323801046,-0.03852000117894136,0.7090598119317723,-1.3359158452403275,7.792007566534557,0.0
-0.3372359837496376,-0.03466881059865739,0.16457256077740806,0.66784763444033,-1.0456719258250313,6.225652802044599,0.0
1.2953287377983533,-0.758968041808008,-0.6688072455140964,-0.30308408432005546,-1.6947795640048646,2.3103446529478697,0.0
0.9615999915815848,-0.4793335663296,-0.43770191850494,-0.29819449686412486,-1.6428510036193733,3.009465320666189,0.0
0.05963059496829632,-0.3188875084520562,-0.17858384176647513,-0.01599564535808358,-2.0471524163015986,3.6969919665965456,0.0
0.037081312687156524,-0.5343435928770677,-0.30814287247395816,0.004261208439755084,-3.1756726758617217,3.296997649272534,0.0
0.12276826958343594,-0.6214428951952861,-0.31164447576730847,0.1223097261603256,-3.1153980435935056,2.717295428595803,0.0
0.6504205276459571,-0.868988175146996,-0.28713331400785136,-0.19132215880880285,-1.3609527941661226,-0.05715890066917183,0.0
1.020227809740495,-0.9331666464444449,-0.5322450235434115,-0.4225296440672107,-0.19348625003713507,-0.7551202623673752,0.0
0.7992454749294302,-0.758968041808008,-0.5602577885962184,-0.5398796748528405,0.25810724765616855,-0.23686654948420768,0.0
0.5963022501712196,-0.7222946640283451,-0.5042322584906043,-0.4441835058132822,0.4064747310778884,-0.3284594743317237,0.0
0.4790462980813432,-0.6627004552279132,-0.4587114769710467,-0.3275320045605324,0.46674900142542486,-0.2670110513840547,0.0
0.4519871593439759,-0.7268788462813096,-0.3956827709257295,-0.05930338588940253,0.01515550938713195,-0.3574446136475249,0.0
0.3392410637103284,-0.6627004552279132,-0.35366362334651896,0.03918681608579752,-0.48280283818548053,-0.5475868651025483,0.0
0.23551468098913708,-0.5847695174156236,-0.42019396333218334,-0.013900099357382569,-0.5430771085330169,-0.722656922171578,0.0
0.44747730288774834,-0.6168587129423216,-0.4832227000244978,-0.03555397814262996,-0.42160123657099335,-0.11744790446886562,0.0
0.3933593411850649,-0.5939378819215527,-0.518238610370011,-0.18713108657550717,-0.5263857790890968,-0.5000513305207575,0.0
0.10472915953057663,-0.5297594106241033,-0.3816763883993259,-0.30308408432005546,-1.3108788058343621,-1.6919188858142982,0.0
0.28963264269182054,-0.598522064174517,-0.5637593918895688,-0.48330017138237485,-0.8370301720557752,-1.4542409866496242,0.0
0.28963264269182054,-0.598522064174517,-0.5637593918895688,-0.33172307100317067,0.38607418966637863,-1.5191676670412184,0.0
0.28963264269182054,-0.598522064174517,-0.5637593918895688,0.04058384107320622,0.9563616333809816,-1.0241020542979062,0.0
0.4700265851688881,-0.6351954419541794,-0.5392482301301119,0.0412823450473227,1.1028745447489703,-1.1029415382094843,0.0
0.4790462980813432,-0.46558101957070663,-0.42719713927188674,-0.05301677344606323,0.6197529602215576,-0.1893309866204518,0.0
0.3392410637103284,-0.40140262851731034,-0.36767000587292253,-0.13683822157305953,-0.7322456295376717,0.12718637833766616,0.0
0.6053219630836776,-0.48850185059147616,-0.5252418169567113,-0.249298656383171,-0.6932991640084678,-0.0432460405852587,0.0
0.560223714293451,-0.5572645041418897,-0.5357466268367616,-0.3470903458646667,-0.8129204639167604,-0.0003480836084914865,0.0
0.4384575899752922,-0.5664327884037659,-0.5147370683706548,-0.26257038524396603,-0.3947096251112971,-0.06179650655616047,0.0
0.21296539870799655,-0.45641265506477796,-0.4622130802643968,-0.3310245670290542,-0.7693375230131441,-0.07570936664007355,0.0
0.35728048953523994,-0.37848175737451456,-0.5917721569423756,-0.34918587482619184,-1.1319105668454836,0.21877931423282454,0.0
0.35728048953523994,-0.37848175737451456,-0.5917721569423756,-0.30308408432005546,-0.13043007636891688,-0.010782728671426312,0.0
0.28963264269182054,-0.43807600629697285,-0.5637593918895688,-0.40576534421830585,0.19505107398795035,0.003130124341995596,0.0
0.20394568579554007,-0.47016520182367094,-0.5672609951829188,-0.3715382575855557,-0.1443395251121978,0.408921601040304,0.0
0.28963264269182054,-0.5847695174156236,-0.5917721569423756,-0.5091451251298484,-0.16010356852925237,0.5144273859717332,0.0
0.44747730288774834,-0.5114227618562982,-0.5392482301301119,-0.2723495516362392,-0.7693375230131441,0.4123998302022647,0.0
0.44747730288774834,-0.5114227618562982,-0.5392482301301119,-0.22834329435142195,-0.720190775468164,0.0019707264054940306,0.0
0.298652355604276,-0.4243234595380797,-0.6057785088217822,-0.4441835058132822,0.5752427332910757,0.3451543680786495,0.0
0.0010024610373323439,-0.4793335663296,-0.46921628685109723,-0.061398923370515626,0.5502056938851104,0.4147186402162502,0.0
0.0010024610373323439,-0.4793335663296,-0.46921628685109723,0.5302407498568614,-0.10817495159365467,-0.26237343135608354,0.0
0.046101025599612294,-0.47016520182367094,-0.5112354650773047,0.4624850805654776,-0.7480097181948111,-3.773049416845111,0.0
-0.0711549264902634,-0.598522064174517,-0.38517799169267597,0.34862763780713324,-0.6460070337573042,-3.0507407055508664,0.0
0.555713857837223,-0.2592932595295976,-0.7493439373791675,0.09856033545272885,-0.13784845506401142,-1.585253681734894,0.0
0.555713857837223,-0.2592932595295976,-0.7493439373791675,-0.01320159538326612,1.2234231759242138,-0.3157060333957855,0.0
0.5421842884685365,-0.27304576616646464,-0.7003216138602536,-0.0027239164972885648,1.4079552215544555,0.34631377308564226,0.0
0.6819895228395538,-0.40598681077027465,-0.6197849219951826,-0.1969102544986438,1.1167839708722087,0.452978963024064,0.0
0.31669178142918863,-0.45641265506477796,-0.518238610370011,-0.4364998769021219,0.36381907620113757,-0.40266136649729534,0.0
0.24453439390159248,-0.46558101957070663,-0.5357466268367616,-0.6705014174600896,0.08099357577288692,-0.2600546496240628,0.0
0.1859062599706285,-0.3922342640113816,-0.518238610370011,-0.6656118214845713,-0.09797469219792097,-0.06759353159112427,0.0
0.4384575899752922,-0.30513500181518916,-0.4447051250916404,-0.72777939082632,-0.4503474653245059,-0.8061340261111271,0.0
0.7586567668233778,-0.33722419734188736,-0.5322450235434115,-0.3806189114841245,0.7505018281724921,-0.6774401693218075,0.0
0.8894422882819365,-0.34180837959485205,-0.7003216138602536,-0.19830727948605253,0.9016511696748085,-0.5290364415545938,0.0
0.5647335707496781,-0.31430332619909157,-0.6653056422207464,-0.08305279363617508,1.3968276082717286,-0.11165089357488424,0.0
0.47453644162511605,-0.26846158391350033,-0.5777657437689752,-0.12286798021856014,0.6874456092641886,-0.3296188934796989,0.0
0.5421842884685365,-0.3555608862317187,-0.4622130802643968,-0.11029476385146951,0.5196049383179521,-0.11396970358886975,0.0
0.5782628243463088,-0.3188875084520562,-0.47621949343779735,-0.15919060646232036,0.44263929328641033,0.15037446301082183,0.0
0.39786919764129236,-0.2592932595295976,-0.4867243033178479,-0.236026927522376,0.06430223501894555,0.17935956874178996,0.0
0.22649496807668096,-0.32347169070502063,-0.43069874256523677,-0.3198483756493723,0.021646585090329015,0.10515769778769186,0.0
0.3708100589039243,-0.31430332619909157,-0.4867243033178479,-0.2695555016614218,0.540932743136285,-0.12672314452480768,0.0
0.5015955803624847,-0.30513500181518916,-0.5357466268367616,-0.3016870593326467,0.2080332253943444,-0.19396860664842291,0.0
0.5106152932749398,-0.28221413067239337,-0.49722905190390415,-0.31076771323121555,0.0911938401167549,0.030955830368839362,0.0
0.4700265851688881,-0.26846158391350033,-0.4797210967311475,-0.33731117095280555,-0.12579360099450412,-0.03281140966330634,0.0
0.30316221206050425,-0.27304576616646464,-0.42019396333218334,-0.24231353570592132,-0.28157944049127603,0.06921616731763558,0.0
0.3302213507978723,-0.30513500181518916,-0.47621949343779735,-0.2332328818073525,-0.24634216430961958,-0.09078161758999698,0.0
0.4429674464315201,-0.3188875084520562,-0.5147370683706548,-0.27584211410476106,-0.24448756963584595,-0.35860400451353525,0.0
0.5151251497311677,-0.22261988174993508,-0.5042322584906043,-0.2744450891173523,-0.3149621219991588,-0.14063600460872072,0.0
0.5196350061873949,-0.23178820613383747,-0.5357466268367616,-0.31006920073751115,0.1329221920016083,-0.0815063775340549,0.0
0.4610068722564331,-0.23178820613383747,-0.5637593918895688,-0.15290399614887804,0.9266882090807737,0.1202299530461959,0.0
0.44747730288774834,-0.2547090772766333,-0.5007306551972542,0.051061519959183684,0.8126306705737595,0.28718416015195886,0.0
0.44747730288774834,-0.19053068622323696,-0.47621949343779735,0.004261208439755084,0.8506498500760974,0.4147186402162502,0.0
0.4384575899752922,-0.22720406400289947,-0.4657146835577469,-0.20668942408576246,0.5418600291631506,-0.007304513650448037,0.0
0.4294378770628364,-0.30513500181518916,-0.4622130802643968,-0.2974959843704205,0.384219594992605,-0.27744571058797174,0.0
0.41139876700997674,-0.26846158391350033,-0.45170833167834057,-0.25768080204782945,0.24234320423911399,-0.1209261336308263,0.0
0.4970857239062576,-0.21345151724400607,-0.4797210967311475,-0.1899251346201055,0.3462004381103094,0.16312790924962817,0.0
0.5241448626436228,-0.25012489502366886,-0.521740213663361,-0.14172780476919614,0.7607020649481829,0.2628366691460933,0.0
0.45649701580020413,-0.24554075289273086,-0.4867243033178479,-0.21646859260793264,1.5451950916934483,0.1376210167720155,0.0
0.4159086234662043,-0.2592932595295976,-0.3956827709257295,-0.21926264045285312,1.6008328866665722,0.13414280351866,0.0
0.5647335707496781,-0.2592932595295976,-0.4096891534521331,-0.14242631726290048,1.391263801630365,0.3347197371566971,0.0
0.5512040013809922,-0.28221413067239337,-0.38517799169267597,-0.10051559745919629,0.6058435340983193,0.39153054007639504,0.0
0.36630020244769645,-0.24095657063976655,-0.3186476823540086,-0.09632452249697011,0.01886469307966857,0.2929811851869226,0.0
0.37982977181638083,-0.24095657063976655,-0.32915246158706213,-0.12216946772485578,-0.4484928480306896,-0.07339055662608804,0.0
0.4610068722564331,-0.27304576616646464,-0.35716522663986905,-0.16687423750337743,-0.8796857816924407,-0.09541923761796806,0.0
0.3617903459914689,-0.30055081956222485,-0.27662853477479804,-0.24650461066814752,-1.023416789739748,-0.23222892945623663,0.0
0.34375092016655595,-0.25012489502366886,-0.2941364899475548,-0.3470903458646667,-1.2617320582893823,-0.3041119833258581,0.0
0.48806601099380187,-0.23637238838680177,-0.35366362334651896,-0.23742395250978474,-1.8134736231263768,-0.2890397323759347,0.0
0.695519092208236,-0.28221413067239337,-0.43069874256523677,0.13348592605959542,-1.5788675891643749,0.2663148841670716,0.0
0.5872825372587646,-0.22261988174993508,-0.5007306551972542,0.19635203345381255,-1.5482668335972165,0.2721119092020354,0.0
0.5241448626436228,-0.13093643730077867,-0.6022769668224262,-0.08654535610469692,-0.5708960060195787,0.11907054881253812,0.0
0.44747730288774834,-0.20428319286010369,-0.6197849219951826,-0.18782959860329657,1.8678943387296338,0.054143909297220925,0.0
0.582772680802536,-0.2592932595295976,-0.7003216138602536,0.020326987275367525,4.274229310617873,0.22921395222526816,0.0
0.5963022501712196,-0.21803569949697077,-0.45170833167834057,0.3409439918567972,3.730833636703265,0.7845685687682741,0.0
0.5061054368187127,-0.27304576616646464,-0.3431588441134654,0.4052071412775988,2.426126950994772,0.9260158947754964,0.0
0.34375092016655595,-0.30513500181518916,-0.31164447576730847,0.03220169114875381,1.8929312876554287,0.37066127823249023,0.0
0.24453439390159248,-0.30513500181518916,-0.31164447576730847,-0.29120938044666916,2.0950820844767115,0.05994093433218472,0.0
0.4159086234662043,-0.25012489502366886,-0.25211734236834427,-0.17595489459679173,1.9392962223598973,0.16080910277088825,0.0
0.5376744320123086,-0.2592932595295976,-0.26262215224839447,-0.07816320618024455,2.250867946593526,0.22109812424681005,0.0
0.5421842884685365,-0.25012489502366886,-0.1855870330296767,-0.10819922637035642,1.4348467425339813,0.4460225329821075,0.0
0.47453644162511605,-0.31430332619909157,-0.21009819478913377,-0.2960989593830118,0.9220517337063612,0.35095139311361334,0.0
0.4429674464315201,-0.26387744178256234,-0.16107585594672136,-0.12077244273744706,0.5288778890667776,0.21066348625436643,0.0
0.47453644162511605,-0.3188875084520562,-0.15407266468351957,-0.07746470220612808,0.6586994257507612,0.2396485902177118,0.0
0.4384575899752922,-0.3280558328359586,-0.1575742679768697,-0.09143493504103954,0.4927133268582558,0.0576221243181992,0.0
0.5151251497311677,-0.2959666373092604,-0.15407266468351957,-0.16896977391954202,0.5437146464569665,0.030955830368839362,0.0
0.555713857837223,-0.2592932595295976,-0.17158065050327326,-0.27514360161105667,0.38143771429196577,0.006608339362973871,0.0
0.5015955803624847,-0.28221413067239337,-0.1330630908939143,-0.14102929227549177,0.40925661177852757,0.12254876151351146,0.0
0.5917923937149917,-0.3188875084520562,-0.17858384176647513,-0.1403307797817874,1.0008719055515487,-0.03513021967729183,0.0
0.5376744320123086,-0.2959666373092604,-0.189088636323027,-0.4469775557880997,1.6481250621578207,-0.01889854957939321,0.0
0.45649701580020413,-0.28221413067239337,-0.045523192442143125,-0.6264951559154784,1.1344026315830795,0.023999400326882823,0.0
0.44747730288774834,-0.23637238838680177,-0.03501840554734047,-0.3715382575855557,0.42223877449494296,0.29529999520090816,0.0
0.48355615453757034,-0.27304576616646464,-0.052526383705344876,-0.3310245670290542,0.20525133338368395,0.05878152932519197,0.0
0.5421842884685365,-0.30513500181518916,-0.08404075205150205,-0.35337694978841805,0.2775804804207703,-0.04788366061322976,0.0
0.5331645755560814,-0.36931339286858583,-0.06653276623174838,-0.2646659227250791,0.6123345815264631,-0.17657751740254907,0.0
0.48355615453757034,-0.3188875084520562,-0.031516809915739616,-0.14312482975660484,0.41760227650048776,-0.18237455657849533,0.0
0.5286547190998535,-0.29138245505629606,-0.03852000117894136,0.08668563157934253,-0.011736096417553714,0.020521192376395728,0.0
0.45649701580020413,-0.25012489502366886,-0.02801521428413874,0.00635673740128023,-0.6747532625108167,-0.12440433451082217,0.0
0.44747730288774834,-0.27304576616646464,0.0034991464002691913,0.12859636416242876,-0.7934472311521588,-0.020057954586385967,0.0
0.40688891055374854,-0.22720406400289947,-0.13656467886376594,0.2976362683646541,-1.2088761666369403,0.10747650603405458,0.0
0.5376744320123086,-0.25012489502366886,-0.13656467886376594,-0.02996587819299504,-0.5755324813939916,-0.007304513650448037,0.0
0.6459106711897292,-0.2592932595295976,-0.150571076713668,-0.14312482975660484,0.008664433683934889,0.029796425361846627,0.0
0.5106152932749398,-0.26846158391350033,-0.14006628215711608,-0.1899251346201055,-0.04882796727298371,0.01124595232045366,0.0
0.5106152932749398,-0.27304576616646464,-0.08404075205150205,-0.22974031933883068,-0.32330778672111865,-0.1441142054887167,0.0
0.5692431114338538,-0.23178820613383747,-0.10855191381095892,-0.14312482975660484,-0.19812272541154785,-0.1510706355306732,0.0
0.5692431114338538,-0.23178820613383747,-0.10855191381095892,-0.019488199307017454,0.46489442937169406,-0.03860842055728769,0.0
0.44747730288774834,-0.23637238838680177,-0.09104394331470379,0.037789791098388766,0.13014029999094787,0.19675063324094452,0.0
0.44747730288774834,-0.208867375113068,-0.07353595749495015,0.1719040876545718,-0.08313794611775326,0.172403142235079,0.0
0.44747730288774834,-0.208867375113068,-0.07353595749495015,0.033598716136162575,-0.22501433687124414,0.012405357327446444,0.0
0.4700265851688881,-0.24095657063976655,-0.11205351710430911,-0.05161975697824245,-0.5208219724477332,-0.09310042760398249,0.0
0.5015955803624847,-0.26387744178256234,-0.10505032584110728,-0.22065966331036488,-0.3937823390844315,-0.10585386853992047,0.0
0.5241448626436228,-0.28221413067239337,-0.13656467886376594,-0.1990057909148084,-0.1554670931548396,0.04023106335429022,0.0
0.5421842884685365,-0.28221413067239337,-0.12605989963071257,0.0021656794782299376,-0.07942875677020599,0.07965080531007922,0.0
0.6278712453648163,-0.21803569949697077,-0.13656467886376594,0.19146243747829397,0.5344416504680559,-0.013101538685411829,0.0
0.6414008147334977,-0.21803569949697077,-0.21710140137583392,-0.1305516133895142,0.4778765694680668,0.010086547313460927,0.0
0.5015955803624847,-0.2959666373092604,-0.11555510507416067,-0.2541882395793076,0.19876026333549762,-0.06875293659811703,0.0
0.45649701580020413,-0.30055081956222485,-0.11205351710430911,-0.21577008011422827,0.034628739324228434,0.04139046836128301,0.0
0.4610068722564331,-0.27304576616646464,-0.10505032584110728,-0.14452185474401358,0.19041458730351626,0.0054489343559810865,0.0
0.722577915173554,-0.20428319286010369,-0.14006628215711608,-0.12915458840210547,0.4055474224309802,0.18051897374878273,0.0
0.5241448626436228,-0.19511482835417496,-0.12605989963071257,-0.03974505310485615,-0.19255896401026956,-0.11049148856789145,0.0
0.3708100589039243,-0.20428319286010369,-0.10855191381095892,-0.19621174306988792,-0.3789455816942426,-0.001507488615484245,0.0
0.5286547190998535,-0.22720406400289947,-0.1575742679768697,-0.13683822157305953,-0.22037786149683136,-0.00846391865744077,0.0
0.49257586745002974,-0.24095657063976655,-0.11555510507416067,-0.21297603226930778,-0.07015579471135915,0.18051897374878273,0.0
0.6639500970146401,-0.25012489502366886,-0.189088636323027,-0.09422898501585703,0.8200490492688538,0.49007989496586746,0.0
0.5466941449247636,-0.25012489502366886,-0.1295614876005642,-0.07956023116765326,0.6123345815264631,0.27559012422301365,0.0
0.4159086234662043,-0.22720406400289947,-0.04202159681054225,-0.19551323057618356,0.20154214403613674,-0.0502024706272153,0.0
0.40688891055374854,-0.2547090772766333,-0.045523192442143125,-0.3044811093074642,-0.06366471335315146,-0.09194102259698976,0.0
0.40688891055374854,-0.26387744178256234,-0.12605989963071257,-0.14172780476919614,-0.25097863968403245,-0.14759243465067734,0.0
0.6504205276459571,-0.22261988174993508,-0.15407266468351957,-0.1647787021521613,0.12921300265406105,0.15037446301082183,0.0
0.6549303841021851,-0.19969901060713927,-0.13656467886376594,-0.16896977391954202,-0.061810118679377815,0.17820016373479722,0.0
0.49257586745002974,-0.21803569949697077,-0.12605989963071257,-0.27584211410476106,-0.5699687199927133,-0.10237565351894215,0.0
0.4790462980813432,-0.25012489502366886,-0.1330630908939143,-0.26396741023137477,-0.5838781913560368,-0.10121626265293182,0.0
0.48806601099380187,-0.19511482835417496,-0.14706947342031784,-0.1948147191474277,-0.5569865798963404,0.04834689133274834,0.0
0.5151251497311677,-0.20428319286010369,-0.15407266468351957,-0.15779358147491163,-0.6330248936609314,0.12370816574716924,0.0
0.4700265851688881,-0.20428319286010369,-0.10154872254775718,-0.26606294771248784,-1.2190764486527168,-0.02353616960736427,0.0
0.4700265851688881,-0.21345151724400607,-0.15407266468351957,-0.2926064054340779,-1.3507526026305166,-0.08266578254104769,0.0
0.4610068722564331,-0.21345151724400607,-0.17858384176647513,-0.20040281483726866,-1.383207930251406,0.062259740810924634,0.0
0.6098318195399047,-0.208867375113068,-0.30814287247395816,-0.11029476385146951,-0.6070605682281007,0.2245763321972971,0.0
0.5376744320123086,-0.21803569949697077,-0.25561894566169435,-0.17246233425816687,-1.2468953008991932,0.16660612073536082,0.0
0.4790462980813432,-0.21803569949697077,-0.28713331400785136,-0.2534897313453972,-1.7531993527788405,0.07153497379637547,0.0
0.5196350061873949,-0.27304576616646464,-0.3396572408201154,-0.12496351769967325,-1.3201517565831877,0.09008544330252281,0.0
0.5421842884685365,-0.24095657063976655,-0.37817481575297274,-0.18294001447533004,-0.6014968068268223,-0.003826298629469762,0.0
0.5196350061873949,-0.16760981508044118,-0.35016202005316893,-0.09632452249697011,-0.23428731024011232,0.13066459114911594,0.0
0.5106152932749398,-0.19053068622323696,-0.3361556375267653,-0.18363852643656017,-0.2101776021010978,0.18747540025549367,0.0
0.5241448626436228,-0.24095657063976655,-0.35366362334651896,-0.26047484776285296,-0.29734348390833054,0.06110033933917746,0.0
0.5331645755560814,-0.23637238838680177,-0.3606668299332191,-0.18922662265887535,0.10788518087069628,0.013564762334439203,0.0
0.47453644162511605,-0.22720406400289947,-0.30113969653425493,-0.19551323057618356,-0.04511877792543647,0.003130124341995596,0.0
0.4700265851688881,-0.24095657063976655,-0.3396572408201154,-0.18433703839779028,0.13106759732783468,0.015883572348424718,0.0
0.5061054368187127,-0.208867375113068,-0.35366362334651896,-0.10959625135776513,0.5631878792215684,-0.029333194642328034,0.0
0.5241448626436228,-0.20428319286010369,-0.3641684025795722,-0.14661738796533272,0.5260959857460961,0.01124595232045366,0.0
0.4790462980813432,-0.1859465039702723,-0.36767000587292253,-0.249298656383171,0.6818818478629103,0.12254876151351146,0.0
0.4790462980813432,-0.1859465039702723,-0.36767000587292253,-0.2038953751758935,0.42965715319003767,0.13414280351866,0.0
0.5015955803624847,-0.21345151724400607,-0.31164447576730847,-0.15010995043385456,0.26738022102503667,0.15385267626417728,0.0
0.5466941449247636,-0.23637238838680177,-0.32214925500036173,-0.02018672032030977,0.8895963156053012,0.04834689133274834,0.0
0.5466941449247636,-0.23637238838680177,-0.32214925500036173,-0.10750071387665204,1.2419690774218648,-0.09310042760398249,0.0
0.5331645755560814,-0.17677813946434348,-0.28713331400785136,-0.20249835125343327,1.0342545644393886,-0.11281029858187697,0.0
0.5106152932749398,-0.20428319286010369,-0.28713331400785136,-0.15220548578507065,1.1102929234440646,-0.11281029858187697,0.0
0.5106152932749398,-0.20428319286010369,-0.28713331400785136,-0.08514833111728821,0.6086253921789158,-0.004985703636462494,0.0
0.4384575899752922,-0.21803569949697077,-0.1820854297363266,-0.027870349231469867,0.6967186052530993,-0.11744790446886562,0.0
0.465516728712661,-0.18136232171730787,-0.22760618060888743,-0.11518434704760609,0.529805175093643,-0.1568676464246546,0.0
0.465516728712661,-0.18136232171730787,-0.22760618060888743,-0.2772391390921698,0.5325870784143248,-0.16846169649458217,0.0
0.5015955803624847,-0.17677813946434348,-0.21009819478913377,-0.2311373443262394,0.2738712910732231,0.008927149376959376,0.0
0.5015955803624847,-0.18136232171730787,-0.19609181226273018,-0.20808644694327422,0.17650513856023536,-0.03976782556428045,0.0
0.5241448626436228,-0.17219399733340549,-0.17158065050327326,-0.11378732631999132,0.4890041375107085,-0.1812151374305201,0.0
0.5106152932749398,-0.10801556615798287,-0.20309501884943032,-0.1172798845287192,0.4250206551955821,-0.017739144572400476,0.0
0.5106152932749398,-0.10801556615798287,-0.20309501884943032,0.00635673740128023,0.8803233648564756,0.02283999531989005,0.0
0.5737529678900809,-0.16760981508044118,-0.21009819478913377,0.011246333376798732,1.2308414641391379,0.05530331430421367,0.0
0.49257586745002974,-0.1538573084435741,-0.1295614876005642,-0.04463463204119879,0.5585514038471556,0.049506296339741074,0.0
0.4429674464315201,-0.14010476168468097,-0.08404075205150205,-0.06209743586421997,0.1208673351045957,0.0877666332885373,0.0
0.465516728712661,-0.13552057943171666,-0.1295614876005642,-0.06209743586421997,0.020719287753442176,0.1700843357563391,0.0
0.5106152932749398,-0.14010476168468097,-0.1820854297363266,-0.03345843214192895,-0.07108308073822468,0.2918217801799299,0.0
0.5151251497311677,-0.14468894393764536,-0.1575742679768697,-0.17595489459679173,-0.43272880461363505,0.18283778022752264,0.0
0.5466941449247636,-0.11718389054188523,-0.24511416642864112,-0.300290034345238,-0.4475655620038241,0.28138713511699504,0.0
0.5106152932749398,-0.12176807279484958,-0.220602974022187,-0.2849227680033299,-0.41140099979530215,0.404283981012333,0.0
0.5241448626436228,-0.1859465039702723,-0.189088636323027,-0.0027239164972885648,0.32394532464506853,0.3335603321497044,0.0
0.5466941449247636,-0.17219399733340549,-0.1855870330296767,0.01543740833902492,0.34527312946340133,0.27559012422301365,0.0
0.5061054368187127,-0.14468894393764536,-0.17858384176647513,0.005658233427163813,0.23585212288090626,0.17935956874178996,0.0
0.5061054368187127,-0.14468894393764536,-0.17858384176647513,-0.07676618971242373,0.08655735625982615,0.12718637833766616,0.0
0.4970857239062576,-0.208867375113068,-0.14006628215711608,-0.1563965564875029,-0.20646841275355043,0.09472305979524825,0.0
0.5196350061873949,-0.19511482835417496,-0.1820854297363266,-0.22275519866158097,-0.39934614572579485,0.03559344332631922,0.0
0.5466941449247636,-0.10801556615798287,-0.25561894566169435,-0.21577008011422827,-0.703499446024244,-0.0061451086434552785,0.0
0.5015955803624847,-0.16302563282747676,-0.2486157390749942,-0.18294001447533004,-0.10261117888235505,0.19559122823395178,0.0
0.5106152932749398,-0.1859465039702723,-0.220602974022187,-0.21297603226930778,-0.2046138180797769,0.1457368465180964,0.0
0.5015955803624847,-0.16760981508044118,-0.2486157390749942,-0.2241522236489897,-0.06273741601626463,0.09008544330252281,0.0
0.48355615453757034,-0.17677813946434348,-0.16807904720992312,-0.28282723052221675,-0.9149231031141825,-0.02585497962134976,0.0
0.5015955803624847,-0.1859465039702723,-0.16807904720992312,-0.18922662265887535,-0.9566514719640676,0.07849140030308642,0.0
0.5872825372587646,-0.19969901060713927,-0.25912054895504444,-0.1284560759084011,-0.47074798411597335,-0.007304513650448037,0.0
0.5241448626436228,-0.18136232171730787,-0.28713331400785136,-0.14312482975660484,-0.34463563677953685,0.09820127304860372,0.0
0.4790462980813432,-0.20428319286010369,-0.2661237248947476,-0.12496351769967325,0.15888650046940717,0.11675174034522255,0.0
0.44747730288774834,-0.17677813946434348,-0.189088636323027,-0.1696682853482979,-0.7739739983875569,0.03443403831932643,0.0
0.5015955803624847,-0.16302563282747676,-0.24161256313529078,-0.0872438685984013,-0.8583579768741076,0.13066459114911594,0.0
0.5196350061873949,-0.16302563282747676,-0.30113969653425493,-0.14801441295274145,-0.581096288035355,0.11211412341059142,0.0
0.44747730288774834,-0.1584414505745121,-0.3431588441134654,-0.18294001447533004,-0.36967263094541686,0.2605178591321078,0.0
0.5015955803624847,-0.17219399733340549,-0.35716522663986905,-0.26326889773767037,-0.09704739486103416,0.18631599524850093,0.0
0.5241448626436228,-0.17219399733340549,-0.3361556375267653,-0.2527912188516928,0.2117424147418917,0.20718527123338815,0.0
0.5241448626436228,-0.17219399733340549,-0.3361556375267653,-0.2262477611301028,0.3628917675542295,0.10631710279468463,0.0
0.5286547190998535,-0.19053068622323696,-0.2941364899475548,-0.16827126249078617,0.3137450426292922,0.014724167341431975,0.0
0.49257586745002974,-0.20428319286010369,-0.30113969653425493,-0.158492093968616,0.39627444906211223,0.06110033933917746,0.0
0.4970857239062576,-0.16302563282747676,-0.28713331400785136,-0.18433703839779028,0.4240933691687166,0.15269327125718454,0.0
0.5015955803624847,-0.14010476168468097,-0.30113969653425493,-0.18713108657550717,0.5845156840399014,0.20950408124737369,0.0
0.5015955803624847,-0.14010476168468097,-0.29763809324090484,-0.2562837770604207,0.6012070134838214,0.2697930991880499,0.0
0.4700265851688881,-0.1538573084435741,-0.29763809324090484,-0.3156573006871461,0.6651905184189901,0.33124152213571884,0.0
0.48355615453757034,-0.19053068622323696,-0.2696253281880979,-0.20738793444956985,0.8664139387332374,0.2697930991880499,0.0
0.5421842884685365,-0.19969901060713927,-0.2696253281880979,-0.24720311890205793,0.8321039033383615,0.19675063324094452,0.0
0.555713857837223,-0.21803569949697077,-0.2486157390749942,-0.2451075856807388,0.7653385403225959,0.17704076226305004,0.0
0.5512040013809922,-0.20428319286010369,-0.2381109598419407,-0.2555852645667163,0.9192698303856793,0.23848918521071902,0.0
0.5106152932749398,-0.13093643730077867,-0.22760618060888743,-0.07886171867394891,0.6095527234458666,0.18979421026947918,0.0
0.5015955803624847,-0.208867375113068,-0.16107585594672136,-0.0732736272439019,0.3712374548962321,0.18631599524850093,0.0
0.4970857239062576,-0.1859465039702723,-0.17158065050327326,-0.14801441295274145,0.49734980223266845,0.06805676231064282,0.0
0.5241448626436228,-0.10801556615798287,-0.2381109598419407,-0.2479016313957623,0.8005758165042522,0.12834578290275322,0.0
0.4610068722564331,-0.14927312619060978,-0.14706947342031784,-0.32194390461089745,0.3684555515755504,0.3903711492103847,0.0
0.4519871593439759,-0.16760981508044118,-0.11905670836751081,-0.13264714661083335,0.12828571097218489,0.4552977730380495,0.0
0.2806129297793644,-0.22261988174993508,-0.08053914875815191,-0.31426027569973736,-0.9918887029056389,0.3022564111018823,0.0
0.5512040013809922,-0.16760981508044118,-0.17858384176647513,-0.3931921363708031,-0.5792416707415389,0.3289227121217333,0.0
0.5196350061873949,-0.17219399733340549,-0.2241045773155371,-0.4015742862952555,-0.5727506233133951,0.3416761671986537,0.0
0.560223714293451,-0.21345151724400607,-0.22760618060888743,-0.28282723052221675,-0.2574697323522613,0.32312568708676953,0.0
0.5692431114338538,-0.23637238838680177,-0.23110778390223752,-0.17595489459679173,0.0411198178549308,0.18631599524850093,0.0
0.5647335707496781,-0.24554075289273086,-0.24511416642864112,-0.17385935818062712,0.12272192695086401,0.10631710279468463,0.0
0.5061054368187127,-0.21803569949697077,-0.2696253281880979,-0.1948147191474277,0.05873845453200632,0.12834578290275322,0.0
0.4790462980813432,-0.21803569949697077,-0.21359979808248383,-0.18294001447533004,-0.24541487828275407,0.16080910277088825,0.0
0.4970857239062576,-0.19511482835417496,-0.2241045773155371,-0.1403307797817874,-0.024718247823947825,0.22921395222526816,0.0
0.5376744320123086,-0.20428319286010369,-0.273126931481448,-0.12915458840210547,0.1004668078306124,0.18979421026947918,0.0
0.5286547190998535,-0.21345151724400607,-0.2486157390749942,-0.21157900728189907,-0.1155933302887492,0.1399398250183782,0.0
0.4790462980813432,-0.1859465039702723,-0.21009819478913377,-0.18573406251992836,-0.2036865094328687,0.1155923362220412,0.0
0.48806601099380187,-0.21803569949697077,-0.19609181226273018,-0.19760876699234817,-0.24448756963584595,0.1039982945483219,0.0
0.4700265851688881,-0.19053068622323696,-0.2346093565485906,-0.14591887547162835,-0.5477135839074299,0.2245763321972971,0.0
0.44747730288774834,-0.22720406400289947,-0.20309501884943032,0.09506776446461924,0.13014029999094787,0.032115228305340936,0.0
0.6504205276459571,-0.29138245505629606,-0.38517799169267597,-0.09772154748437885,0.39998363840965956,0.16544671926361368,0.0
0.4519871593439759,-0.21803569949697077,-0.19609181226273018,-0.13613970907935516,-0.18050410994076227,0.09356365478825548,0.0
0.48355615453757034,-0.22720406400289947,-0.20309501884943032,-0.0732736272439019,-0.03120932918215553,0.1202299530461959,0.0
0.4790462980813432,-0.23637238838680177,-0.21009819478913377,-0.20110132733097302,-0.008026907070006464,0.1457368465180964,0.0
0.5241448626436228,-0.19969901060713927,-0.32214925500036173,-0.16687423750337743,0.3072539725811058,0.1318239952722973,0.0
0.5196350061873949,-0.22261988174993508,-0.273126931481448,-0.13194863837692294,0.1996875606723844,0.14805565476445912,0.0
0.5015955803624847,-0.21345151724400607,-0.25912054895504444,-0.18433703839779028,0.16815946818326466,0.09704186804161097,0.0
0.465516728712661,-0.20428319286010369,-0.20309501884943032,-0.10400815140813022,-0.0803560541070928,0.1155923362220412,0.0
0.5241448626436228,-0.3188875084520562,-0.28713331400785136,-0.08095725615506201,0.11623085124766694,0.1735625472420718,0.0
0.5331645755560814,-0.28679827280333137,-0.2381109598419407,-0.19202067077003296,-0.09890198953480779,0.07153497379637547,0.0
0.4294378770628364,-0.19053068622323696,-0.24511416642864112,-0.21926264045285312,-0.2843613211919152,0.194431823226959,0.0
0.4519871593439759,-0.13552057943171666,-0.20309501884943032,-0.37223677859884796,-0.9510876653227042,0.43674732120813026,0.0
0.3212016378854165,-0.08509469501518707,-0.1575742679768697,-0.3924936153575108,-2.023042708162584,0.5561659379415074,0.0
0.44747730288774834,-0.2547090772766333,-0.17158065050327326,0.18098474155314057,-2.304940917615835,0.49123931411384264,0.0
0.32571149434164404,-0.2959666373092604,-0.2486157390749942,-0.1948147191474277,-3.9546016245251145,0.404283981012333,0.0
0.3753199153601526,-0.24095657063976655,-0.38517799169267597,-0.10261113494030938,-3.265620460989639,0.49007989496586746,0.0
0.6910092357520089,-0.22720406400289947,-0.6162833187018324,-0.01110604938256511,-1.4351365811170678,0.5561659379415074,0.0
0.5872825372587646,-0.24554075289273086,-0.6022769668224262,-0.3212453921171931,-0.8908133949751676,0.42631266200421297,0.0
0.4790462980813432,-0.3280558328359586,-0.5077338617839546,-0.3212453921171931,-0.9334690046118331,0.18283778022752264,0.0
0.44747730288774834,-0.36472921061562114,-0.49722905190390415,-0.0467301695223119,-0.7702648542800948,0.12370816574716924,0.0
0.465516728712661,-0.33722419734188736,-0.5042322584906043,0.1188171722113918,-0.13043007636891688,0.22109812424681005,0.0
0.5061054368187127,-0.21803569949697077,-0.630289731875233,-0.18154299028663268,0.46767628745229034,0.22921395222526816,0.0
0.38884948472883624,-0.23178820613383747,-0.5007306551972542,-0.14452185474401358,0.23399753951715394,0.2929811851869226,0.0
0.3933593411850649,-0.28221413067239337,-0.5007306551972542,-0.056509335914585075,0.09675761989681779,0.18167837522052988,0.0
0.4790462980813432,-0.31430332619909157,-0.5462513754228181,0.16491897975670405,0.32116342132438674,0.13530220852565278,0.0
0.4610068722564331,-0.2547090772766333,-0.6127817154084824,-0.32543646707941926,0.7764661083652374,0.15385267626417728,0.0
0.42492802060660817,-0.21803569949697077,-0.5322450235434115,-0.126360538427288,0.5835883980130359,0.28950297016594434,0.0
0.38433962827260837,-0.28221413067239337,-0.43770191850494,-0.27584211410476106,0.007737136347048095,0.32312568708676953,0.0
0.36630020244769645,-0.26387744178256234,-0.3816763883993259,0.09716331046532031,-0.7016448739705129,0.5294996369216565,0.0
0.3527706330790121,-0.23637238838680177,-0.4832227000244978,0.12021421423797644,-0.5912965248110461,0.6002233282072322,0.0
0.4384575899752922,-0.37848175737451456,-0.6022769668224262,-0.26606294771248784,-0.0785014594333192,0.42283446112421713,0.0
0.44747730288774834,-0.34639252172579005,-0.5637593918895688,-0.4141474941427582,-0.12115710300004874,0.2744307192160209,0.0
0.5241448626436228,-0.24095657063976655,-0.5602577885962184,-0.4337058269273047,0.11344896206451184,0.3880523391963992,0.0
0.4790462980813432,-0.31430332619909157,-0.574264140475625,-0.4944763712816447,0.0337014419873416,0.17472195224906453,0.0
0.40688891055374854,-0.30971914394612715,-0.5777657437689752,-0.31845135066196356,-0.21110488812796321,0.24544560818218436,0.0
0.42492802060660817,-0.25012489502366886,-0.542749833423462,-0.3638546286743956,-0.05995552400560419,0.22573573720428988,0.0
0.48355615453757034,-0.27304576616646464,-0.5812673470623252,-0.4916823213068273,0.4834403308693449,0.10052008129496644,0.0
0.4204181641503799,-0.3968184462643459,-0.5077338617839546,-0.3394067169535066,0.33692746474144125,0.015883572348424718,0.0
0.4384575899752922,-0.4426601885499375,-0.4587114769710467,-0.18922662265887535,0.38607418966637863,-0.27744571058797174,0.0
0.24904425035782074,-0.30513500181518916,-0.5847689503556756,-0.10889773886406076,-0.29270700853391773,-0.0791875816610518,0.0
0.28963264269182054,-0.14468894393764536,-0.5602577885962184,-0.4937778673075282,-0.741518580286497,0.2616772641391006,0.0
0.5331645755560814,-0.22720406400289947,-0.6162833187018324,-0.7145076790047009,-0.11466603295186234,0.27327131420902817,0.0
0.4970857239062576,-0.37389757512155014,-0.542749833423462,-0.6104293600406901,0.22565186348517263,0.0576221243181992,0.0
0.3302213507978723,-0.3555608862317187,-0.5532545820095183,-0.3952876653323283,-0.4605477021001968,0.03791225334030471,0.0
0.28963264269182054,-0.24095657063976655,-0.5567561853028683,-0.16128614181353645,-0.648788937077986,0.33124152213571884,0.0
0.4790462980813432,-0.23637238838680177,-0.6267881285818829,-0.3694427286240305,-0.16659463857743875,0.465732403960002,0.0
0.6819895228395538,-0.43349182404400843,-0.37817481575297274,-0.2311373443262394,0.6271713389166521,0.11675174034522255,0.0
0.8668930060007949,-0.14010476168468097,-0.9419317507494606,-1.6938215306503628,0.9943808581234048,-0.02585497962134976,0.0
0.30767206851673246,-0.35097670397875436,-0.2381109598419407,-0.06558998981315392,0.9118514516905846,-0.1893309866204518,0.0
0.35728048953523994,-0.2959666373092604,-0.43420034585858686,0.5511961417071681,-0.18050410994076227,-0.20672204758436077,0.0
0.3212016378854165,-0.2547090772766333,-0.630289731875233,-0.14522036297792398,0.09583032397368366,0.10052008129496644,0.0
0.298652355604276,-0.27304576616646464,-0.6022769668224262,-0.47072696353487203,-0.21110488812796321,0.2744307192160209,0.0
0.49257586745002974,-0.33264001508892294,-0.518238610370011,-0.4260221980161445,0.028137663621031376,0.2802277442509847,0.0
0.37982977181638083,-0.2959666373092604,-0.46921628685109723,-0.2583793102817398,-0.3381445441113077,0.20834467624038092,0.0
0.7406173409984633,-0.19053068622323696,-0.5707625984762689,0.8864819342151533,1.4125916969288685,-0.4246900192072106,0.0
0.298652355604276,-0.25012489502366886,-0.5532545820095183,-0.03695100313003869,0.2562526529823949,0.030955830368839362,0.0
0.3933593411850649,-0.21345151724400607,-0.542749833423462,-0.126360538427288,0.2571799503192817,0.13646161176502272,0.0
0.3933593411850649,-0.22720406400289947,-0.6197849219951826,-0.5210198290032347,0.32672720534570765,0.18051897374878273,0.0
0.3392410637103284,-0.33722419734188736,-0.5007306551972542,-0.8388427836098471,-0.45405660943196796,0.18979421026947918,0.0
0.38433962827260837,-0.31430332619909157,-0.47621949343779735,-0.6963463712075633,-0.24448756963584595,0.0877666332885373,0.0
0.40688891055374854,-0.30055081956222485,-0.42719713927188674,-0.14242631726290048,-0.4902212168805749,0.21530109921184626,0.0
0.40688891055374854,-0.30055081956222485,-0.42719713927188674,-0.10191262244660504,-0.08499254079152688,0.303415816108875,0.0
0.5241448626436228,-0.26387744178256234,-0.5917721569423756,-0.12496351769967325,0.28407155046895677,0.3764582891264716,0.0
0.4700265851688881,-0.30513500181518916,-0.6057785088217822,-0.27933467657328287,0.46582171539855927,0.09704186804161097,0.0
0.4700265851688881,-0.30513500181518916,-0.6057785088217822,-0.3037825968137598,0.16815946818326466,-0.002666893622476977,0.0
0.4159086234662043,-0.30513500181518916,-0.518238610370011,-0.17944745440294232,0.27016210172567584,-0.08614399756202597,0.0
0.32571149434164404,-0.23637238838680177,-0.5147370683706548,-0.1927191827312631,0.15981379780629398,0.08312901679581186,0.0
0.32571149434164404,-0.23637238838680177,-0.5147370683706548,-0.09842005997808322,-0.1953408447109087,0.40776221017429365,0.0
0.298652355604276,-0.21803569949697077,-0.4797210967311475,-0.12147095523115142,-0.998379840813953,0.5666005971454248,0.0
0.6414008147334977,-0.4105709127791863,-0.6688072455140964,-0.3037825968137598,-1.1059461961725678,0.03907165834729749,0.0
0.6414008147334977,-0.4105709127791863,-0.6688072455140964,-0.24440907318703442,0.06986601515244663,-0.07570936664007355,0.0
0.555713857837223,-0.36472921061562114,-0.6022769668224262,-0.15430102113628677,0.29334452383782494,-0.08382518754804044,0.0
0.27610307332313655,-0.24095657063976655,-0.47621949343779735,0.051061519959183684,0.2979809992122377,0.03559344332631922,0.0
0.27610307332313655,-0.24095657063976655,-0.47621949343779735,0.1369784800085294,-0.2500513536571669,0.14109923002537098,0.0
0.37982977181638083,-0.19511482835417496,-0.6442960837546398,-0.25698228955412505,0.04390170703808593,0.10863591104104735,0.0
0.465516728712661,-0.21803569949697077,-0.6828136586874968,-0.5252109210046368,0.2080332253943444,0.10283888954132915,0.0
0.44747730288774834,-0.3188875084520562,-0.6092801121151323,-0.4846972134089594,0.5084773702753104,0.08660723181679014,0.0
0.42492802060660817,-0.31430332619909157,-0.5567561853028683,-0.4525656557377345,0.45562143338278316,0.13066459114911594,0.0
0.3392410637103284,-0.21803569949697077,-0.47621949343779735,-0.32054688814307664,0.4064747310778884,0.2396485902177118,0.0
0.41139876700997674,-0.27304576616646464,-0.5112354650773047,-0.02996587819299504,0.5687516406228468,0.2628366691460933,0.0
0.4790462980813432,-0.34180837959485205,-0.5287434202500615,0.30462137626252206,0.6308805282641995,0.3381979521776754,0.0
0.40688891055374854,-0.37848175737451456,-0.5077338617839546,0.2676002566941303,0.27016210172567584,0.13414280351866,0.0
0.36630020244769645,-0.34639252172579005,-0.49722905190390415,0.11253056828764031,0.30261749720669306,0.15037446301082183,0.0
0.4700265851688881,-0.1859465039702723,-0.5847689503556756,-0.1305516133895142,0.31003587590178755,0.11791114446840391,0.0
0.4790462980813432,-0.19053068622323696,-0.5672609951829188,-0.20040281483726866,0.19597837132483717,0.07733199529609368,0.0
0.4294378770628364,-0.26846158391350033,-0.5357466268367616,0.19355798347899503,0.2117424147418917,0.15964969776389548,0.0
0.42492802060660817,-0.31430332619909157,-0.542749833423462,0.055951098895526415,0.4686036187192411,0.030955830368839362,0.0
0.39786919764129236,-0.25012489502366886,-0.521740213663361,-0.28981235545926043,0.4574760506765994,-0.03397081467029907,0.0
0.40688891055374854,-0.25012489502366886,-0.5112354650773047,-0.28143021405439594,0.4908587095644396,0.11443293165695413,0.0
0.44747730288774834,-0.2592932595295976,-0.4867243033178479,-0.10261113494030938,0.361964481527364,0.32544449710075507,0.0
0.4610068722564331,-0.30513500181518916,-0.4867243033178479,0.08319306059123295,0.2543980583086213,0.41819684109624605,0.0
0.44747730288774834,-0.27304576616646464,-0.5007306551972542,-0.21646859260793264,0.22286997147451218,0.04718748632575559,0.0
0.38884948472883624,-0.27762994841942906,-0.46921628685109723,-0.300290034345238,0.18670539795596902,-0.06295591156315321,0.0
0.4610068722564331,-0.33722419734188736,-0.45170833167834057,-0.16198465430724082,0.2998355938860113,-0.08730340256901872,0.0
0.43394773351906396,-0.31430332619909157,-0.46921628685109723,-0.01320159538326612,0.47973118676188314,0.01820238236241025,0.0
0.4519871593439759,-0.26846158391350033,-0.4832227000244978,0.1474561759336828,0.6753907551946814,-0.07570936664007355,0.0
0.40688891055374854,-0.2592932595295976,-0.43420034585858686,0.25782106474309335,0.7282466920872084,-0.2983149724318766,0.0
0.4384575899752922,-0.30055081956222485,-0.42369553597853643,-0.01878969533290104,0.17557784122334855,-0.4699068286209103,0.0
0.5241448626436228,-0.3280558328359586,-0.46921628685109723,0.11811866823727536,0.8024304337980686,0.1202299530461959,0.0
0.4700265851688881,-0.30513500181518916,-0.42019396333218334,0.13208891811136247,0.7097007453494724,0.23848918521071902,0.0
0.40688891055374854,-0.21803569949697077,-0.4026859775124296,-0.004120941484697294,0.7505018281724921,0.08081021031707196,0.0
0.3392410637103284,-0.25012489502366886,-0.32565085829371176,-0.32264241710460184,0.18763269529285584,-0.11165089357488424,0.0
0.4519871593439759,-0.30055081956222485,-0.3921811982793764,-0.4525656557377345,0.14868623541866285,-0.051361875634208035,0.0
0.5737529678900809,-0.35097670397875436,-0.45170833167834057,-0.24301204819962569,0.5511330251520613,0.20950408124737369,0.0
0.555713857837223,-0.29138245505629606,-0.4587114769710467,-0.12286798021856014,0.845086043434734,0.32312568708676953,0.0
0.4519871593439759,-0.14468894393764536,-0.45170833167834057,-0.126360538427288,0.7421561182104466,0.3405167621916609,0.0
0.49257586745002974,-0.27304576616646464,-0.33265406488041216,0.026613591199118925,0.7069188420287904,0.18167837522052988,0.0
0.48806601099380187,-0.29138245505629606,-0.30113969653425493,0.22219695312293447,0.6002797274569559,-0.05252128064120077,0.0
0.4700265851688881,-0.24095657063976655,-0.32915246158706213,0.19984458740274652,0.5140411316765885,0.017042977355417464,0.0
0.44747730288774834,-0.2547090772766333,-0.3466604474068158,0.03918681608579752,0.2451250962497744,0.09936067628797368,0.0
0.44747730288774834,-0.28679827280333137,-0.3186476823540086,-0.15220548578507065,0.16630487350949105,0.15385267626417728,0.0
0.43394773351906396,-0.30513500181518916,-0.3816763883993259,-0.07187660225649317,0.04946548823190149,0.14689624975746635,0.0
0.49257586745002974,-0.30513500181518916,-0.27662853477479804,-0.10889773886406076,-0.005245020714356683,0.1457368465180964,0.0
0.49257586745002974,-0.30971914394612715,-0.28713331400785136,-0.11099327634517386,0.048538190895014675,0.11675174034522255,0.0
0.5106152932749398,-0.29138245505629606,-0.35716522663986905,-0.13474268409194642,0.11808544592144059,0.11443293165695413,0.0
0.4790462980813432,-0.29138245505629606,-0.35366362334651896,-0.1284560759084011,0.10788518087069628,0.09008544330252281,0.0
0.4610068722564331,-0.2959666373092604,-0.32915246158706213,-0.13683822157305953,0.10973977271696458,0.06689735730365005,0.0
0.4610068722564331,-0.2959666373092604,-0.32915246158706213,-0.1256620301933776,0.09304843337677586,0.10052008129496644,0.0
0.4790462980813432,-0.30513500181518916,-0.32565085829371176,-0.10680220138294767,0.06708412490897701,0.09124484830951558,0.0
0.49257586745002974,-0.32347169070502063,-0.3361556375267653,-0.1305516133895142,0.0782116855294173,0.11791114446840391,0.0
0.49257586745002974,-0.32347169070502063,-0.3361556375267653,-0.14591887547162835,0.10788518087069628,0.12950518702593458,0.0
0.4790462980813432,-0.30971914394612715,-0.32565085829371176,-0.14731590045903709,0.08841194951984711,0.13414280351866,0.0
0.4700265851688881,-0.28221413067239337,-0.35366362334651896,-0.15220548578507065,0.05966575186889314,0.05994093433218472,0.0
0.4700265851688881,-0.28221413067239337,-0.35366362334651896,-0.1354411965856508,0.08841194951984711,0.07965080531007922,0.0
0.4790462980813432,-0.29138245505629606,-0.32915246158706213,-0.14591887547162835,0.08841194951984711,0.09472305979524825,0.0
0.4700265851688881,-0.28221413067239337,-0.3431588441134654,-0.1375367340667639,0.09304843337677586,0.13414280351866,0.0
0.4700265851688881,-0.28221413067239337,-0.3431588441134654,-0.12426500520596888,0.09490302663679684,0.08312901679581186,0.0
0.4610068722564331,-0.27304576616646464,-0.35366362334651896,-0.14242631726290048,0.07542979546266677,0.10863591104104735,0.0
0.4700265851688881,-0.27762994841942906,-0.3431588441134654,-0.1556980461236955,0.05224737741505661,0.11675174034522255,0.0
0.47453644162511605,-0.27762994841942906,-0.30814287247395816,-0.14801441295274145,0.06337493838893507,0.10863591104104735,0.0
0.465516728712661,-0.27762994841942906,-0.32915246158706213,-0.15709506898120726,0.04204711236431229,0.15153386625019177,0.0
0.4610068722564331,-0.27762994841942906,-0.35366362334651896,-0.15220548578507065,0.04204711236431229,0.11675174034522255,0.0
0.4790462980813432,-0.27762994841942906,-0.3431588441134654,-0.1438233422503092,0.05688386127198536,0.12718637833766616,0.0
0.4700265851688881,-0.28679827280333137,-0.35716522663986905,-0.1536025086425824,0.05224737741505661,0.12486757009130345,0.0
0.44747730288774834,-0.2959666373092604,-0.3606668299332191,-0.18154299028663268,0.040192520518044006,0.12370816574716924,0.0
0.48355615453757034,-0.28221413067239337,-0.3711716091662726,-0.18782959860329657,0.05781115719511951,0.1202299530461959,0.0
0.4790462980813432,-0.2959666373092604,-0.3711716091662726,-0.18433703839779028,0.03926522318115717,0.14225863326474092,0.0
0.4610068722564331,-0.2592932595295976,-0.3396572408201154,-0.18503555049213896,0.034628739324228434,0.1260269742144848,0.0
0.4610068722564331,-0.2547090772766333,-0.35016202005316893,-0.19202067077003296,0.042974409701199104,0.1434180382717337,0.0
0.4610068722564331,-0.27304576616646464,-0.35016202005316893,-0.20319686374713763,0.04204711236431229,0.15269327125718454,0.0
0.4610068722564331,-0.27762994841942906,-0.3606668299332191,-0.2395194899908978,0.01701010406090558,0.15964969776389548,0.0
0.465516728712661,-0.26846158391350033,-0.35016202005316893,-0.24091651071851258,0.03926522318115717,0.16544671926361368,0.0
0.4700265851688881,-0.26387744178256234,-0.3606668299332191,-0.26606294771248784,0.016082806724018746,0.18283778022752264,0.0
0.4519871593439759,-0.27304576616646464,-0.3431588441134654,-0.2772391390921698,0.0031006496626140097,0.14921505977145186,0.0
0.4519871593439759,-0.27304576616646464,-0.36767000587292253,-0.28352574301592115,0.0012460606438510222,0.20950408124737369,0.0
0.48355615453757034,-0.29138245505629606,-0.35366362334651896,-0.26815848519360097,-0.029354734508381903,0.17935956874178996,0.0
0.4610068722564331,-0.29138245505629606,-0.36767000587292253,-0.2653644352187835,-0.018227172120750763,0.1758813572560573,0.0
0.465516728712661,-0.32347169070502063,-0.3431588441134654,-0.25069568137057974,0.016082806724018746,0.1677655257423536,0.0
0.4610068722564331,-0.30971914394612715,-0.3466604474068158,-0.24161502321221695,-0.006172318051243487,0.18631599524850093,0.0
0.465516728712661,-0.30055081956222485,-0.3361556375267653,-0.24161502321221695,-0.024718247823947825,0.20138824619842435,0.0
0.47453644162511605,-0.28221413067239337,-0.3606668299332191,-0.2311373443262394,-0.06366471335315146,0.18283778022752264,0.0
0.4700265851688881,-0.29138245505629606,-0.3641684025795722,-0.20948347193068295,-0.05995552400560419,0.16892493074934634,0.0
0.45649701580020413,-0.29138245505629606,-0.3431588441134654,-0.18852811069764525,-0.06551930802692506,0.18747540025549367,0.0
0.465516728712661,-0.2959666373092604,-0.3431588441134654,-0.18852811069764525,-0.05995552400560419,0.1561714827429172,0.0
0.47453644162511605,-0.30055081956222485,-0.35366362334651896,-0.17595489459679173,-0.08684713546530048,0.14805565476445912,0.0
0.48355615453757034,-0.28221413067239337,-0.3606668299332191,-0.1927191827312631,-0.040482291241002395,0.1619685042426354,0.0
0.48355615453757034,-0.28221413067239337,-0.3606668299332191,-0.19760876699234817,-0.032136626519042345,0.15269327125718454,0.0
0.4790462980813432,-0.27304576616646464,-0.3606668299332191,-0.21437305512681953,-0.053464453957417786,0.1677655257423536,0.0
0.4700265851688881,-0.27762994841942906,-0.3606668299332191,-0.24021800248460218,-0.07015579471135915,0.12718637833766616,0.0
0.47453644162511605,-0.2592932595295976,-0.37817481575297274,-0.2262477611301028,-0.038627696567228746,0.16312790924962817,0.0
0.465516728712661,-0.31430332619909157,-0.36767000587292253,-0.20249835125343327,-0.03120932918215553,0.15153386625019177,0.0
0.4790462980813432,-0.31430332619909157,-0.3711716091662726,-0.21018198442438732,-0.03491851852970277,0.15733088774990997,0.0
0.48355615453757034,-0.31430332619909157,-0.3921811982793764,-0.20529239909835373,0.03184685014107331,0.12950518702593458,0.0
0.4790462980813432,-0.31430332619909157,-0.37817481575297274,-0.2017998387597289,0.047610893558127865,0.13646161176502272,0.0
0.47453644162511605,-0.30513500181518916,-0.35366362334651896,-0.17735191851925197,0.048538190895014675,0.10515769778769186,0.0
0.4700265851688881,-0.33722419734188736,-0.36767000587292253,-0.15919060646232036,0.06337493838893507,0.08312901679581186,0.0
0.465516728712661,-0.3280558328359586,-0.3606668299332191,-0.1123903013325826,0.08099357577288692,0.0877666332885373,0.0
0.4700265851688881,-0.3280558328359586,-0.36767000587292253,-0.09003791857321874,0.1143762565738933,0.08428842180280463,0.0
0.4700265851688881,-0.33722419734188736,-0.3746732124596227,-0.08794238109210566,0.11623085124766694,0.10515769778769186,0.0
0.47453644162511605,-0.3188875084520562,-0.38517799169267597,-0.058604873395698184,0.08563005892293933,0.05530331430421367,0.0
0.48355615453757034,-0.30513500181518916,-0.38517799169267597,-0.08514833111728821,0.09675761989681779,0.07849140030308642,0.0
0.48355615453757034,-0.30513500181518916,-0.3886795949860263,-0.08305279363617508,0.13014029999094787,0.04718748632575559,0.0
0.4700265851688881,-0.31430332619909157,-0.42019396333218334,-0.07187660225649317,0.14312245705235263,0.07617259382434653,0.0
0.45649701580020413,-0.28679827280333137,-0.4026859775124296,-0.09143493504103954,0.12921300265406105,0.09240425154888553,0.0
0.4790462980813432,-0.27762994841942906,-0.4096891534521331,-0.11378732631999132,0.09861221315683878,0.07965080531007922,0.0
0.465516728712661,-0.28221413067239337,-0.42019396333218334,-0.13404417159824206,0.10973977271696458,0.11327352753377277,0.0
0.4700265851688881,-0.28221413067239337,-0.3956827709257295,-0.15080846079766194,0.1013941023399939,0.12254876151351146,0.0
0.4610068722564331,-0.28221413067239337,-0.3921811982793764,-0.1766534060255476,0.11715814858455377,0.11791114446840391,0.0
0.45649701580020413,-0.27762994841942906,-0.38517799169267597,-0.16617572500967306,0.13106759732783468,0.1202299530461959,0.0
0.4610068722564331,-0.28221413067239337,-0.4131907567454831,-0.16617572500967306,0.13848597036791854,0.1376210167720155,0.0
0.4610068722564331,-0.30055081956222485,-0.4026859775124296,-0.15988911682612775,0.13477678667538195,0.12834578290275322,0.0
0.4700265851688881,-0.29138245505629606,-0.4026859775124296,-0.1787489424417122,0.12550381896152443,0.12370816574716924,0.0
0.465516728712661,-0.30513500181518916,-0.3886795949860263,-0.1675727499970818,0.1208673351045957,0.1260269742144848,0.0
0.4700265851688881,-0.33722419734188736,-0.4166923600388332,-0.1354411965856508,0.14868623541866285,0.10863591104104735,0.0
0.4610068722564331,-0.30971914394612715,-0.4096891534521331,-0.1494114379401502,0.18392350594530857,0.12834578290275322,0.0
0.465516728712661,-0.30513500181518916,-0.4026859775124296,-0.15220548578507065,0.16908675986514085,0.11443293165695413,0.0
0.45649701580020413,-0.2959666373092604,-0.3956827709257295,-0.17316084568692275,0.1366313813491556,0.11907054881253812,0.0
0.4384575899752922,-0.3188875084520562,-0.37817481575297274,-0.17525638210308736,0.08470276299980518,0.1202299530461959,0.0
0.43394773351906396,-0.2959666373092604,-0.3956827709257295,-0.174557869609383,0.04390170703808593,0.15733088774990997,0.0
0.4429674464315201,-0.30513500181518916,-0.3886795949860263,-0.17316084568692275,0.04575630171185956,0.172403142235079,0.0
0.4700265851688881,-0.31430332619909157,-0.4096891534521331,-0.1605876293198321,0.06244764105204826,0.15385267626417728,0.0
0.4700265851688881,-0.3280558328359586,-0.4096891534521331,-0.14661738796533272,0.09212113603988906,0.14109923002537098,0.0
0.4610068722564331,-0.3280558328359586,-0.36767000587292253,-0.16198465430724082,0.07079331178245711,0.15037446301082183,0.0
0.44747730288774834,-0.3280558328359586,-0.3956827709257295,-0.15919060646232036,0.03926522318115717,0.16080910277088825,0.0
0.44747730288774834,-0.30971914394612715,-0.4026859775124296,-0.15919060646232036,0.017937401397792384,0.13414280351866,0.0
0.4519871593439759,-0.31430332619909157,-0.4131907567454831,-0.16198465430724082,0.022573882427215818,0.1318239952722973,0.0
0.45649701580020413,-0.32347169070502063,-0.4166923600388332,-0.158492093968616,0.025355774437876254,0.1677655257423536,0.0
0.4610068722564331,-0.33722419734188736,-0.3921811982793764,-0.1563965564875029,0.022573882427215818,0.15964969776389548,0.0
0.45649701580020413,-0.34180837959485205,-0.39918437421907954,-0.16687423750337743,0.021646585090329015,0.14225863326474092,0.0
0.4610068722564331,-0.34180837959485205,-0.39918437421907954,-0.16338167716475258,0.04390170703808593,0.13646161176502272,0.0
0.45649701580020413,-0.32347169070502063,-0.37817481575297274,-0.13893375479437867,0.04204711236431229,0.1561714827429172,0.0
0.44747730288774834,-0.3280558328359586,-0.3956827709257295,-0.12705905092099237,0.009591731020821725,0.14689624975746635,0.0
0.44747730288774834,-0.32347169070502063,-0.39918437421907954,-0.12705905092099237,0.014228212050245147,0.16312790924962817,0.0
0.4519871593439759,-0.31430332619909157,-0.4131907567454831,-0.15499953362999114,0.014228212050245147,0.18283778022752264,0.0
0.4519871593439759,-0.3188875084520562,-0.38517799169267597,-0.13893375479437867,0.01144632003958468,0.18051897374878273,0.0
0.4790462980813432,-0.33264001508892294,-0.3816763883993259,-0.14102929227549177,-0.00709960973311967,0.14805565476445912,0.0
0.465516728712661,-0.31430332619909157,-0.3921811982793764,-0.12077244273744706,0.01144632003958468,0.14805565476445912,0.0
0.4610068722564331,-0.29138245505629606,-0.42719713927188674,-0.12147095523115142,0.024428477100989446,0.14921505977145186,0.0
0.45649701580020413,-0.30513500181518916,-0.3606668299332191,-0.13963226728808303,0.01144632003958468,0.18167837522052988,0.0
0.4610068722564331,-0.30055081956222485,-0.3956827709257295,-0.13404417159824206,-0.020081766794524395,0.19675063324094452,0.0
0.47453644162511605,-0.3280558328359586,-0.3746732124596227,-0.1605876293198321,0.014228212050245147,0.15037446301082183,0.0
0.4700265851688881,-0.3280558328359586,-0.38517799169267597,-0.17805042994800782,0.03184685014107331,0.12254876151351146,0.0
0.4700265851688881,-0.36014506848468314,-0.35366362334651896,-0.16198465430724082,0.04204711236431229,0.14225863326474092,0.0
0.4610068722564331,-0.36014506848468314,-0.3466604474068158,-0.1536025086425824,-0.0006085340299226078,0.16080910277088825,0.0
0.4519871593439759,-0.35097670397875436,-0.3606668299332191,-0.14102929227549177,0.010519022702697866,0.16080910277088825,0.0
0.4610068722564331,-0.34180837959485205,-0.3816763883993259,-0.12216946772485578,0.03184685014107331,0.15849029275690274,0.0
0.465516728712661,-0.3280558328359586,-0.37817481575297274,-0.13823524656046826,0.051320080078169794,0.14457744151110363,0.0
0.465516728712661,-0.3280558328359586,-0.3956827709257295,-0.1354411965856508,0.05595656393509854,0.15385267626417728,0.0
0.4610068722564331,-0.30971914394612715,-0.3746732124596227,-0.13404417159824206,0.061520345128914106,0.12834578290275322,0.0
0.4610068722564331,-0.30971914394612715,-0.3746732124596227,-0.11937541775003832,0.042974409701199104,0.10631710279468463,0.0
0.4519871593439759,-0.2959666373092604,-0.3956827709257295,-0.13474268409194642,0.034628739324228434,0.13878042001138544,0.0
0.4610068722564331,-0.30055081956222485,-0.4096891534521331,-0.12915458840210547,0.0337014419873416,0.14457744151110363,0.0
0.4610068722564331,-0.30055081956222485,-0.4096891534521331,-0.13963226728808303,0.06337493838893507,0.13878042001138544,0.0
0.4610068722564331,-0.32347169070502063,-0.39918437421907954,-0.14102929227549177,0.10324869701376753,0.11675174034522255,0.0
0.4610068722564331,-0.32347169070502063,-0.39918437421907954,-0.14522036297792398,0.12828571097218489,0.1097953151642287,0.0
0.4610068722564331,-0.3188875084520562,-0.4026859775124296,-0.16198465430724082,0.11344896206451184,0.09356365478825548,0.0
0.4519871593439759,-0.3188875084520562,-0.3816763883993259,-0.16198465430724082,0.12921300265406105,0.09472305979524825,0.0
0.44747730288774834,-0.3280558328359586,-0.39918437421907954,-0.14661738796533272,0.1088124782075831,0.11675174034522255,0.0
0.4610068722564331,-0.3280558328359586,-0.3956827709257295,-0.15988911682612775,0.0819208724028974,0.1202299530461959,0.0
0.45649701580020413,-0.34639252172579005,-0.3956827709257295,-0.17316084568692275,0.10510329168754115,0.06805676231064282,0.0
0.4610068722564331,-0.33264001508892294,-0.37817481575297274,-0.15010995043385456,0.09490302663679684,0.09588246480224101,0.0
0.4610068722564331,-0.32347169070502063,-0.3816763883993259,-0.16687423750337743,0.10973977271696458,0.06921616731763558,0.0
0.4610068722564331,-0.33722419734188736,-0.38517799169267597,-0.16827126249078617,0.0819208724028974,0.10283888954132915,0.0
0.44747730288774834,-0.31430332619909157,-0.37817481575297274,-0.16827126249078617,0.08006627914287644,0.13530220852565278,0.0
0.4519871593439759,-0.32347169070502063,-0.3956827709257295,-0.1605876293198321,0.055029268011964394,0.13414280351866,0.0
0.44747730288774834,-0.33264001508892294,-0.3956827709257295,-0.18084447832540257,0.09304843337677586,0.11907054881253812,0.0
0.4610068722564331,-0.3555608862317187,-0.4131907567454831,-0.15150697329136628,0.10417599435065435,0.09820127304860372,0.0
0.4610068722564331,-0.35097670397875436,-0.4096891534521331,-0.1536025086425824,0.1236492242877508,0.08892603829553006,0.0
0.4610068722564331,-0.33722419734188736,-0.42019396333218334,-0.14312482975660484,0.11530355391078013,0.08660723181679014,0.0
0.44747730288774834,-0.32347169070502063,-0.4166923600388332,-0.15010995043385456,0.07079331178245711,0.11327352753377277,0.0
0.4519871593439759,-0.31430332619909157,-0.39918437421907954,-0.14102929227549177,0.06337493838893507,0.1039982945483219,0.0
0.4519871593439759,-0.33722419734188736,-0.4166923600388332,-0.15779358147491163,0.08841194951984711,0.10863591104104735,0.0
0.44747730288774834,-0.34639252172579005,-0.3956827709257295,-0.18294001447533004,0.08933924685673393,0.13298339939547865,0.0
0.4519871593439759,-0.33264001508892294,-0.36767000587292253,-0.18014596636417243,0.05781115719511951,0.11907054881253812,0.0
0.4519871593439759,-0.31430332619909157,-0.38517799169267597,-0.18224150224786279,0.07172060858918668,0.09936067628797368,0.0
0.4700265851688881,-0.31430332619909157,-0.4166923600388332,-0.16338167716475258,0.06615682827896652,0.10631710279468463,0.0
0.4610068722564331,-0.31430332619909157,-0.42369553597853643,-0.1717638217644625,0.04390170703808593,0.13298339939547865,0.0
0.4610068722564331,-0.33264001508892294,-0.42019396333218334,-0.18713108657550717,0.07728438889940682,0.12254876151351146,0.0
0.4610068722564331,-0.34180837959485205,-0.4026859775124296,-0.1969102544986438,0.07172060858918668,0.10863591104104735,0.0
0.44747730288774834,-0.3280558328359586,-0.39918437421907954,-0.19551323057618356,0.07450249874429675,0.07269437880336825,0.0
0.4519871593439759,-0.32347169070502063,-0.38517799169267597,-0.20878495943697858,0.048538190895014675,0.09124484830951558,0.0
0.44747730288774834,-0.3188875084520562,-0.3711716091662726,-0.19760876699234817,0.06522953164895604,0.11095471928741006,0.0
0.4429674464315201,-0.30513500181518916,-0.3816763883993259,-0.20878495943697858,0.055029268011964394,0.12834578290275322,0.0
0.45649701580020413,-0.30513500181518916,-0.3886795949860263,-0.24371056069333005,0.06893871852243615,0.18283778022752264,0.0
0.4519871593439759,-0.3280558328359586,-0.3921811982793764,-0.2479016313957623,0.09304843337677586,0.15037446301082183,0.0
0.45649701580020413,-0.31430332619909157,-0.3921811982793764,-0.2562837770604207,0.08563005892293933,0.11675174034522255,0.0
0.4610068722564331,-0.31430332619909157,-0.3956827709257295,-0.26047484776285296,0.05688386127198536,0.10515769778769186,0.0
0.465516728712661,-0.31430332619909157,-0.3921811982793764,-0.24860014388946666,0.07728438889940682,0.13646161176502272,0.0
0.4700265851688881,-0.30971914394612715,-0.3816763883993259,-0.2555852645667163,0.07450249874429675,0.15501208127117005,0.0
0.4610068722564331,-0.33264001508892294,-0.38517799169267597,-0.2611733602565573,0.08748465218296031,0.16312790924962817,0.0
0.4610068722564331,-0.33264001508892294,-0.4026859775124296,-0.26676146020619224,0.07913898251286595,0.1318239952722973,0.0
0.4700265851688881,-0.3188875084520562,-0.3746732124596227,-0.24999716887687537,0.051320080078169794,0.13414280351866,0.0
0.465516728712661,-0.32347169070502063,-0.4412035217982901,-0.22135817580406925,0.0680114215389875,0.11443293165695413,0.0
0.4610068722564331,-0.34180837959485205,-0.42369553597853643,-0.2178656154654444,0.05966575186889314,0.15849029275690274,0.0
0.44747730288774834,-0.33264001508892294,-0.42019396333218334,-0.20040281483726866,0.07728438889940682,0.1457368465180964,0.0
0.45649701580020413,-0.33264001508892294,-0.4096891534521331,-0.20459388660464936,0.08748465218296031,0.14225863326474092,0.0
0.44747730288774834,-0.3188875084520562,-0.3956827709257295,-0.1927191827312631,0.11994003776770887,0.12950518702593458,0.0
0.4610068722564331,-0.34180837959485205,-0.3606668299332191,-0.20110132733097302,0.08099357577288692,0.12718637833766616,0.0
0.4610068722564331,-0.33722419734188736,-0.3956827709257295,-0.18294001447533004,0.08470276299980518,0.12486757009130345,0.0
0.4610068722564331,-0.33722419734188736,-0.39918437421907954,-0.18363852643656017,0.09212113603988906,0.09356365478825548,0.0
0.4519871593439759,-0.33264001508892294,-0.3956827709257295,-0.18084447832540257,0.09212113603988906,0.13414280351866,0.0
0.4610068722564331,-0.33264001508892294,-0.3921811982793764,-0.19062364684757274,0.0911938401167549,0.11907054881253812,0.0
0.4519871593439759,-0.31430332619909157,-0.40618758080577994,-0.1969102544986438,0.05595656393509854,0.14109923002537098,0.0
0.45649701580020413,-0.3280558328359586,-0.4026859775124296,-0.20668942408576246,0.07079331178245711,0.16660612073536082,0.0
0.4519871593439759,-0.3280558328359586,-0.38517799169267597,-0.2178656154654444,0.042974409701199104,0.13414280351866,0.0
0.45649701580020413,-0.34639252172579005,-0.3886795949860263,-0.21926264045285312,0.05688386127198536,0.17704076226305004,0.0
0.4700265851688881,-0.33722419734188736,-0.42369553597853643,-0.20948347193068295,0.0680114215389875,0.18863480526248644,0.0
0.465516728712661,-0.34639252172579005,-0.38517799169267597,-0.20110132733097302,0.054101970675077576,0.15501208127117005,0.0
0.4610068722564331,-0.36931339286858583,-0.42019396333218334,-0.23253436931364813,0.07635709226939634,0.13530220852565278,0.0
0.45649701580020413,-0.37848175737451456,-0.4026859775124296,-0.22834329435142195,0.0911938401167549,0.17935956874178996,0.0
0.4429674464315201,-0.37848175737451456,-0.4026859775124296,-0.2241522236489897,0.06244764105204826,0.15153386625019177,0.0
0.44747730288774834,-0.40598681077027465,-0.4096891534521331,-0.20878495943697858,0.09675761989681779,0.15269327125718454,0.0
0.4519871593439759,-0.387650081758417,-0.4026859775124296,-0.18852811069764525,0.11344896206451184,0.12834578290275322,0.0
0.44747730288774834,-0.3922342640113816,-0.42369553597853643,-0.17735191851925197,0.07913898251286595,0.12834578290275322,0.0
0.43394773351906396,-0.3922342640113816,-0.3956827709257295,-0.17316084568692275,0.07542979546266677,0.11095471928741006,0.0
0.43394773351906396,-0.3922342640113816,-0.3956827709257295,-0.1766534060255476,0.05873845453200632,0.13530220852565278,0.0
0.44747730288774834,-0.40140262851731034,-0.4026859775124296,-0.1787489424417122,0.0411198178549308,0.14805565476445912,0.0
0.44747730288774834,-0.36931339286858583,-0.4096891534521331,-0.1787489424417122,0.08006627914287644,0.12486757009130345,0.0
0.44747730288774834,-0.36931339286858583,-0.4096891534521331,-0.19760876699234817,0.09675761989681779,0.12370816574716924,0.0
0.45649701580020413,-0.40140262851731034,-0.37817481575297274,-0.19202067077003296,0.0680114215389875,0.12950518702593458,0.0
0.4384575899752922,-0.40140262851731034,-0.3886795949860263,-0.2108804947881947,0.06244764105204826,0.10283888954132915,0.0
0.44747730288774834,-0.3922342640113816,-0.3921811982793764,-0.2332328818073525,0.05781115719511951,0.1457368465180964,0.0
0.44747730288774834,-0.387650081758417,-0.38517799169267597,-0.236026927522376,0.08377546566291837,0.11791114446840391,0.0
0.465516728712661,-0.38306589950545256,-0.3956827709257295,-0.24301204819962569,0.1088124782075831,0.1457368465180964,0.0
0.465516728712661,-0.3922342640113816,-0.3956827709257295,-0.2674599726998966,0.10417599435065435,0.14921505977145186,0.0
0.4790462980813432,-0.37848175737451456,-0.39918437421907954,-0.30098854683894233,0.14775893808177606,0.09240425154888553,0.0
0.4519871593439759,-0.387650081758417,-0.3746732124596227,-0.2926064054340779,0.1366313813491556,0.13298339939547865,0.0
0.4429674464315201,-0.36931339286858583,-0.3746732124596227,-0.3191498631556679,0.10973977271696458,0.11211412341059142,0.0
0.43394773351906396,-0.36472921061562114,-0.3921811982793764,-0.3114662257249199,0.1004668078306124,0.13298339939547865,0.0
0.43394773351906396,-0.3922342640113816,-0.3746732124596227,-0.3114662257249199,0.04946548823190149,0.13066459114911594,0.0
0.44747730288774834,-0.36014506848468314,-0.37817481575297274,-0.3170543256745548,0.030919552804186505,0.16080910277088825,0.0
0.4610068722564331,-0.3555608862317187,-0.38517799169267597,-0.3352156419912804,0.019791990416555372,0.18515659024150816,0.0
0.465516728712661,-0.37848175737451456,-0.4096891534521331,-0.35337694978841805,0.05317467475194342,0.15849029275690274,0.0
0.4610068722564331,-0.36931339286858583,-0.42369553597853643,-0.3680457036366218,0.0911938401167549,0.2396485902177118,0.0
0.4429674464315201,-0.37848175737451456,-0.3956827709257295,-0.3463918248513744,0.10603058619692264,0.2060258662263954,0.0
0.44747730288774834,-0.36931339286858583,-0.42369553597853643,-0.34359777487655696,0.07728438889940682,0.18979421026947918,0.0
0.4384575899752922,-0.34180837959485205,-0.42019396333218334,-0.36595015763592076,0.0726479053075567,0.2303733572322609,0.0
0.4384575899752922,-0.34180837959485205,-0.4026859775124296,-0.4043683192308971,0.042974409701199104,0.2396485902177118,0.0
0.4429674464315201,-0.33264001508892294,-0.4026859775124296,-0.39668469031973697,0.08470276299980518,0.22341692719030437,0.0
0.4610068722564331,-0.33722419734188736,-0.4026859775124296,-0.3827144574848255,0.07079331178245711,0.22109812424681005,0.0
0.4610068722564331,-0.33264001508892294,-0.42369553597853643,-0.3910965903701021,0.12457652162463764,0.20950408124737369,0.0
0.44747730288774834,-0.30513500181518916,-0.4096891534521331,-0.40366981525678064,0.11252166472762502,0.23848918521071902,0.0
0.44747730288774834,-0.28679827280333137,-0.42369553597853643,-0.4190370730791008,0.11066707005385137,0.24196739316120608,0.0
0.4519871593439759,-0.27304576616646464,-0.42369553597853643,-0.434404347940597,0.08655735625982615,0.22689514221128262,0.0
0.44747730288774834,-0.29138245505629606,-0.43420034585858686,-0.4777121055110917,0.10788518087069628,0.21993871923981728,0.0
0.4610068722564331,-0.30055081956222485,-0.43069874256523677,-0.4798076174334411,0.16259568981695444,0.21877931423282454,0.0
0.4610068722564331,-0.28221413067239337,-0.42019396333218334,-0.4742195174838061,0.17279594921268807,0.23269216724624642,0.0
0.4519871593439759,-0.27304576616646464,-0.4447051250916404,-0.47002845956075584,0.14404975438923945,0.2837059451309806,0.0
0.465516728712661,-0.28679827280333137,-0.4482067283849904,-0.49587341330822926,0.18114162524466942,0.2442862031751916,0.0
0.4700265851688881,-0.30055081956222485,-0.43069874256523677,-0.504954067206798,0.19319647931417672,0.27095250419504263,0.0
0.4610068722564331,-0.31430332619909157,-0.4587114769710467,-0.4944763712816447,0.1802143279077826,0.24892382320316264,0.0
0.4384575899752922,-0.3188875084520562,-0.4447051250916404,-0.5028585212060972,0.18299621991844306,0.2315327622392537,0.0
0.4384575899752922,-0.31430332619909157,-0.4552099349716906,-0.5056525711809146,0.16445027883571742,0.23848918521071902,0.0
0.42492802060660817,-0.33722419734188736,-0.4587114769710467,-0.4888882713320099,0.15332272210309694,0.21877931423282454,0.0
0.4429674464315201,-0.2959666373092604,-0.43420034585858686,-0.5035570251802137,0.14961353275554967,0.21877931423282454,0.0
0.4294378770628364,-0.25012489502366886,-0.4657146835577469,-0.5252109210046368,0.04390170703808593,0.22341692719030437,0.0
0.43394773351906396,-0.24095657063976655,-0.46921628685109723,-0.5643275865737295,-0.042336885914776023,0.19675063324094452,0.0
0.44747730288774834,-0.25012489502366886,-0.46921628685109723,-0.625796651941362,-0.02750013983460825,0.2037070562124099,0.0
0.4519871593439759,-0.24095657063976655,-0.47621949343779735,-0.6411639097636822,-0.0562463346580569,0.19675063324094452,0.0
0.4384575899752922,-0.208867375113068,-0.5007306551972542,-0.6649133175104548,-0.10632035691988101,0.24544560818218436,0.0
0.4610068722564331,-0.19969901060713927,-0.4867243033178479,-0.7054270251061321,-0.11466603295186234,0.2999376152288792,0.0
0.47453644162511605,-0.208867375113068,-0.4937274486105541,-0.72777939082632,-0.1128114382780887,0.3486325830996278,0.0
0.465516728712661,-0.17219399733340549,-0.4657146835577469,-0.7019344370788464,-0.07108308073822468,0.35558901314158436,0.0
0.4159086234662043,-0.1538573084435741,-0.4727178901444473,-0.6830746253075924,-0.1953408447109087,0.3428355722056464,0.0
0.4159086234662043,-0.1538573084435741,-0.4727178901444473,-0.6327817598392296,-0.26488811104735593,0.3880523391963992,0.0
0.4700265851688881,-0.17219399733340549,-0.5007306551972542,-0.5307990209542717,-0.15175790380729232,0.36138603817654813,0.0
0.4610068722564331,-0.1859465039702723,-0.5112354650773047,-0.44767607680139176,-0.040482291241002395,0.35558901314158436,0.0
0.465516728712661,-0.16760981508044118,-0.49722905190390415,-0.3736338035862567,0.03741063133488887,0.3671830490705295,0.0
0.49257586745002974,-0.17677813946434348,-0.5042322584906043,-0.30098854683894233,0.020719287753442176,0.2941405901939154,0.0
0.5061054368187127,-0.21345151724400607,-0.5252418169567113,-0.25209270635798847,0.05595656393509854,0.2605178591321078,0.0
0.5196350061873949,-0.27762994841942906,-0.4937274486105541,-0.126360538427288,0.1514681274293233,0.22689514221128262,0.0
0.5331645755560814,-0.29138245505629606,-0.4867243033178479,0.009849308389390002,0.23028835016960672,0.15849029275690274,0.0
0.5015955803624847,-0.27304576616646464,-0.4447051250916404,0.14047106803581505,0.1978329659986108,-0.03513021967729183,0.0
0.465516728712661,-0.22720406400289947,-0.42019396333218334,0.2836660184905668,0.20154214403613674,-0.1487518255166877,0.0
0.4610068722564331,-0.19511482835417496,-0.45170833167834057,0.4513088806662077,0.19041458730351626,-0.11744790446886562,0.0
0.4610068722564331,-0.19511482835417496,-0.45170833167834057,0.46038953456477655,0.2098878200681181,-0.08382518754804044,0.0
0.4610068722564331,-0.17219399733340549,-0.521740213663361,0.42476545702296936,0.20246944137302356,-0.10585386853992047,0.0
0.4519871593439759,-0.22261988174993508,-0.4937274486105541,0.3563112837574691,0.1737232465495749,-0.16034587558661526,0.0
0.4519871593439759,-0.22261988174993508,-0.4937274486105541,0.3262752380085936,0.0726479053075567,-0.20440323757037526,0.0
0.38433962827260837,-0.30055081956222485,-0.4587114769710467,0.3444365798840828,-0.008026907070006464,-0.19164979663443737,0.0
0.38433962827260837,-0.3188875084520562,-0.4587114769710467,0.34862763780713324,-0.01729987478386397,-0.15802706557262974,0.0
0.38433962827260837,-0.3188875084520562,-0.4587114769710467,0.38495025340140865,-0.009881501743780104,-0.08614399756202597,0.0
0.37982977181638083,-0.3555608862317187,-0.4482067283849904,0.4114937111229984,0.0411198178549308,-0.04208663557826597,0.0
0.44747730288774834,-0.46558101957070663,-0.4096891534521331,0.48623448831225013,0.08563005892293933,-0.013101538685411829,0.0
0.44747730288774834,-0.46558101957070663,-0.4096891534521331,0.5749455494539407,0.13755867303103173,-0.021217359593378754,0.0
0.48355615453757034,-0.4426601885499375,-0.42019396333218334,0.6608625265424624,0.1792870305708958,-0.06991234160510976,0.0
0.48806601099380187,-0.46558101957070663,-0.4026859775124296,0.7006776960856714,0.22008807946385175,-0.10121626265293182,0.0
0.465516728712661,-0.4609968373177422,-0.4026859775124296,0.6790238343395998,0.2367794202177931,-0.10121626265293182,0.0
0.38884948472883624,-0.387650081758417,-0.4096891534521331,0.5952024032517793,0.22565186348517263,-0.015420348699397346,0.0
0.38884948472883624,-0.36014506848468314,-0.39918437421907954,0.45689698061584255,0.16908675986514085,0.08660723181679014,0.0
0.35728048953523994,-0.30055081956222485,-0.42719713927188674,0.302525830261821,0.007737136347048095,0.1376210167720155,0.0
0.4294378770628364,-0.22720406400289947,-0.42019396333218334,0.15234577190920132,-0.1035384762192419,0.06457855082491015,0.0
0.4610068722564331,-0.24095657063976655,-0.4096891534521331,0.09157521051568528,-0.18606787134204056,0.02283999531989005,0.0
0.5331645755560814,-0.35097670397875436,-0.4096891534521331,0.1146261142883414,0.055029268011964394,0.004289529348988354,0.0
0.5331645755560814,-0.36014506848468314,-0.3921811982793764,0.14605913390709815,0.2543980583086213,0.012405357327446444,0.0
0.4519871593439759,-0.40140262851731034,-0.35016202005316893,0.19774904140204547,0.27108941037258394,0.025158805333875583,0.0
0.3933593411850649,-0.38306589950545256,-0.30113969653425493,0.22289545709705091,0.13755867303103173,0.10283888954132915,0.0
0.3933593411850649,-0.37848175737451456,-0.35016202005316893,0.1984475453761619,0.08841194951984711,0.15037446301082183,0.0
0.42492802060660817,-0.36931339286858583,-0.37817481575297274,0.20054309137686296,0.055029268011964394,0.23732978020372625,0.0
0.4610068722564331,-0.37389757512155014,-0.4096891534521331,0.08249455661711651,-0.04419148058854964,0.2141416942048535,0.0
0.49257586745002974,-0.4243234595380797,-0.42019396333218334,0.012643358364207461,-0.02379095048706101,0.18631599524850093,0.0
0.48355615453757034,-0.47016520182367094,-0.4587114769710467,-0.05930338588940253,-0.04140958857788919,0.18863480526248644,0.0
0.4294378770628364,-0.49308603284444047,-0.42019396333218334,-0.08305279363617508,-0.039554993904115564,0.1097953151642287,0.0
0.33473120725410016,-0.4747493840766357,-0.40618758080577994,-0.09003791857321874,-0.05902822666871737,0.11211412341059142,0.0
0.253554106814049,-0.4976702150974051,-0.37817481575297274,-0.13474268409194642,-0.22779624019192593,0.12254876151351146,0.0
0.23100482453290846,-0.5756011529096949,-0.3606668299332191,-0.08864089358581004,-0.5746051953671261,0.22109812424681005,0.0
0.36630020244769645,-0.5756011529096949,-0.32565085829371176,0.03988532005991394,-0.48743931355989306,0.2303733572322609,0.0
0.5466941449247636,-0.5435119573829964,-0.3361556375267653,0.16142642580777014,-0.22594164551815235,0.23732978020372625,0.0
0.6774796663833259,-0.5297594106241033,-0.36767000587292253,0.2026386373775638,-0.06366471335315146,0.28718416015195886,0.0
0.8759127189132535,-0.5343435928770677,-0.30464129982760496,0.20194009932509563,0.6661178044458556,0.3324009271427116,0.0
0.8308144701230261,-0.4105709127791863,-0.2941364899475548,0.11043502228693931,1.0759829332892743,0.19095360820598076,0.0
0.5015955803624847,-0.33722419734188736,-0.25211734236834427,-0.11867690951612792,0.9980900022308669,-0.01889854957939321,0.0
0.18139640351440064,-0.30971914394612715,-0.21710140137583392,-0.2674599726998966,0.5029135636339468,-0.11860732361684079,0.0
0.010022173949788118,-0.4243234595380797,-0.17858384176647513,-0.3596635537121694,-0.23243271556633868,0.05066570134673386,0.0
0.05512073851206843,-0.598522064174517,-0.1855870330296767,-0.16408018965845694,-0.5198946864208678,0.2744307192160209,0.0
0.1588471212332601,-0.6581162729749489,-0.189088636323027,0.08878116054086778,-0.6914445919547368,0.5109491850917373,0.0
0.8037553313856574,-0.6168587129423216,-0.4552099349716906,0.29693776439053765,-0.7025721147572935,0.6744251920908391,0.0
0.9525802786691298,-0.6122745306893573,-0.6022769668224262,0.18587433752865917,0.49827708825953393,0.2663148841670716,0.0
0.7090486615769197,-0.6397795439630911,-0.6477976870479898,0.060840677831869146,1.1622215743097266,-0.09425983261097527,0.0
0.046101025599612294,-0.6122745306893573,-0.30113969653425493,0.0803990276555913,0.7291739781140739,-0.3330970943596945,0.0
-0.06664507003403553,-0.548096139635961,-0.25561894566169435,0.08389158160452527,-0.3539085875283623,-0.40613959565925617,0.0
-0.08468449585894744,-0.4105709127791863,-0.29063491730120167,0.03220169114875381,-1.004870888242097,-0.21947548852029872,0.0
0.253554106814049,-0.37848175737451456,-0.42019396333218334,0.104148418363188,-1.1458199929687223,0.0634191458179174,0.0
0.754146910367147,-0.4472443708029019,-0.5532545820095183,0.27109281064306406,-0.3001253646089697,0.22109812424681005,0.0
0.9796394174064956,-0.5068385796033338,-0.6477976870479898,0.22219695312293447,0.5029135636339468,0.09704186804161097,0.0
0.8398341830354812,-0.46558101957070663,-0.5882705536490256,0.0475689489710741,1.0490913218295779,-0.19280918750044768,0.0
0.5737529678900809,-0.3280558328359586,-0.46921628685109723,-0.10959625135776513,1.2067317560001232,-0.2913585423899203,0.0
0.3302213507978723,-0.24095657063976655,-0.3361556375267653,-0.27933467657328287,0.8015031477712029,-0.1893309866204518,0.0
0.22649496807668096,-0.17219399733340549,-0.2486157390749942,-0.3778248785484829,0.36103719550049845,0.05994093433218472,0.0
0.24453439390159248,-0.1859465039702723,-0.21009819478913377,-0.36874420761073823,-0.07757416209643238,0.26747428917406435,0.0
0.3708100589039243,-0.25012489502366886,-0.25561894566169435,-0.34848737085207543,-0.23985109426143333,0.3161692711857954,0.0
0.49257586745002974,-0.3280558328359586,-0.33265406488041216,-0.3910965903701021,-0.06644660536381189,0.21761990922583177,0.0
0.5241448626436228,-0.36472921061562114,-0.38517799169267597,-0.445580530800691,0.12457652162463764,0.05994093433218472,0.0
0.5015955803624847,-0.36472921061562114,-0.37817481575297274,-0.508446621155732,0.17001405720202764,-0.010782728671426312,0.0
0.4610068722564331,-0.30971914394612715,-0.3886795949860263,-0.549658832725526,0.10788518087069628,0.05994093433218472,0.0
0.42492802060660817,-0.2592932595295976,-0.3641684025795722,-0.6111278980931583,0.18763269529285584,0.09472305979524825,0.0
0.3708100589039243,-0.24095657063976655,-0.3431588441134654,-0.6900597332054601,0.06615682827896652,0.11675174034522255,0.0
0.3753199153601526,-0.26387744178256234,-0.38517799169267597,-0.7228898289291534,-0.0673739027006987,0.1376210167720155,0.0
0.38433962827260837,-0.33722419734188736,-0.42719713927188674,-0.7648005444730636,-0.25839701837912676,0.1932724182199663,0.0
0.4429674464315201,-0.45641265506477796,-0.47621949343779735,-0.6900597332054601,-0.3974915284319786,0.1932724182199663,0.0
0.5331645755560814,-0.5160069441092628,-0.5392482301301119,-0.5908710442953196,-0.3223805006942531,0.2744307192160209,0.0
0.5917923937149917,-0.5435119573829964,-0.574264140475625,-0.43510285191471343,0.10695788353380944,0.24892382320316264,0.0
0.5963022501712196,-0.5343435928770677,-0.5007306551972542,-0.36874420761073823,0.5056954669546286,0.16892493074934634,0.0
0.48806601099380187,-0.4289076417910441,-0.4482067283849904,-0.38830255743446046,0.7208283133921141,0.003130124341995596,0.0
0.40688891055374854,-0.3280558328359586,-0.38517799169267597,-0.43719839791541426,0.7347377847554375,-0.04788366061322976,0.0
0.3753199153601526,-0.28221413067239337,-0.35366362334651896,-0.5280049709794541,0.45376686132905203,-0.05715890066917183,0.0
0.3617903459914689,-0.22261988174993508,-0.29763809324090484,-0.536387086825555,0.14868623541866285,0.06689735730365005,0.0
0.40688891055374854,-0.2592932595295976,-0.2941364899475548,-0.5447692367500073,-0.03770039923034195,0.14109923002537098,0.0
0.42492802060660817,-0.3188875084520562,-0.32915246158706213,-0.49028531335859443,-0.05160985928364416,0.20950408124737369,0.0
0.4610068722564331,-0.38306589950545256,-0.3921811982793764,-0.4316102979657795,-0.040482291241002395,0.2721119092020354,0.0
0.4700265851688881,-0.3922342640113816,-0.3956827709257295,-0.3561709997632355,-0.03491851852970277,0.23501097018974074,0.0
0.4700265851688881,-0.40140262851731034,-0.42719713927188674,-0.33731117095280555,-0.0006085340299226078,0.1712437407633319,5.0
0.44747730288774834,-0.43807600629697285,-0.4447051250916404,-0.300290034345238,0.08006627914287644,0.14689624975746635,5.0
0.3753199153601526,-0.43807600629697285,-0.42019396333218334,-0.2611733602565573,0.05781115719511951,0.027477615347861098,5.0
0.4294378770628364,-0.43807600629697285,-0.4166923600388332,-0.15010995043385456,-0.09055631350282646,0.05066570134673386,5.0
0.5106152932749398,-0.41515509503215065,-0.4587114769710467,-0.0579063609019938,0.05781115719511951,0.05530331430421367,5.0
0.5331645755560814,-0.37848175737451456,-0.43420034585858686,-0.06209743586421997,0.2692348156988103,0.05298450429022818,5.0
0.48806601099380187,-0.3188875084520562,-0.42719713927188674,-0.08375130612987947,0.3749466442437794,0.030955830368839362,5.0
0.44747730288774834,-0.27304576616646464,-0.37817481575297274,-0.1403307797817874,0.33600017871457577,0.07501318881735378,5.0
0.41139876700997674,-0.26846158391350033,-0.32915246158706213,-0.19970430340851278,0.1505408300924365,0.11211412341059142,5.0
0.39786919764129236,-0.28221413067239337,-0.3466604474068158,-0.21926264045285312,0.06337493838893507,0.15733088774990997,5.0
0.40688891055374854,-0.31430332619909157,-0.35016202005316893,-0.22834329435142195,-0.03120932918215553,0.14109923002537098,5.0
0.4519871593439759,-0.33722419734188736,-0.3606668299332191,-0.1969102544986438,-0.0729376754119983,0.1399398250183782,5.0
0.4610068722564331,-0.34180837959485205,-0.42019396333218334,-0.18433703839779028,-0.06644660536381189,0.1202299530461959,5.0
0.49257586745002974,-0.34639252172579005,-0.4727178901444473,-0.174557869609383,-0.013590691091327354,0.08544782680979739,5.0
0.5106152932749398,-0.37389757512155014,-0.45170833167834057,-0.15010995043385456,0.08748465218296031,0.07617259382434653,5.0
0.5015955803624847,-0.3280558328359586,-0.47621949343779735,-0.11029476385146951,0.23307024218026715,0.0054489343559810865,5.0
0.5015955803624847,-0.31430332619909157,-0.4412035217982901,-0.08933940607951439,0.32579991931884217,0.03559344332631922,5.0
0.4790462980813432,-0.2959666373092604,-0.42719713927188674,-0.09492749750956138,0.39998363840965956,0.04718748632575559,5.0
0.4700265851688881,-0.28679827280333137,-0.3921811982793764,-0.15430102113628677,0.45005767198150504,0.028637020354853843,5.0
0.4700265851688881,-0.28221413067239337,-0.35366362334651896,-0.19062364684757274,0.4018382330834332,0.006608339362973871,5.0
0.4519871593439759,-0.26846158391350033,-0.3466604474068158,-0.22834329435142195,0.39256528233460747,0.014724167341431975,5.0
0.4384575899752922,-0.28221413067239337,-0.3746732124596227,-0.2960989593830118,0.3434185574096703,0.05066570134673386,5.0
0.4294378770628364,-0.29138245505629606,-0.3711716091662726,-0.3394067169535066,0.2571799503192817,0.11791114446840391,5.0
0.4294378770628364,-0.29138245505629606,-0.3711716091662726,-0.3596635537121694,0.17557784122334855,0.15849029275690274,5.0
0.4159086234662043,-0.33722419734188736,-0.3466604474068158,-0.3778248785484829,0.13941326770480536,0.1318239952722973,5.0
0.4294378770628364,-0.36014506848468314,-0.35716522663986905,-0.38201593647153326,0.08099357577288692,0.13530220852565278,5.0
0.4294378770628364,-0.36014506848468314,-0.35716522663986905,-0.3638546286743956,0.03648333399800208,0.09936067628797368,5.0
0.4384575899752922,-0.3922342640113816,-0.4026859775124296,-0.34150224591503175,0.00495524433638765,0.06805676231064282,5.0
0.45649701580020413,-0.3922342640113816,-0.4096891534521331,-0.29120938044666916,0.005882541673274454,0.033274633312333685,5.0
0.4700265851688881,-0.4426601885499375,-0.42719713927188674,-0.16547721464586568,0.09675761989681779,-0.0003480836084914865,5.0
0.48806601099380187,-0.4472443708029019,-0.43069874256523677,-0.11099327634517386,0.22843375549583309,-0.03397081467029907,5.0
0.4700265851688881,-0.41515509503215065,-0.4166923600388332,-0.05441379843347196,0.3378547733883494,-0.0003480836084914865,5.0
0.4700265851688881,-0.37848175737451456,-0.40618758080577994,-0.03555397814262996,0.3721647409230976,0.019361787369402996,5.0
0.465516728712661,-0.34180837959485205,-0.38517799169267597,-0.04882570700342498,0.438930103938863,0.049506296339741074,5.0
0.4384575899752922,-0.3280558328359586,-0.37817481575297274,-0.061398923370515626,0.31559963730306584,0.03559344332631922,5.0
0.4384575899752922,-0.3280558328359586,-0.37817481575297274,-0.08933940607951439,0.21823348479007812,0.10052008129496644,5.0
0.42492802060660817,-0.31430332619909157,-0.35366362334651896,-0.13404417159824206,0.08470276299980518,0.18051897374878273,5.0
0.42492802060660817,-0.3188875084520562,-0.35366362334651896,-0.14591887547162835,0.035556036661115245,0.20254765120541712,5.0
0.4294378770628364,-0.34639252172579005,-0.37817481575297274,-0.14801441295274145,-0.004317723377469857,0.1932724182199663,5.0
0.44747730288774834,-0.40140262851731034,-0.35366362334651896,-0.1256620301933776,-0.06273741601626463,0.13878042001138544,5.0
0.465516728712661,-0.4289076417910441,-0.3606668299332191,-0.10750071387665204,-0.032136626519042345,0.11443293165695413,5.0
0.465516728712661,-0.4105709127791863,-0.35366362334651896,-0.09632452249697011,-0.010808799080666908,0.07849140030308642,5.0
0.44747730288774834,-0.38306589950545256,-0.3396572408201154,-0.08375130612987947,-0.009881501743780104,0.07733199529609368,5.0
0.44747730288774834,-0.36931339286858583,-0.35366362334651896,-0.05371528593976761,-0.03584581586658961,0.08660723181679014,5.0
0.4519871593439759,-0.36014506848468314,-0.3361556375267653,-0.04882570700342498,-0.030282031845268696,0.08544782680979739,5.0
0.4700265851688881,-0.33722419734188736,-0.33265406488041216,-0.060001898383106884,-0.01451798842821419,0.09356365478825548,5.0
0.48355615453757034,-0.31430332619909157,-0.35366362334651896,-0.10400815140813022,0.016082806724018746,0.15964969776389548,5.0
0.4610068722564331,-0.28679827280333137,-0.35366362334651896,-0.1675727499970818,0.004027946999500814,0.16544671926361368,5.0
0.4700265851688881,-0.27304576616646464,-0.35366362334651896,-0.2262477611301028,0.028137663621031376,0.15964969776389548,5.0
0.48806601099380187,-0.28221413067239337,-0.4026859775124296,-0.2807317015606916,0.04390170703808593,0.1712437407633319,5.0
0.4790462980813432,-0.28679827280333137,-0.38517799169267597,-0.34569332087725796,0.06708412490897701,0.18979421026947918,5.0
0.4519871593439759,-0.30513500181518916,-0.36767000587292253,-0.3526784287751258,0.025355774437876254,0.21761990922583177,5.0
0.4610068722564331,-0.34639252172579005,-0.3396572408201154,-0.35896504973805293,-0.00709960973311967,0.2037070562124099,5.0
0.4610068722564331,-0.32347169070502063,-0.3431588441134654,-0.36874420761073823,-0.0024631287036962165,0.19095360820598076,5.0
0.4610068722564331,-0.3280558328359586,-0.3606668299332191,-0.36315612470027914,0.01144632003958468,0.194431823226959,5.0
0.4700265851688881,-0.33722419734188736,-0.3606668299332191,-0.3470903458646667,0.0337014419873416,0.1561714827429172,5.0
0.47453644162511605,-0.34639252172579005,-0.3466604474068158,-0.30308408432005546,0.0411198178549308,0.16660612073536082,5.0
0.48806601099380187,-0.36014506848468314,-0.3921811982793764,-0.26815848519360097,0.05688386127198536,0.15037446301082183,5.0
0.4700265851688881,-0.35097670397875436,-0.3886795949860263,-0.24860014388946666,0.09675761989681779,0.1202299530461959,5.0
0.48806601099380187,-0.33722419734188736,-0.36767000587292253,-0.22345371115528534,0.1366313813491556,0.1202299530461959,5.0
0.4610068722564331,-0.33722419734188736,-0.38517799169267597,-0.24860014388946666,0.13014029999094787,0.10863591104104735,5.0
0.45649701580020413,-0.30971914394612715,-0.36767000587292253,-0.22694627362380718,0.10510329168754115,0.11211412341059142,5.0
0.4610068722564331,-0.30971914394612715,-0.35366362334651896,-0.22275519866158097,0.09583032397368366,0.10863591104104735,5.0
0.4610068722564331,-0.28221413067239337,-0.3606668299332191,-0.23462990253496727,0.07172060858918668,0.1457368465180964,5.0
0.4700265851688881,-0.29138245505629606,-0.3641684025795722,-0.20948347193068295,0.04668359622124105,0.12834578290275322,5.0
0.4519871593439759,-0.30055081956222485,-0.36767000587292253,-0.2178656154654444,0.005882541673274454,0.10052008129496644,5.0
0.4519871593439759,-0.29138245505629606,-0.3816763883993259,-0.249298656383171,0.05781115719511951,0.07037557232462836,5.0
0.4429674464315201,-0.28679827280333137,-0.3886795949860263,-0.25977633526914856,0.035556036661115245,0.14805565476445912,5.0
0.45649701580020413,-0.30513500181518916,-0.3921811982793764,-0.2653644352187835,0.0337014419873416,0.13414280351866,5.0
0.4700265851688881,-0.32347169070502063,-0.38517799169267597,-0.22974031933883068,0.022573882427215818,0.15733088774990997,5.0
0.4790462980813432,-0.3188875084520562,-0.3956827709257295,-0.20878495943697858,0.0337014419873416,0.11675174034522255,5.0
0.4790462980813432,-0.3188875084520562,-0.3816763883993259,-0.1990057909148084,0.10232139967688071,0.11211412341059142,5.0
0.4700265851688881,-0.33264001508892294,-0.3816763883993259,-0.18782959860329657,0.1208673351045957,0.11907054881253812,5.0
0.4610068722564331,-0.3280558328359586,-0.3746732124596227,-0.1717638217644625,0.1208673351045957,0.09472305979524825,5.0
0.4610068722564331,-0.32347169070502063,-0.38517799169267597,-0.17106531033570663,0.14219515971546579,0.0518251063537266,5.0
0.4790462980813432,-0.3280558328359586,-0.3956827709257295,-0.15709506898120726,0.1848508032821954,0.073853783810361,5.0
0.4790462980813432,-0.3280558328359586,-0.36767000587292253,-0.16827126249078617,0.20339673870991035,0.010086547313460927,5.0
0.4700265851688881,-0.30971914394612715,-0.4026859775124296,-0.18503555049213896,0.19412377665106353,0.030955830368839362,5.0
0.465516728712661,-0.28679827280333137,-0.3886795949860263,-0.18294001447533004,0.11994003776770887,0.09240425154888553,5.0
0.4610068722564331,-0.31430332619909157,-0.4026859775124296,-0.1899251346201055,0.0819208724028974,0.073853783810361,5.0
0.4610068722564331,-0.32347169070502063,-0.37817481575297274,-0.18154299028663268,0.11344896206451184,0.062259740810924634,5.0
0.4610068722564331,-0.32347169070502063,-0.37817481575297274,-0.18922662265887535,0.12272192695086401,0.10515769778769186,5.0
0.4610068722564331,-0.32347169070502063,-0.39918437421907954,-0.17246233425816687,0.12921300265406105,0.10515769778769186,5.0
0.44747730288774834,-0.33722419734188736,-0.3886795949860263,-0.1626831646710482,0.10788518087069628,0.11791114446840391,5.0
0.4519871593439759,-0.33722419734188736,-0.38517799169267597,-0.1536025086425824,0.061520345128914106,0.12718637833766616,5.0
0.4384575899752922,-0.34180837959485205,-0.3606668299332191,-0.14522036297792398,0.05039278415503565,0.14689624975746635,5.0
0.4384575899752922,-0.33722419734188736,-0.3606668299332191,-0.13474268409194642,0.014228212050245147,0.15733088774990997,5.0
0.43394773351906396,-0.33264001508892294,-0.38517799169267597,-0.13125012588321858,-0.0024631287036962165,0.1457368465180964,5.0
0.44747730288774834,-0.34180837959485205,-0.37817481575297274,-0.10400815140813022,0.008664433683934889,0.1399398250183782,5.0
0.465516728712661,-0.3280558328359586,-0.37817481575297274,-0.09632452249697011,0.060593047792027295,0.13878042001138544,5.0
0.4519871593439759,-0.387650081758417,-0.3746732124596227,-0.06349446085162871,0.05873845453200632,0.11907054881253812,5.0
0.49257586745002974,-0.37848175737451456,-0.3956827709257295,-0.03625248211674641,0.09861221315683878,0.08081021031707196,5.0
0.48806601099380187,-0.3555608862317187,-0.3886795949860263,-0.019488199307017454,0.1857781006190822,0.0019707264054940306,5.0
0.4700265851688881,-0.31430332619909157,-0.3816763883993259,0.002864183452346354,0.16723217084637784,-0.011942133678419098,5.0
0.4700265851688881,-0.30971914394612715,-0.3431588441134654,-0.003422420471404981,0.16445027883571742,-0.022376764600371486,5.0
0.4519871593439759,-0.30513500181518916,-0.3641684025795722,-0.01320159538326612,0.14683164074488922,0.025158805333875583,5.0
0.465516728712661,-0.31430332619909157,-0.35716522663986905,0.0077537623886889916,0.1505408300924365,0.07153497379637547,5.0
0.4610068722564331,-0.31430332619909157,-0.3466604474068158,-0.01110604938256511,0.1514681274293233,0.0518251063537266,5.0
0.45649701580020413,-0.29138245505629606,-0.35716522663986905,-0.020885224294426186,0.14961353275554967,0.026318210340868353,5.0
0.4610068722564331,-0.28221413067239337,-0.32214925500036173,-0.03415695315522126,0.1236492242877508,0.04023106335429022,5.0
0.4700265851688881,-0.28679827280333137,-0.35366362334651896,-0.05930338588940253,0.09953951049372559,0.07733199529609368,5.0
0.4700265851688881,-0.29138245505629606,-0.3641684025795722,-0.08654535610469692,0.15239542476621012,0.0634191458179174,5.0
0.4790462980813432,-0.31430332619909157,-0.35366362334651896,-0.10540517639553894,0.1319948946647215,0.09356365478825548,5.0
0.4790462980813432,-0.30971914394612715,-0.36767000587292253,-0.1305516133895142,0.15795920313252038,0.1097953151642287,5.0
0.4790462980813432,-0.30971914394612715,-0.36767000587292253,-0.13125012588321858,0.1802143279077826,0.05994093433218472,5.0
0.4790462980813432,-0.31430332619909157,-0.35016202005316893,-0.14801441295274145,0.20525133338368395,0.03791225334030471,5.0
0.4700265851688881,-0.33264001508892294,-0.3606668299332191,-0.12496351769967325,0.17465054388646167,0.023999400326882823,5.0
0.4700265851688881,-0.33264001508892294,-0.3606668299332191,-0.11867690951612792,0.17465054388646167,0.0634191458179174,5.0
0.4700265851688881,-0.36014506848468314,-0.3431588441134654,-0.08165576864876639,0.15517731112185992,0.04023106335429022,5.0
0.45649701580020413,-0.36014506848468314,-0.3396572408201154,-0.05161975697824245,0.1792870305708958,0.05878152932519197,5.0
0.45649701580020413,-0.36014506848468314,-0.3396572408201154,-0.02018672032030977,0.1792870305708958,0.09008544330252281,5.0
0.44747730288774834,-0.34639252172579005,-0.3431588441134654,7.013347752889476e-05,0.18948728996662947,0.06110033933917746,5.0
0.48806601099380187,-0.31430332619909157,-0.3466604474068158,0.012643358364207461,0.20246944137302356,0.03559344332631922,5.0
0.48806601099380187,-0.31430332619909157,-0.3466604474068158,0.0021656794782299376,0.2108151174050049,0.023999400326882823,5.0
0.4790462980813432,-0.26387744178256234,-0.32214925500036173,-0.0327599281678125,0.16723217084637784,0.07733199529609368,5.0
0.4610068722564331,-0.27304576616646464,-0.3186476823540086,-0.05511231092717634,0.1208673351045957,0.07153497379637547,5.0
0.4610068722564331,-0.27304576616646464,-0.3186476823540086,-0.08654535610469692,0.14590434340800243,0.09356365478825548,5.0
0.4790462980813432,-0.29138245505629606,-0.35016202005316893,-0.08235428114247074,0.1978329659986108,0.10631710279468463,5.0
0.4700265851688881,-0.30513500181518916,-0.3361556375267653,-0.12286798021856014,0.20246944137302356,0.07733199529609368,5.0
0.465516728712661,-0.29138245505629606,-0.3361556375267653,-0.1494114379401502,0.17743243589712213,0.04139046836128301,5.0
0.45649701580020413,-0.28221413067239337,-0.3361556375267653,-0.15919060646232036,0.13848597036791854,0.0576221243181992,5.0
0.465516728712661,-0.29138245505629606,-0.3466604474068158,-0.17595489459679173,0.1088124782075831,0.09588246480224101,5.0
0.47453644162511605,-0.2959666373092604,-0.35016202005316893,-0.15919060646232036,0.12550381896152443,0.10052008129496644,5.0
0.4610068722564331,-0.3555608862317187,-0.33265406488041216,-0.13194863837692294,0.12272192695086401,0.13878042001138544,5.0
0.4519871593439759,-0.36014506848468314,-0.3186476823540086,-0.1305516133895142,0.09212113603988906,0.10515769778769186,5.0
0.4384575899752922,-0.34180837959485205,-0.3151460790606585,-0.13264714661083335,0.07635709226939634,0.12834578290275322,5.0
0.44747730288774834,-0.32347169070502063,-0.3361556375267653,-0.15988911682612775,0.051320080078169794,0.12834578290275322,5.0
0.4519871593439759,-0.3188875084520562,-0.3466604474068158,-0.14661738796533272,0.008664433683934889,0.1155923362220412,5.0
0.4610068722564331,-0.3555608862317187,-0.3431588441134654,-0.10261113494030938,0.025355774437876254,0.1399398250183782,5.0
0.4700265851688881,-0.36931339286858583,-0.3431588441134654,-0.06628850230685826,0.03926522318115717,0.12718637833766616,5.0
0.48806601099380187,-0.36931339286858583,-0.3641684025795722,-0.029267374218878595,0.06615682827896652,0.13066459114911594,5.0
0.4700265851688881,-0.3922342640113816,-0.32915246158706213,-0.002025395483996283,0.0782116855294173,0.11095471928741006,5.0
0.45649701580020413,-0.36931339286858583,-0.3186476823540086,-0.001326891509879835,0.024428477100989446,0.13066459114911594,5.0
0.4429674464315201,-0.3280558328359586,-0.35716522663986905,0.0007686544908211764,-0.012663393754440538,0.13646161176502272,5.0
0.45649701580020413,-0.34180837959485205,-0.3186476823540086,0.008452283401981273,-0.04511877792543647,0.14457744151110363,5.0
0.4429674464315201,-0.33722419734188736,-0.3361556375267653,-0.0048194454588137425,-0.07201037807511147,0.1979100382479373,5.0
0.4159086234662043,-0.32347169070502063,-0.35366362334651896,-0.027171828218177582,-0.11373873561497552,0.21298228919786075,5.0
