acc_x,acc_y,acc_z,gyro_x,gyro_y,gyro_z,activity
0.2387788021394625,-0.17945106610790088,1.3925989103413232,-0.5960553658336962,-0.8742016778262298,0.27737433640720116,0.0
0.2200983191158278,-0.37838367053859656,1.2980938973688028,-0.41238841860714254,-1.4373929265729495,0.3160370809601611,0.0
0.21262602126699748,-0.3327949512875903,1.2766154511504515,-0.31353772980757294,-1.8039566272433838,0.31708200760171606,0.0
0.2574595467615368,-0.26233965336551324,1.2809111403941218,-0.21041575023094966,-2.077989630240964,0.3160370809601611,0.0
0.20141757449375255,-0.19602878333271542,1.3195723435871538,-0.21346669135199572,-0.7887887261282105,0.11331896744187467,0.0
0.21262602126699748,-0.19602878333271542,1.2766154511504515,-0.2702142974192256,0.3473806829323048,0.0589821543960236,0.0
0.27987644030802666,-0.2747729404339695,1.237954398345644,-0.23421314158299553,0.2486220334932178,-0.13851125900390499,0.0
0.2313067658890724,-0.31207280617349636,1.1520407638604642,-0.13597265738077505,-0.09036040152473132,-0.05178134728231614,0.0
0.20515372341816804,-0.27062851141115074,1.1391537713235655,-0.3446574125964091,-0.19979565907439256,0.37977834529764515,0.0
0.20515372341816804,-0.27062851141115074,1.1391537713235655,-0.3446574125964091,-0.19979565907439256,0.37977834529764515,0.0
0.20515372341816804,-0.27062851141115074,1.1391537713235655,-0.29462187104161147,-0.2798702578845726,0.4497892204639508,0.0
0.19394527664492223,-0.2913506610594026,1.1992932703467243,-0.11278546318374195,-0.024521291951301538,0.27319457886148946,0.0
0.27614029138361207,-0.2913506610594026,1.2551371553203252,0.006201452643637628,0.6641201617788949,0.13108292426627632,0.0
0.27614029138361207,-0.2747729404339695,1.2680242230513354,0.017184860029477705,0.710385510615322,0.12272341554728945,0.0
0.2985571849301016,-0.2789173694567883,1.2250673306146334,0.061118485851669846,0.7130546328008502,0.22303752654756828,0.0
0.20515372341816804,-0.27062851141115074,1.087605575593635,-0.03529142083989293,-0.06010999740920018,0.21258814542816204,0.0
0.2088898723425829,-0.26233965336551324,1.0575358260820558,-0.10973451462035962,-1.4391723413633017,0.052712522856783454,0.0
0.2088898723425829,-0.34108380933322774,1.1004926433246458,-0.051766532848945085,-1.6366897270549017,0.12063353677443361,0.0
0.29108488708127184,-0.37838367053859656,1.2637285338076654,0.15081632151875618,0.48439718443109503,0.12899304549342047,0.0
0.2836125892324418,-0.36180595444732155,1.4183728954151202,0.22647978635194735,2.6277270846434857,0.22512740532042413,0.0
0.3209740784765917,-0.28720623203658385,1.2336587091019737,0.295431171788034,3.0868213093599217,0.07256635686093182,0.0
0.29482103600568643,-0.22918421891588406,1.2465457768329848,0.047694327057460226,2.532527308191816,0.36410424175635353,0.0
0.2313067658890724,-0.15458448970390928,1.237954398345644,-0.2329927621576426,2.392841554287359,0.7768550572427947,0.0
0.13043074492986798,-0.050973750530966075,1.4742168555828332,-0.6412093896870822,4.642047719693531,1.3306725497034022,0.0
0.16031993632518812,-0.0924180498274698,1.7448446763811596,-0.8651488728349555,6.308489073659111,1.2564818915016387,0.0
0.1528476384763578,-0.20017321292230394,1.5214692868749813,-1.2318726147870678,5.316453651631944,1.0328650412342857,0.0
-0.026486986698680492,-0.5027165593597916,1.366824774879302,-1.692565617145374,2.510284319465422,0.943000330470723,0.0
-0.06384847594283007,-0.5814607017250322,1.4613297878518223,-1.6742598513417168,0.4345730060139633,0.28886865691303526,0.0
-0.0489038802451703,-0.44469453490369687,1.5773130966544697,-2.102002713408202,-1.0379096616205814,0.07883598999328108,0.0
-0.16098821717839937,-0.41153910272114674,1.6890008666016711,-2.362553549547318,-0.13751543605297806,0.30976744464159367,0.0
-0.1684605150272294,-0.5358719915423418,1.7749143506986267,-2.4308946782897016,2.182868178249867,0.5281596107216802,0.0
-0.007806503675045798,-1.0746478189186774,1.684705177358001,-2.352180242566119,3.588622009925368,1.5804129228660722,0.0
0.05570802804000876,-1.1202364928281034,1.7061834731881276,-1.3490290396209492,6.448174653936718,3.123787262326413,0.0
-0.019014688849850456,-1.0207701962804534,1.800688486160648,0.25576887767574513,7.967812421209577,2.517722877013647,0.0
-0.3179060796061681,-0.9420260901884773,1.5687217181671296,1.83371847738402,3.7416535917910334,0.05062264567703673,0.0
-0.33658682422824304,-0.747237898911047,1.7190705409191382,1.1045421800641406,-1.6669400389311677,-1.3192920009750744,0.0
-0.12736287685866465,-0.5110054174054294,1.8694193636711471,0.2148861892534308,-2.219454712122348,-0.23255572731317983,0.0
-0.015278539925435587,-0.13386234458981547,1.770618811843181,0.19841108933817528,-0.763876658623001,0.45814873555537433,0.0
-0.015278539925435587,-0.13386234458981547,1.770618811843181,0.3991633782890152,2.9809450441661385,3.2805281957803465,0.0
-0.30296148390850836,-0.6892158744549524,2.024063875666826,1.0081322501152767,1.8349885499116958,3.107068232143566,0.0
-0.4748240728331568,-0.5938939797251725,2.1572299414441547,1.4663844043148413,4.352889560757819,2.9127097356756866,0.0
-0.2543916786903335,-0.5607385475426222,2.2044823727363028,1.7214436297902411,4.1767253261773,1.3787396850098486,0.0
-0.21329417132098905,-0.5648829856337569,2.466518965435513,1.3852292395098982,3.2985741870011926,1.0464492405129762,0.0
-0.21329417132098905,-0.5648829856337569,2.466518965435513,1.4926226289409563,3.6909396191652992,0.6932599573080531,0.0
-0.41130967191732254,-0.5192942754510667,2.251734954416675,1.7147314759697732,4.112665699217208,0.7308777242399664,0.0
-0.557019087571846,-0.5565941457247517,2.2818046287341422,1.1143052154669641,3.1277482836051544,0.6253389099351115,0.0
-0.557019087571846,-0.5565941457247517,2.2818046287341422,1.063659461872481,2.990731695292938,0.6775858537667614,0.0
-0.6018527438656057,-0.5814607017250322,2.3204658319271743,0.919044626487876,3.3412804892233487,1.033909916896349,0.0
-0.6205334884876806,-0.676782596454812,2.4536318977045024,0.7359878615316624,2.4266508693711812,1.3202231813288692,0.0
-0.6205334884876806,-0.676782596454812,2.4536318977045024,0.9727413212034048,0.4141095188913478,1.6243003516062986,0.0
-0.6354780841853405,-0.7182268685463675,2.4407448299734917,1.0850161092584936,-0.2754216775019791,1.4132227229965886,0.0
-0.6429503820341704,-0.5814607017250322,2.311874453439834,0.8574155324885797,0.16765771643618332,1.2031899700489423,0.0
-0.7811876306390843,-0.531727553451207,2.4579275869481725,0.6798504377347727,0.31802001334114544,1.337987087173779,0.0
-0.8745910921510184,-0.5275831153600723,2.526658464458672,0.5681858021806788,0.7086060524182568,1.3557510949776723,0.0
-0.7288815456972746,-0.49442770131415414,2.518067085971331,0.6987662965007344,1.4177110502423798,1.0151010334303925,0.0
-0.66536714478144,-0.5400164296334765,2.5051800182403205,0.7292757672498851,0.7637685186131581,0.8562703996318245,0.0
-0.6354780841853405,-0.6146161339075821,2.49229295050931,0.7713788499822247,-0.20513396855551877,0.7768550572427947,0.0
-0.788659797688694,-0.5731718618160269,2.4192663837551405,0.6200519203158423,-0.5103071427480368,1.0297302103301296,0.0
-0.814812840159599,-0.45298339294933443,2.380605330950333,0.4705555076911349,-0.1081547556101404,0.6608668235839148,0.0
-0.8447020315549189,-0.4405501149491942,2.4837015720219693,0.39489204285794377,0.24684259699950906,0.38709290825776776,0.0
-0.7662430349414244,-0.44883897299483166,2.513771396727661,0.2234288452309015,0.49240468120781894,0.3902277136721786,0.0
-0.7102009318744199,-0.4902832632230194,2.5352498429460124,-0.1188873528681703,0.27976213957808593,0.48531715960250005,0.0
-0.706464782950005,-0.5192942754510667,2.5438412214333526,-0.21895840620842022,-0.285208567365699,0.749686607705923,0.0
-0.8297574358572587,-0.5192942754510667,2.6340503947739786,-0.015155174275950136,0.21303332532239955,0.9680787737860094,0.0
-0.8783272410754336,-0.4198279607667843,2.6512331517486594,0.04281280935604849,0.7228415443679266,0.8207424350035296,0.0
-0.8857995389242633,-0.4239723988579191,2.591093502337276,-0.08776769984867946,0.6872528144937518,1.111235406002269,0.0
-0.8409658826305036,-0.4902832632230194,2.573911046139044,0.02694788798996484,0.6783556537285648,1.1530329814593856,0.0
-0.8073405423107689,-0.5110054174054294,2.552432599920693,0.009862587198528259,0.43546271340913945,0.7799898371674596,0.0
-0.7326176946216895,-0.49857212126865685,2.5996848808246167,-0.05115634313626861,0.9061233512964307,0.49576652797703324,0.0
-0.822285138008429,-0.4902832632230194,2.5782067353827145,-0.08837788956135594,0.9248074236286944,0.3463402849319519,0.0
-0.8185489890840139,-0.5483052695424822,2.5223627752150017,-0.06824164392770518,0.8216002372137267,0.3630593151147985,0.0
-0.7699791838658393,-0.5980384178163073,2.4837015720219693,0.1447144243919915,0.44791879056845707,0.35052004247766355,0.0
-0.8857995389242633,-0.6104717320897116,2.518067085971331,0.2691930364699548,-0.4791669932564556,0.6953498105911631,0.0
-0.8260212869328438,-0.5773162636338973,2.5996848808246167,0.3051942071908575,-1.0005415169560543,0.5856312387405964,0.0
-0.8895356878486784,-0.5192942754510667,2.6426417732613188,0.2911598661263077,-0.693588949676541,0.7037093256825862,0.0
-0.8857995389242633,-0.5027165593597916,2.5867981138700546,0.26858285419961464,-0.39998212354480805,0.6305635941223783,0.0
-0.822285138008429,-0.5068609793142943,2.6469374625049893,0.24966699543365317,-0.16242752526154386,0.42366574854812605,0.0
-0.8596464964533586,-0.5275831153600723,2.719964179647383,0.27651531302207233,0.25040146998692653,0.28050916731135783,0.0
-0.9978837450582725,-0.5068609793142943,2.5567282891643632,0.2075639275859859,0.35271899241343113,0.2846888993673236,0.0
-0.938105493066853,-0.5524497076336169,2.5352498429460124,0.05501659616724151,-0.3296944580050608,0.6859453688581847,0.0
-0.8484380496801137,-0.5151498373599319,2.698485733429032,0.2124454304027251,-0.5200940109084,0.6201142257478447,0.0
-0.8260212869328438,-0.5027165593597916,2.66841590872334,0.5150993195048355,-0.5192043035132239,0.3108123712831486,0.0
-0.8260212869328438,-0.5027165593597916,2.66841590872334,0.36743351322983897,-0.22114889699889742,0.1666108379150796,0.0
-0.7998682444619389,-0.5400164296334765,2.5051800182403205,0.22708998350696016,-0.10281644612901421,0.04644289052098875,0.0
-0.9754668515117826,-0.48199440517738185,2.5438412214333526,0.08308530062335,0.07423736562654423,0.23453185979827537,0.0
-0.9754668515117826,-0.48199440517738185,2.5438412214333526,0.12274760962031138,-0.05477169335391311,0.6274288141977132,0.0
-0.900744134621923,-0.48199440517738185,2.5223627752150017,0.0092523974858518,0.1890109435090099,0.9189666608585161,0.0
-0.698992485101175,-0.5192942754510667,2.5051800182403205,-0.11583641174712428,0.18100349013899886,0.7183384516028316,0.0
-0.698992485101175,-0.5192942754510667,2.5051800182403205,0.01474410117877185,0.272644393603251,0.47277788696536516,0.0
-0.7849237795634993,-0.5648829856337569,2.6383460840176487,0.16851180085936474,-0.11349305423958837,0.4330702157708501,0.0
-0.7849237795634993,-0.5648829856337569,2.6383460840176487,0.2649217308082284,0.10092889675465788,0.2157229635874458,0.0
-0.8671187943021883,-0.49857212126865685,2.591093502337276,0.22586960408160725,0.07423736562654423,0.4194859910024143,0.0
-0.9343693441424378,-0.4861388432685166,2.573911046139044,0.18193597453824706,-0.09658841840103363,0.5793616279117751,0.0
-0.9156885995203632,-0.4902832632230194,2.5438412214333526,0.2551586954054049,-0.26919363892232023,0.4529240513681076,0.0
-0.803604393386354,-0.5400164296334765,2.6297547055303085,0.3448565310724915,-0.41599707369154315,0.33275608565326187,0.0
-0.7699791838658393,-0.5607385475426222,2.616867637799298,0.3588908721370411,-0.3394813478687805,0.26274521048695615,0.0
-0.8297574358572587,-0.5275831153600723,2.5953891915809466,0.3991633782890152,-0.24339184231857833,0.29618324536290364,0.0
-0.8745910921510184,-0.5068609793142943,2.5867981138700546,0.3192285780247524,-0.24250211322004572,0.31708200760171606,0.0
-0.8185489890840139,-0.5068609793142943,2.5438412214333526,0.03976186079266616,0.0902522832182446,0.20109381217745498,0.0
-0.7662430349414244,-0.5648829856337569,2.48799726126564,-0.04993596371091567,-0.17755273545806807,0.22199258716114037,0.0
-0.8297574358572587,-0.5400164296334765,2.5782067353827145,0.13556158614418082,-0.42934281483932396,0.22930716286613573,0.0
-0.8820633899998485,-0.49442770131415414,2.5996848808246167,0.21000468643669185,-0.4604829209241921,0.4069467438550253,0.0
-0.8932718367730933,-0.45298339294933443,2.5610239784080333,0.1007807948486312,-0.35371681811509387,0.3755985877519335,0.0
-0.8297574358572587,-0.45712783104046917,2.5352498429460124,-0.006612523880231846,-0.13751543605297806,0.25752050080994365,0.0
-0.788659797688694,-0.4695611090406094,2.5352498429460124,-0.05420728983906687,-0.0476539528049173,0.20631850910959457,0.0
-0.8372297337060891,-0.45712783104046917,2.5395455321896825,0.007421830208406473,-0.1784424428532442,0.20422863033673874,0.0
-0.822285138008429,-0.4861388432685166,2.616867637799298,0.14532460666233163,-0.28876744035311647,0.30872249251029277,0.0
-0.8820633899998485,-0.44883897299483166,2.603980570068287,0.16363029804262566,-0.24784042270117193,0.4435195841453832,0.0
-0.8409658826305036,-0.4405501149491942,2.6082762593119573,0.12152723019495845,-0.3439299282513742,0.39649734999074593,0.0
-0.7699791838658393,-0.46127225099497193,2.6125719485556274,0.09284833602617347,-0.009396092606455532,0.20840838788245036,0.0
-0.71767322972325,-0.5027165593597916,2.5309541537023423,-0.028579338651911996,0.3616161748819747,-0.11447766586093586,0.0
-0.706464782950005,-0.5400164296334765,2.518067085971331,-0.03956274603775207,0.29399763152775577,-0.18030880897127577,0.0
-0.8073405423107689,-0.5068609793142943,2.603980570068287,0.20634354816063297,0.14363534547447193,-0.06432061354701467,0.0
-0.8932718367730933,-0.41153910272114674,2.591093502337276,0.1276291273217231,0.42211697226135875,0.17915011055221458,0.0
-0.8970079856975082,-0.38252810862973147,2.49229295050931,-0.12681981913296436,0.6418772164592138,0.19795900676304415,0.0
-0.8596464964533586,-0.44469453490369687,2.470814654679183,-0.33367398288356,0.5804867116846535,0.19795900676304415,0.0
-0.8633826453777734,-0.4695611090406094,2.470814654679183,-0.373336306765194,0.3020050848977669,0.10704933749574366,0.0
-0.7625068860170093,-0.5814607017250322,2.5309541537023423,-0.3660140302130765,0.10982607379736244,0.11645378560115842,0.0
-0.7512984392437644,-0.5441608314513471,2.552432599920693,-0.253129000348957,0.2139230327175757,0.2857338514986245,0.0
-0.8521741986045286,-0.4902832632230194,2.5782067353827145,-0.23360294442798274,0.38652824238718414,0.4717329603238102,0.0
-0.9717307025873674,-0.46127225099497193,2.552432599920693,-0.35136947710884137,0.4683822776910729,0.5177102423471467,0.0
-0.9530500887645127,-0.4737055471317443,2.4965886397529804,-0.36113251251166484,0.3544984289071399,0.4685981294196534,0.0
-0.8745910921510184,-0.5358719915423418,2.5223627752150017,-0.30194414759372906,-0.04587451631120856,0.4654632985154966,0.0
-0.7699791838658393,-0.6270494481809867,2.5782067353827145,0.092238146313497,-0.7113833146136282,0.33066620688040604,0.0
-0.6691032937058552,-0.7016491524550924,2.625459016286638,0.24966699543365317,-0.980078029833439,0.24916099846339326,0.0
-0.6541588288074154,-0.7182268685463675,2.616867637799298,0.3625519955284273,-1.0993002098018547,-0.035062329844342426,0.0
-0.6952563361767599,-0.676782596454812,2.5996848808246167,0.537066119391843,-0.9008931601217913,-0.17717399081199203,0.0
-0.7625068860170093,-0.5690274237248921,2.573911046139044,0.2862783484248958,-1.0094387645346679,0.14362218415853836,0.0
-0.7699791838658393,-0.5607385475426222,2.449336208460832,-0.08837788956135594,-0.7033758612436172,0.12690316672056468,0.0
-0.6466865309585856,-0.5068609793142943,2.423562072998811,-0.40445595978468485,-0.24873013009634806,-0.3015217013276765,0.0
-0.6616311266562453,-0.5358719915423418,2.4536318977045024,-0.7034486957260639,-0.10726503736328603,-0.47602646415728195,0.0
-0.8559103475289435,-0.5068609793142943,2.363422573975652,-1.0469853327891792,-0.0004989155637509765,-0.3015217013276765,0.0
-0.926897046293608,-0.5192942754510667,2.376309641706663,-1.256280262832817,-0.06633801971134162,0.06629672691480078,0.0
-0.822285138008429,-0.6394827261811268,2.406379466412354,-1.0805457446593758,-0.4302325222345001,-0.3830269224895622,0.0
-0.6691032937058552,-0.6270494481809867,2.7156684904037127,-0.2348233238533357,-1.7318895035065711,-0.5805203008410901,0.0
-0.7438261413949346,-0.49442770131415414,2.5867981138700546,-0.21041575023094966,0.05110470748584803,-0.7477105007105734,0.0
-0.7400899924705194,-0.4695611090406094,2.552432599920693,-0.24397616210114637,1.2504440632404714,-1.1667309780053277,0.0
-0.8857995389242633,-0.5027165593597916,2.432153451486151,-0.3233007652103964,0.8287178963751358,-0.8971367437556548,0.0
-0.8857995389242633,-0.5441608314513471,2.4020837771686843,-0.3837095244383576,0.3794105398190621,-0.47289163325312555,0.0
-0.8633826453777734,-0.6104717320897116,2.4192663837551405,-0.40872726544641125,0.1685474346830377,-0.13851125900390499,0.0
-0.8633826453777734,-0.6104717320897116,2.4192663837551405,-0.46852584240403233,0.490625223010754,-0.20225252334138907,0.0
-0.71767322972325,-0.6519160041812672,2.509475707483991,-0.373336306765194,0.4630439899133031,-0.3830269224895622,0.0
-0.7251453967728597,-0.6933603125460871,2.5223627752150017,-0.18356741775785781,0.43279359122361105,-0.48334100162765864,0.0
-0.8110766912351841,-0.6684937202725423,2.5825024246263846,0.05562678587991796,0.05110470748584803,-0.3976560484098071,0.0
-0.8372297337060891,-0.6477715660901324,2.5610239784080333,0.1941397539071038,-0.20068538817292522,-0.2848026711448297,0.0
-0.7811876306390843,-0.622905010089852,2.5223627752150017,0.044643378494077894,-0.04231564332379108,-0.3851167757726722,0.0
-0.7849237795634993,-0.6187605719987171,2.436449140729821,-0.1933304531606813,0.1080466373036537,-0.3433192512950472,0.0
-0.7774514817146694,-0.635338288089992,2.3977880879250137,-0.37760761242692037,0.07512708387339857,-0.3652629656651606,0.0
-0.7662430349414244,-0.6311938499988572,2.406379466412354,-0.39896425981293304,-0.16865555298952442,-0.4478130879788554,0.0
-0.6877840383279301,-0.676782596454812,2.4106750052678003,-0.6088693423575658,-0.8599661858765598,-0.5920146468366703,0.0
-0.5906444278915808,-0.7057935905462271,2.3591268847319817,-1.1147163090305674,-1.2852511823226003,-1.0653719212461845,0.0
-0.6317419352609256,-0.7223713066375023,2.337648588901855,-1.154988755643851,-2.0655336398950723,-0.6473964215724766,0.0
-0.71767322972325,-0.7348045846376426,2.616867637799298,-0.7949771079735161,-3.857424908561736,-0.027747754139347006,0.0
-0.6018527438656057,-0.7389490227287774,2.3075787641961636,-1.1989224744952471,-4.804084689147654,0.022409301360792402,0.0
-0.594380576815996,-0.726515744728637,2.341944127757301,-1.052476943452895,-4.945549597402184,-0.1395561983903329,0.0
-0.45987947713549704,-0.7389490227287774,2.1701170091751654,-0.9420327319781722,-5.3868496742150995,-0.6871040927669917,0.0
-0.21703032024540392,-0.6270494481809867,1.8608279851838065,-0.6656169781941408,-3.241740272398931,0.28677877814017944,0.0
-0.18714112885008408,-0.9917592021890381,2.3891967094376736,-0.8974889201644716,-6.937627764606394,-0.8647436610110082,0.0
-0.04516773132075543,-0.7886821710026025,2.2388478866856643,-1.1049532736277439,-12.204755966193504,-1.2910786247966475,0.0
0.06318032588883879,-0.8135487632761472,1.800688486160648,-1.1995326269962419,-13.325800653383018,-1.7299528102399304,0.0
-0.06011232701841521,-0.9130150235505333,1.4140773565596747,-1.1403442620783062,-12.726131010773663,-0.924305142313035,0.0
0.029554985569103784,-0.9420260901884773,1.4441470308771414,-1.6425300160518859,-12.823999605563868,-2.7257794719864523,0.0
0.3097656317033471,-1.0124813926447123,1.4871039233138441,-2.3601127013885765,-11.009865000917106,-2.2315235118073633,0.0
0.45921132708150547,-1.0207701962804534,1.2422500875893143,-3.089288998708455,-11.812389839521993,-0.6891939460501018,0.0
0.3209740784765917,-1.0124813926447123,0.8985957000368184,-3.882534880954232,-14.3907916477475,-1.8407163597115437,0.0
0.2574595467615368,-0.9751815223710272,0.6709246212869698,-2.6847333606083486,-8.36206523454703,-3.086283394620736,0.0
0.1266945960054531,-0.9710370842798924,0.09959916438388948,-1.8981993940282802,-7.338000172666669,-2.6097913402865562,0.0
0.3732799018199611,-1.0124813926447123,0.0867121248506709,-2.723175349718648,-11.036557004093225,-2.3245229515160997,0.0
0.41437753998852705,-1.0041925164624426,-0.17962004430104142,-3.6421205062765174,-16.012747024260293,-0.49692525188584025,0.0
0.3956967953664515,-0.635338288089992,-0.342855897187005,-2.9544369605719125,-13.22704170009694,0.6159344682021334,0.0
0.2574595467615368,-0.3493726673788653,-0.8583375161128048,-0.5954452133327014,-7.642284008421071,-1.391392703934744,0.0
0.45921132708150547,-0.5565941457247517,-0.7595368890907264,-0.38126876558765194,-4.971351589336136,-0.06432061354701467,0.0
0.1379030427786983,-0.602182855907442,-0.9915035818901329,0.048304516770136675,-3.9828751705165226,0.28886865691303526,0.0
0.04449958126676386,-0.46127225099497193,-1.0688258378879723,-0.24763730037720524,-3.2835569106326243,-0.16149991276044623,0.0
0.12295844708103794,-0.5192942754510667,-0.9829122034027925,-0.4868315188996536,-4.633258785751615,-0.32660022111220055,0.0
0.38075219966879115,-0.3949613866298717,-1.2707227811758,0.10566231255004294,-0.6090657921871238,-0.7477105007105734,0.0
0.38075219966879115,-0.3949613866298717,-1.2707227811758,0.22770016577730032,-0.48183615884869707,-0.41646493187576383,0.0
0.19020912772050766,-0.4778499852228792,-1.3222709769057306,0.20939448928167903,-0.5200940109084,-0.16149991276044623,0.0
0.03702728341793382,-0.531727553451207,-1.2664270919321297,0.3302119779682562,-0.12150051846127766,-0.23987031576304815,0.0
-0.04516773132075543,-0.4902832632230194,-1.1891049111284024,0.84338119142403,2.2718399595285907,-0.40601556350123025,0.0
-0.08252922056490501,-0.5856051398161669,-1.2449487209078909,1.1631203924810813,3.5432463684841182,-0.15105051889616705,0.0
0.0071380920226139745,-0.5400164296334765,-1.1976962144216305,1.100881026903409,3.792367564416765,0.014049791048696424,0.0
0.1864729787960928,-0.5234387135422017,-1.22776596393321,1.6012363233740041,4.602900073425227,0.5824964588159315,0.0
0.32844637632542145,-0.5151498373599319,-1.0516430809132917,1.4328239924446446,3.2273969008796946,1.9398717659203246,0.0
0.3994329442908658,-0.49442770131415414,-0.9614338323785536,0.9129427442457838,1.5164697430881795,3.047506852800523,0.0
0.33591867417425175,-0.5856051398161669,-0.8368590698944538,0.6725281909520004,0.7655480202169362,3.701638373419736,0.0
0.2574595467615368,-0.6146161339075821,-0.9184770151359636,0.7664973322808131,2.3456865848691812,2.65043003889639,0.0
0.3620714550467162,-0.8218376031851525,-0.8669288946001455,0.07942416978962752,0.4247861378536001,2.5657900123200936,0.0
0.2985571849301016,-0.9047262199147921,-0.8927029548680544,0.2215982835352084,1.6063311883553666,2.183342477274681,0.0
0.21262602126699748,-0.9130150235505333,-0.8454504483817942,-0.038952556325075605,1.745127104644509,0.48427218198145333,0.0
0.17526453202284728,-0.9047262199147921,-0.9098856366486232,-0.20797499138024383,1.088515494236472,-1.7999637618754738,0.0
0.42932213568618594,-0.987614764097903,-0.793902327845976,-0.40933747748609667,1.4613071900798524,-1.7372675516282738,0.0
0.5152532993492903,-0.8632819115499722,-0.8110850096265446,-0.9786440849694148,-0.41154844990223655,-0.618138118752495,0.0
-0.011542652599460966,-0.726515744728637,-0.7380584428723753,-0.9060315314879244,0.454146785741403,-3.623381703960022,0.0
0.23504265321504672,-0.9668926461887577,-0.5533442189621726,-0.9255576022935713,1.4257184602056776,-5.615035027453066,0.0
0.6684351436518647,-1.045636824827262,-0.8969986441117248,-1.2099058149000603,0.0849139791629575,-3.5293371846712556,0.0
0.7655747540882144,-0.7679600168201927,-0.7896066386023056,0.2075639275859859,1.1846050214900306,2.2303647369190642,0.0
0.7655747540882144,-0.7679600168201927,-0.7896066386023056,0.02877845712799425,-0.15797894487895026,1.4006833993799621,0.0
0.4106413910641092,-0.6270494481809867,-0.686510322336557,-0.07556391675865462,-0.9364818899959662,0.3724637568477768,0.0
0.33591867417425175,-0.6519160041812672,-0.7423541321160454,-0.11827716315549386,-0.610845206977476,-0.6714299892257001,0.0
0.33591867417425175,-0.6519160041812672,-0.7423541321160454,0.21183524813238494,0.03242063786650413,-1.1228435492651012,0.0
0.42558598676177106,-0.7845377329114678,-0.8583375161128048,0.2228186480758887,0.04398696693685221,-0.6923287769542585,0.0
0.3321825252498363,-0.676782596454812,-0.819676388113885,0.03304978139556134,0.009287978708463105,-0.3318249052994673,0.0
0.3321825252498363,-0.676782596454812,-0.819676388113885,-0.11949754258084679,0.1694371529298921,-0.06641048594743404,0.0
0.4853641079539708,-0.6311938499988572,-0.8669288946001455,-0.26838373572353247,0.28599017815774475,-0.6233628029397618,0.0
0.5675593842910985,-0.7057935905462271,-0.8239720773575555,-0.20614442968455077,0.09114200146509895,-0.3757123340396938,0.0
0.5899762778375889,-0.6394827261811268,-0.8153806988702148,-0.1439051162032328,0.030641202729255173,0.14571206293139422,0.0
0.3956967953664515,-0.5690274237248921,-0.7896066386023056,-0.2616716563264275,0.4141095188913478,0.3620143629834977,0.0
0.33591867417425175,-0.5192942754510667,-0.8411547591381241,-0.028579338651911996,0.5324419480578745,0.3003630029086153,0.0
0.3956967953664515,-0.6892158744549524,-0.7767195708712952,-0.18112665890715193,1.117876142124275,0.03808338120458597,0.0
0.2387788021394625,-0.7762488930024621,-0.8583375161128048,0.007421830208406473,3.3270451709005333,-0.6975534611415253,0.0
0.32844637632542145,-0.7182268685463675,-0.49750037158562815,0.031219212257531943,-0.5254323420928828,-0.8344404315494717,0.0
0.3172379295521765,-0.6560604422724019,-0.128071886168167,-0.39896425981293304,-1.4854376467930157,-0.15627521582830664,0.0
0.6310736544077137,-0.6519160041812672,-1.0387560883763933,0.2679726719292745,1.1098687321609766,-0.08312950975784424,0.0
0.39196064644203665,-0.5068609793142943,-0.9141813258922933,0.1746136979861294,0.7477536118731359,-0.04446677794975718,0.0
0.4330582846106002,-0.5938939797251725,-0.7251714503354769,-0.14451530591590925,0.9390429155783643,-0.07685987343927674,0.0
0.2499872489127074,-0.7969710471848721,-0.7595368890907264,0.5462190022936716,2.7095810331339485,-0.3433192512950472,0.0
0.2387788021394625,-0.5441608314513471,-0.6993973148734554,0.29909232494876536,3.556592370072177,-1.1938993765627077,0.0
0.09306951728415865,-0.6063272939985769,-0.5447528404748323,0.5096076493024286,3.4480467656593,-2.938946953879272,0.0
0.06318032588883879,-0.5524497076336169,-0.3986997445635496,0.009862587198528259,2.9809450441661385,-4.877308355919619,0.0
0.2313067658890724,-0.7099380286373622,-0.3815170251859247,-0.8413514963675821,3.2878975246322257,-6.207515009569174,0.0
0.45173902923267634,-0.45298339294933443,-0.32567317780938015,-0.5258836009722568,2.871509602137948,-5.63802351552626,0.0
0.7394217116173085,-0.10070690787310732,-0.3815170251859247,-0.3330638006132199,3.1046156308902972,-2.9838792582815623,0.0
0.743157860541724,-0.06340704666773844,-0.29989907994441495,-0.17441457951004713,2.713139862714653,-2.0141761194303567,0.0
0.6983243350471849,-0.050973750530966075,-0.10659348224650404,0.048304516770136675,1.7807157477052578,-0.9807317927109046,0.0
0.5675593842910985,-0.055118188622100925,-0.1581416450790104,-0.055427667403835715,1.6757291464999378,-0.2983868704235198,0.0
0.5301978950469498,-0.14215120263545297,-0.09370644271328545,-0.1347522779554221,1.4212698798230838,-0.20120757121008823,0.0
0.5077810015004588,-0.10899576591874484,-0.06793236129703226,-0.2329927621576426,1.2397674876849323,0.08092586876613693,0.0
0.4666836249303352,-0.1131401949415636,0.0738250853174523,-0.18173685606216475,0.9532784075280342,0.11227402805544676,0.0
0.4666836249303352,-0.1131401949415636,0.0738250853174523,0.11786609191889963,-0.18378075233437044,0.057937216602704796,0.0
0.4442667313838442,-0.13386234458981547,0.039459641862570706,0.13495138898916803,-0.4026512891370495,-0.03924208101761763,0.0
0.4181136889129419,-0.1131401949415636,-0.02927123976010647,0.11847628907391242,-0.5067482697606193,0.06002709378245152,0.0
0.4181136889129419,-0.1131401949415636,-0.02927123976010647,0.08369549033602644,-0.3154589660553909,0.08092586876613693,0.0
0.45921132708150547,-0.12142905298720115,-0.14095892570138563,-0.03712198904763028,0.04309724868999786,0.06734166311501046,0.0
0.45921132708150547,-0.12142905298720115,-0.14095892570138563,-0.04566463944334858,-0.03608762102164962,0.04435301334124204,0.0
0.45173902923267634,-0.1131401949415636,-0.14095892570138563,-0.1439051162032328,-0.18022187934695294,0.09973476179074822,0.0
0.45173902923267634,-0.1131401949415636,-0.14095892570138563,-0.1439051162032328,-0.18022187934695294,0.09973476179074822,0.0
0.45173902923267634,-0.1131401949415636,-0.14095892570138563,-0.09570015867113721,0.11961296366108225,0.07256635686093182,0.0
0.47415592277916735,-0.15044006068109053,-0.12377620632376085,-0.2213991650591261,0.4701617358881382,0.030768810478056546,0.0
0.4853641079539708,-0.13386234458981547,-0.1581416450790104,-0.26838373572353247,0.5991707840169171,0.0934651318446172,0.0
0.45173902923267634,-0.15458448970390928,-0.1581416450790104,-0.05786842625454159,0.5440082744153029,0.14884688109067795,0.0
0.3732799018199611,-0.055118188622100925,-0.012088518620119672,-0.18356741775785781,0.4959635541952365,0.31185732341444944,0.0
0.33591867417425175,-0.09656247885028854,-0.09370644271328545,-0.3477083537174552,1.0146689557093072,0.7810348147885063,0.0
0.19020912772050766,-0.28306179847960705,-0.05074964074449947,-0.33550455946392577,0.8278282323866727,-0.5857450360078486,0.0
0.4965725547272154,-0.17945106610790088,0.0007985209130989366,-0.33855550058497186,0.7299592903427614,-0.7581599200645983,0.0
0.5115171504248761,-0.24161750598434037,0.009389882951727314,-0.08105562045157469,0.8785421181989802,-0.8062270553710448,0.0
0.47415592277916735,-0.12142905298720115,0.04375532640660892,-0.05786842625454159,0.7602096890324536,-0.5700709324665568,0.0
0.45921132708150547,-0.038540472530825876,0.04375532640660892,0.04708413734478377,0.5760381313020602,-0.11656754463379168,0.0
0.5189894482737059,-0.06340704666773844,0.1253732528495907,-0.00783290237529274,-0.07790435149460928,-0.062230734774158844,0.0
0.4330582846106002,-0.14215120263545297,0.17262572173879484,-0.030409906859649356,-0.6206321185445522,-0.03924208101761763,0.0
0.3433909720230815,-0.08412919178183226,0.1554430023611701,0.0049810732182846915,-0.27275251190973776,0.3034978083230261,0.0
0.32844637632542145,-0.12142905298720115,0.11248620391710809,-0.020646877736297163,-0.4106587425070604,0.38395807735361104,0.0
0.48910025687838565,-0.042684892485328536,0.022276922484945907,-0.05847861596721805,-0.24339184231857833,0.7507315853269698,0.0
0.30229333385451645,-0.10899576591874484,0.06093804578423372,0.061118485851669846,-0.2513992956885893,0.7005744947784298,0.0
0.42932213568618594,-0.15044006068109053,-0.07222804114143845,0.017184860029477705,-0.19089849830920538,0.9419553528496762,0.0
0.46294747600591973,-0.1255734820100199,-0.08511508302447304,-0.018206120513602368,0.15520167183190048,1.2961896136756457,0.0
0.45921132708150547,-0.1131401949415636,-0.055045320588905655,-0.3525898714188668,-0.08591181029045947,0.7559562695142362,0.0
0.5937124267620044,-0.19602878333271542,-0.02927123976010647,-0.4349654305338355,-0.0698968926987591,0.21781282961542872,0.0
0.5003087036516297,-0.3037839481278589,0.04375532640660892,-0.152447764738367,0.22815852466724557,-0.6923287769542585,0.0
0.5414063418201926,-0.22089535973670707,-0.007792838775713474,-0.1591598441354718,0.49685326159041265,-0.3004767491963755,0.0
0.44053058245942933,-0.13386234458981547,-0.046453960312639264,-0.38859104213976947,0.05021499195191325,0.34320547951754105,0.0
0.39196064644203665,-0.1048513368959261,0.0265726023293521,-0.23055200330693668,-0.2932160207357099,0.37664351439348853,0.0
0.33591867417425175,-0.1918843543098967,0.1597386916048403,-0.046274829156025044,-0.670456296961684,0.3599245097003877,0.0
0.3135017806277617,-0.2540507953198757,0.16403436204998245,0.1129845742174879,-0.77900190137456,0.22094764777471246,0.0
0.2873487381568567,-0.17116220806226334,-0.02067987948384007,0.07271208295018639,-0.5156454305258062,0.9315059844751428,0.0
0.2873487381568567,-0.17116220806226334,-0.02067987948384007,0.09589927714721948,-0.5574621555729269,1.1613924965508091,0.0
0.5339340439713641,-0.2540507953198757,-0.08511508302447304,-0.028579338651911996,-0.1455228894229891,0.7266979666942547,0.0
0.12295844708103794,-0.28306179847960705,-0.08511508302447304,0.023286753435074206,0.27709299568920104,1.1384038045596492,0.0
-0.32537837745499815,-0.2747729404339695,-0.04215828017450606,-0.002341197752080658,0.385638534992008,3.158270402272137,0.0
-0.1572520682539845,-0.2747729404339695,0.009389882951727314,-0.04749520672079389,0.2833210125655034,4.038108728400795,0.0
0.4778920717035816,-0.27062851141115074,0.0265726023293521,-0.043223882453226795,0.01907487298067719,4.533409564241947,0.0
1.0906191873154358,-0.49442770131415414,-0.06363668145262606,0.1520367009441091,1.2353189073023385,2.288881240600044,0.0
1.0906191873154358,-0.49442770131415414,-0.06363668145262606,0.02999883283217903,0.44613933237139214,1.1551228347424958,0.0
0.61239290978564,-0.5814607017250322,0.06093804578423372,0.08186492864033339,0.5475671474027205,0.1530266386363896,0.0
0.5115171504248761,-0.5648829856337569,0.1597386916048403,0.19352957163676363,0.0448766851837066,0.27632940976564613,0.0
0.5115171504248761,-0.5648829856337569,0.1597386916048403,0.3741456075116165,-0.3439299282513742,-0.05805097722844718,0.0
0.2836125892324418,-0.49857212126865685,0.06093804578423372,0.32533046026684453,-0.6366470252845744,0.20527356972316663,0.0
0.44800288030826146,-0.5607385475426222,-0.024975559328246265,0.16179972146225993,-0.9880855266101628,-0.059095916614875094,0.0
0.4218498378373568,-0.5690274237248921,-0.012088518620119672,0.1410532861159327,-1.5156881322961335,-0.11552260524736374,0.0
0.4330582846106002,-0.4695611090406094,-0.03356691989823967,0.07942416978962752,-1.3172810826160704,-0.059095916614875094,0.0
0.5974485756864186,-0.5648829856337569,-0.10659348224650404,0.21061486870703197,-1.4516283317091934,0.015094730435124338,0.0
0.4778920717035816,-0.48199440517738185,-0.13236756601257324,0.33875461906105403,-0.8181494608294394,0.17601529239293084,0.0
0.48910025687838565,-0.49442770131415414,-0.1882114039898538,0.19536013333245653,-0.5174248887228716,0.09764488939032887,0.0
0.5488786396690254,-0.5814607017250322,-0.19680276367866623,0.21427600698309088,-0.03608762102164962,0.04539795193111539,0.0
0.6273375054832988,-0.5980384178163073,-0.20109845292233644,0.34546671334283163,0.8411739735344534,-0.3495888621238689,0.0
0.4181136889129419,-0.5110054174054294,-0.09370644271328545,0.43699509582093815,1.2744664667572176,-0.08626432791712796,0.0
0.39196064644203665,-0.4737055471317443,-0.08941076286887926,0.2399039600308297,1.1472368768255037,0.17392541362007502,0.0
0.48910025687838565,-0.4239723988579191,-0.08941076286887926,0.0971196565725724,0.8251590667944312,0.3724637568477768,0.0
0.46294747600591973,-0.4695611090406094,0.039459641862570706,0.3497380190045578,0.6062885299917523,0.1248132943201453,0.0
0.44053058245942933,-0.5234387135422017,0.0523466860954213,0.3973328017086495,0.41321981149617165,0.047487829110862106,0.0
0.4218498378373568,-0.589749577907302,-0.02067987948384007,0.5639144965189526,0.695260311270476,-0.08417444914427218,0.0
0.4778920717035816,-0.6187605719987171,0.013685562796133532,0.40709583711147296,0.673017365950795,-0.15209545828259496,0.0
0.3994329442908658,-0.5607385475426222,0.017981242640539713,0.02694788798996484,0.24506316050580035,0.11331896744187467,0.0
0.3994329442908658,-0.5607385475426222,0.017981242640539713,-0.06885183364038167,-0.015624114908596982,0.08510562312563036,0.0
0.43679443353501507,-0.5110054174054294,0.06093804578423372,-0.008443091157677165,0.06445047576282441,0.0077801595094562775,0.0
0.4442667313838442,-0.5151498373599319,0.05664236593982751,0.013523721753418911,-0.1766630063595355,0.03808338120458597,0.0
0.44800288030826146,-0.4902832632230194,-0.02927123976010647,-0.08044543073889819,0.05110470748584803,0.2021387515638829,0.0
0.4965725547272154,-0.5110054174054294,-0.05074964074449947,-0.15854966186513164,0.06534018858383968,0.20736344849602248,0.0
0.4666836249303352,-0.49857212126865685,0.03516396201816451,-0.11705679117247722,0.18100349013899886,0.09764488939032887,0.0
0.41437753998852705,-0.48199440517738185,0.04805100625101511,-0.042613692740550324,0.3616161748819747,0.19168937044447665,0.0
0.3732799018199611,-0.5027165593597916,0.0910078046950771,0.07576303151356872,0.17210630767045518,0.29931805077731444,0.0
0.4181136889129419,-0.5980384178163073,0.1425559722272155,0.23807338345046392,0.17210630767045518,0.1728804742336471,0.0
0.47415592277916735,-0.5607385475426222,0.06523372562863991,0.19169899505639787,0.27353412270178357,0.05166758347035554,0.0
0.42932213568618594,-0.5980384178163073,0.12966892329473287,0.17217293913542356,-0.32791502151135205,-0.07268011589356507,0.0
0.4442667313838442,-0.5524497076336169,0.1339646125384031,0.33570367794000816,-0.6508825172342443,-0.1008934665822459,0.0
0.5414063418201926,-0.5110054174054294,-0.007792838775713474,0.31556742486402106,-0.25940674905860045,-0.21792660139293485,0.0
0.3695437528955459,-0.5027165593597916,-0.007792838775713474,0.022676563722397746,-0.46671095950385105,-0.3924313642225404,0.0
0.41437753998852705,-0.5690274237248921,-0.04215828017450606,-0.038952556325075605,-0.33325330928912184,-0.6902388726916567,0.0
0.4965725547272154,-0.49857212126865685,-0.12377620632376085,-0.2067546119548909,0.38741799318907333,-0.664115400775832,0.0
0.5189894482737059,-0.4405501149491942,0.0265726023293521,-0.17624515609041286,0.6178548563491807,-0.28271279237197394,0.0
0.45173902923267634,-0.42811681881242175,0.009389882951727314,-0.1243790602822585,0.17922405364529012,-0.2106120384328124,0.0
0.4181136889129419,-0.46127225099497193,0.039459641862570706,-0.042613692740550324,0.417668391878765,-0.28166786573041896,0.0
0.3994329442908658,-0.4695611090406094,0.039459641862570706,-0.06152956080943222,0.423896387051711,-0.20225252334138907,0.0
0.3732799018199611,-0.4695611090406094,0.04375532640660892,-0.10058167637254894,0.09114200146509895,-0.03192751168505868,0.0
0.5675593842910985,-0.45298339294933443,-0.05074964074449947,-0.06458050937281457,-0.03341846899400609,0.04017325858347132,0.0
0.6684351436518647,-0.4239723988579191,-0.05074964074449947,0.3656029664188187,0.40165348513874316,0.2878237302714803,0.0
0.4778920717035816,-0.5275831153600723,0.1425559722272155,-0.05603785711651218,-0.68558149630653,0.2606553317141003,0.0
0.41437753998852705,-0.5068609793142943,0.0523466860954213,-0.44472843616731367,-1.646476551808552,0.11227402805544676,0.0
0.4069052421396949,-0.4239723988579191,0.06952940547304609,-0.3440472005567236,-2.2239033793183673,0.1080942705097351,0.0
0.4704197738547525,-0.45298339294933443,0.0007985209130989366,-0.18783875318892942,-1.9952458441351861,-0.009983797314945347,0.0
0.45921132708150547,-0.4861388432685166,-0.07652372098584467,-0.2262806678758652,-1.9685543618396246,-0.029837632912202837,0.0
0.5301978950469498,-0.5690274237248921,-0.17102868461222903,-0.15854966186513164,-1.2345372965102923,0.10600439810931575,0.0
0.5115171504248761,-0.5358719915423418,-0.15384596523460423,-0.16282098241153062,-0.6206321185445522,-0.03192751168505868,0.0
0.4442667313838442,-0.5192942754510667,-0.1581416450790104,0.09284833602617347,-0.1081547556101404,0.03181374906792991,0.0
0.44053058245942933,-0.5110054174054294,-0.1452546055457918,0.13373100956381512,-0.4871744900331796,0.05375746224321138,0.0
0.4181136889129419,-0.46127225099497193,-0.11948052647935466,0.11115401252179481,-0.40354099653222564,0.12272341554728945,0.0
0.5264617461225349,-0.4861388432685166,-0.20539412336747861,0.0092523974858518,-0.2869880038594077,0.08510562312563036,0.0
0.5264617461225349,-0.4861388432685166,-0.20539412336747861,-0.040783125463105,-0.1455228894229891,-0.15627521582830664,0.0
0.3545994187963261,-0.3700948124929591,-0.18391572414544763,0.16240991861727272,-0.5200940109084,0.07256635686093182,0.0
0.3060294827789313,-0.35351709640168405,-0.14095892570138563,0.17034237743973044,-0.9097903208869783,0.3191718863745719,0.0
0.3060294827789313,-0.35351709640168405,-0.14095892570138563,0.04098224021801909,-1.179374830315391,0.24393630153125367,0.0
0.5152532993492903,-0.5400164296334765,-0.23975956212272817,0.05745735501794737,-0.8332746167675725,-0.09357889087725046,0.0
0.4554751781570906,-0.531727553451207,-0.24835092181154056,-0.0975307278091666,-1.051255489581788,-0.2053873287557999,0.0
0.4778920717035816,-0.5110054174054294,-0.2311682024339158,-0.22200934732946626,-1.012997594115372,-0.03819714163118969,0.0
0.42558598676177106,-0.45712783104046917,-0.33426453749819257,-0.3837095244383576,-0.6455442294564745,0.1561614567956734,0.0
0.4965725547272154,-0.45712783104046917,-0.31278612887689755,-0.21102594738596248,0.3447115390434199,0.07047648127429423,0.0
0.4965725547272154,-0.4695611090406094,-0.36003861656462965,-0.10363262493593127,0.898115941333133,-0.026702814752919104,0.0
0.634809803332128,-0.4737055471317443,-0.37722133594225454,-0.16343117956654338,1.4257184602056776,-0.17926385683997492,0.0
0.5003087036516297,-0.43226125690355666,-0.30849043963322736,-0.1469560647666151,0.04665611896449577,-0.19389300824996575,0.0
0.48910025687838565,-0.49442770131415414,-0.13666324585697945,-0.09203902783741473,1.0564856807564278,-0.39034148544968456,0.0
0.5301978950469498,-0.5400164296334765,-0.28701204981046036,-0.23421314158299553,1.7086486239684453,-0.5230486728221737,0.0
0.4330582846106002,-0.5110054174054294,-0.2655336411891654,-0.046274829156025044,1.639250665823874,-0.21479177048877818,0.0
0.34712712094749637,-0.4405501149491942,0.009389882951727314,0.03182940197020842,0.2681958132206574,0.09555501061747305,0.0
0.3545994187963261,-0.38252810862973147,-0.08511508302447304,-0.07495372704597816,0.1623194178067354,0.35887955756908685,0.0
0.42932213568618594,-0.41153910272114674,-0.08511508302447304,-0.11278546318374195,0.33225548358745877,0.1781051711657867,0.0
0.45173902923267634,-0.46127225099497193,-0.16673300476782282,-0.07434353733330169,1.1632517835655258,0.02972387148990591,0.0
0.4554751781570906,-0.4861388432685166,-0.17102868461222903,-0.08410656529378885,1.8518932074536072,-0.060140856001302985,0.0
0.47415592277916735,-0.49857212126865685,-0.10659348224650404,0.039151674801157846,1.6436993330198935,-0.1625448521468741,0.0
0.3994329442908658,-0.4737055471317443,-0.024975559328246265,0.111764194792135,1.1169864781358119,0.19273430983090453,0.0
0.11922229815662307,-0.46127225099497193,0.12966892329473287,0.1904786156310449,0.5013018419730063,0.4445645362766841,0.0
0.4069052421396949,-0.45298339294933443,0.022276922484945907,0.03976186079266616,-0.6357573178893983,0.2690148213157778,0.0
0.4778920717035816,-0.4778499852228792,-0.09800212255769164,0.18193597453824706,-1.1624701727734799,0.252295816622677,0.0
0.5712955332155157,-0.46127225099497193,-0.14095892570138563,0.10261135654432428,-1.5059011339156314,-0.0016242885959584894,0.0
0.5264617461225349,-0.43226125690355666,-0.16673300476782282,-0.034071042344832034,-1.3074941710489938,0.2502059378498212,0.0
0.5301978950469498,-0.4695611090406094,-0.2311682024339158,-0.15854966186513164,-0.8937754141469565,0.37141883020622185,0.0
0.5750316821399306,-0.4695611090406094,-0.35144725687581757,-0.05847861596721805,0.46749257029589675,0.4769576445110769,0.0
0.4704197738547525,-0.3949613866298717,-0.22257684274510342,0.42296075475638856,0.9514989927376819,0.7580461227973462,0.0
0.43679443353501507,-0.4861388432685166,-0.12377620632376085,0.14227366554128565,0.15253251709133736,0.5062158963515667,0.0
0.23504265321504672,-0.5690274237248921,0.0953034845394833,-0.5704274127859574,-2.847595338631045,-0.21165696507436743,0.0
0.4816279590295565,-0.5358719915423418,-0.07652372098584467,-0.5704274127859574,-3.0041857500774145,-0.11552260524736374,0.0
0.5937124267620044,-0.531727553451207,-0.21398548305629098,-0.39652350096222716,-1.9267375499790782,0.03390362644681526,0.0
0.4965725547272154,-0.46127225099497193,-0.4459522134527538,-0.16160060298617765,0.35360872151196376,0.4382948999581168,0.0
0.5675593842910985,-0.4364056768580593,-0.5662312490961273,-0.002951387464757121,2.7238165250836186,0.27005977344707865,0.0
0.6460182501053744,-0.5068609793142943,-0.3686299574549142,-0.3153683063879387,2.569895452856343,-0.1008934665822459,0.0
0.26866799353478177,-0.5400164296334765,0.17262572173879484,-0.36723439475375674,-0.19000876921067278,-0.04446677794975718,0.0
0.3545994187963261,-0.5192942754510667,0.0867121248506709,-0.21651764735771434,-1.2016177322283592,0.06107203316887943,0.0
0.4853641079539708,-0.5773162636338973,-0.05074964074449947,-0.03102009564203378,-0.4782772858612795,0.013004853255377626,0.0
0.5414063418201926,-0.45298339294933443,-0.33426453749819257,-0.1414643573525269,-0.22114889699889742,0.06734166311501046,0.0
0.5563509375178545,-0.5607385475426222,-0.278420690121648,0.09162795660082053,1.5983236915786425,0.08719549871226795,0.0
0.5227255971981201,-0.5607385475426222,-0.4545435919400941,-0.0981409175218431,2.7949939848319683,0.385003029484912,0.0
0.7506301583905526,-0.5358719915423418,0.0007985209130989366,-0.22994180615192406,2.0947862345864583,0.20840838788245036,0.0
0.4778920717035816,-0.5234387135422017,0.0867121248506709,-0.035901610552569393,1.2353189073023385,0.11854365800157779,0.0
0.4442667313838442,-0.531727553451207,0.06523372562863991,-0.1365828470934515,0.3482704120308374,0.048532768497290026,0.0
0.45173902923267634,-0.5151498373599319,-0.04215828017450606,-0.18966931488462246,0.7513125282672664,0.16765577730150752,0.0
0.42558598676177106,-0.5151498373599319,-0.07652372098584467,-0.35930193593129905,0.7797834253531802,0.09659995000390094,0.0
0.3994329442908658,-0.5607385475426222,0.1081905240727019,-0.11400584260909488,0.016405719935688814,0.07361129624735972,0.0
0.44800288030826146,-0.5648829856337569,0.08241644500626469,0.11847628907391242,-0.48450532444093813,0.04017325858347132,0.0
0.5040448525760446,-0.5400164296334765,0.08241644500626469,0.1971907099128223,-0.3403710552639566,-0.04655665035017655,0.0
0.2574595467615368,-0.5690274237248921,-0.3041947691880852,0.15264688321444925,-0.20958257064146885,0.19377924921733247,0.0
0.43679443353501507,-0.5441608314513471,-0.1581416450790104,0.24356508342221592,-0.37595976343477494,0.29200348781719193,0.0
0.42932213568618594,-0.5358719915423418,-0.09800212255769164,0.4919121550771476,-0.5663593597448271,0.5145754114429899,0.0
0.4666836249303352,-0.5110054174054294,-0.11518484193531643,0.2679726719292745,-0.005837220975497845,0.3411156007446852,0.0
0.40316909321528066,-0.5275831153600723,-0.09370644271328545,0.4272320604181147,0.16498857254729848,0.3599245097003877,0.0
0.3620714550467162,-0.5814607017250322,-0.09370644271328545,-0.023697824264665657,-0.544116414425146,0.24080148337196994,0.0
0.38075219966879115,-0.6187605719987171,-0.02927123976010647,0.09162795660082053,-0.8137008804468457,0.32962128023885107,0.0
0.42558598676177106,-0.5856051398161669,0.009389882951727314,0.29177004839664783,-1.065490981531458,0.41635118558800344,0.0
0.5451424907446105,-0.531727553451207,-0.16673300476782282,0.39123088969721226,-0.7816709801533755,0.5950356804735749,0.0
0.42558598676177106,-0.5358719915423418,-0.16673300476782282,0.4614026843279969,-0.8279363723965155,0.5971255847361767,0.0
0.4106413910641092,-0.5980384178163073,-0.13666324585697945,0.4144180838942454,-0.9240258128366485,0.10182464056360406,0.0
0.41437753998852705,-0.589749577907302,-0.1452546055457918,0.20207221272956147,-1.1135357017515246,-0.060140856001302985,0.0
0.4928364058027999,-0.5980384178163073,-0.24835092181154056,0.03732110566312845,-1.2950380938896764,0.3045427349645811,0.0
0.5825039799887598,-0.5814607017250322,-0.29989907994441495,-0.1280401985583173,-0.9738500346604929,0.16974565607436337,0.0
0.5451424907446105,-0.5938939797251725,-0.3299688482545224,-0.14268473677787988,-0.5654696089429381,-0.09671370903653422,0.0
0.5451424907446105,-0.5938939797251725,-0.3299688482545224,-0.4697462069447126,-0.1828910449391943,-0.3130160218335107,0.0
0.5414063418201926,-0.5358719915423418,-0.278420690121648,-0.48561112458962796,0.469271985086249,-0.4530378231456138,0.0
0.5414063418201926,-0.6104717320897116,-0.36003861656462965,-0.8321986730044441,1.1703695295403607,-0.6244077295813169,0.0
0.6646989947274475,-0.5690274237248921,-0.32137748856570997,-1.1446155677400327,1.7931719116780012,-0.9138557739385014,0.0
0.6236013565588834,-0.5731718618160269,-0.21828117229996122,-0.9701014141072717,2.1686326863001972,-0.984911601236108,0.0
0.47415592277916735,-0.5110054174054294,-0.012088518620119672,-0.1908896943099754,2.038733930776242,-0.4018358059555189,0.0
0.4666836249303352,-0.38252810862973147,0.0910078046950771,0.5980850608901443,-0.2754216775019791,-0.062230734774158844,0.0
0.4666836249303352,-0.38252810862973147,0.0910078046950771,0.8958574620601881,-1.2825820167303588,0.2617002583556553,0.0
0.3732799018199611,-0.6104717320897116,-0.514683090963253,-0.6772105901773301,1.3696662432088873,-0.07894975221213257,0.0
0.5750316821399306,-0.7513823007289174,-0.2526466110552108,0.7762603676836366,4.988147846427925,0.653552286113538,0.0
0.19394527664492223,-0.6519160041812672,0.3014961358695088,-0.09570015867113721,1.0022128785499895,0.12063353677443361,0.0
0.3097656317033471,-0.6270494481809867,0.19839980080523203,-0.14207454706520337,-0.5316603372658285,-0.007893921728307765,0.0
0.4778920717035816,-0.6809269982726823,0.08241644500626469,0.3576704778270155,0.06445047576282441,0.022409301360792402,0.0
0.4704197738547525,-0.5565941457247517,-0.07652372098584467,-0.42581257740135225,0.05555329600720032,-0.023568002966071817,0.0
0.4704197738547525,-0.5483052695424822,-0.055045320588905655,0.17278313629043632,0.24328372401209158,0.14675700231782213,0.0
0.47415592277916735,-0.5400164296334765,-0.06363668145262606,-0.04566463944334858,0.39186657357166665,0.015094730435124338,0.0
0.4554751781570906,-0.44469453490369687,0.009389882951727314,-0.07800467188819234,-0.08146321905618763,0.07570117502021556,0.0
0.4554751781570906,-0.5358719915423418,-0.055045320588905655,0.09895022571060177,-0.06099971565605455,0.14362218415853836,0.0
0.45173902923267634,-0.5400164296334765,-0.09370644271328545,0.05684716530527091,0.23705570713578925,0.09033031368533348,0.0
0.44053058245942933,-0.5483052695424822,-0.046453960312639264,0.04220261964337201,0.121392400154791,0.08719549871226795,0.0
0.45921132708150547,-0.5441608314513471,0.005094203107321122,0.1007807948486312,0.08847285215037498,0.09868982240432034,0.0
0.4442667313838442,-0.5441608314513471,-0.08081940318006685,0.08003435950230399,-0.7291776795507157,0.22826222347970787,0.0
0.4778920717035816,-0.5483052695424822,-0.10659348224650404,0.03976186079266616,-0.4862847392312905,0.10391451933645991,0.0
0.3545994187963261,-0.531727553451207,0.13826028298354526,0.03976186079266616,-1.8662367525996946,-0.002669227982386429,0.0
0.24625109998829164,-0.45298339294933443,0.1683300512936527,-0.014544984563273671,-1.9916870145544816,0.0568922772162769,0.0
0.3994329442908658,-0.48199440517738185,0.022276922484945907,0.1947499510621164,-1.7309996658912563,0.31499212882886024,0.0
0.4330582846106002,-0.5856051398161669,-0.4889090306953439,0.1367819655695338,-0.8359437823598135,0.3317111590117069,0.0
0.4554751781570906,-0.5441608314513471,-0.2956034094992728,-0.1689228795382953,-0.21936946050518866,0.22826222347970787,0.0
0.48910025687838565,-0.5483052695424822,-0.32567317780938015,-0.41726993630855436,0.033310356113358496,0.030768810478056546,0.0
0.6310736544077137,-0.5607385475426222,-0.3986997445635496,-0.3214702183993759,2.0707637442562863,-0.0873092673035559,0.0
0.4704197738547525,-0.5483052695424822,-0.13236756601257324,-0.27997731793737635,1.6810674776844203,-0.03401739045791451,0.0
0.38075219966879115,-0.5400164296334765,0.4690276404020865,0.1550876420651551,0.6365389286814442,-0.04655665035017655,0.0
0.38075219966879115,-0.5400164296334765,-0.0034971589313072876,-0.1908896943099754,0.2148127618161083,0.05062264567703673,0.0
0.3882244975176209,-0.5607385475426222,-0.3729256466985844,-0.984135814710512,0.2521809064806353,0.09973476179074822,0.0
0.5040448525760446,-0.5400164296334765,-0.1452546055457918,-1.0829864737407364,0.45325707834622686,0.1154088462147305,0.0
0.43679443353501507,-0.5400164296334765,0.06952940547304609,-0.6485316960085451,0.3046742504900082,0.22512740532042413,0.0
0.42558598676177106,-0.5856051398161669,0.0910078046950771,-0.2689939179938726,-0.3812980512125445,0.13212786365270424,0.0
0.32471022740100686,-0.6311938499988572,-0.007792838775713474,0.006201452643637628,-0.9916443561908673,0.2146780242010179,0.0
0.5301978950469498,-0.6187605719987171,-0.11948052647935466,0.06661019326575805,-0.718501103995176,0.18019503719376959,0.0
0.5040448525760446,-0.6270494481809867,0.0265726023293521,0.6054073672116073,-0.13573599955926932,0.1561614567956734,0.0
0.3620714550467162,-0.6270494481809867,-0.3299688482545224,0.7512425671368924,-0.7389645911177918,0.2972281720044586,0.0
0.4704197738547525,-0.5856051398161669,-0.3729256466985844,0.23441226005907795,-0.11349305423958837,0.10391451933645991,0.0
0.5227255971981201,-0.589749577907302,-0.2655336411891654,-0.13597265738077505,0.24150428751838285,-0.003714167368814333,0.0
0.42558598676177106,-0.5814607017250322,-0.11518484193531643,-0.1457356853412622,0.121392400154791,0.04226313616149532,0.0
0.42558598676177106,-0.5814607017250322,-0.11518484193531643,-0.18173685606216475,-0.4204456540741368,0.10704933749574366,0.0
0.4554751781570906,-0.6436271642722619,-0.07652372098584467,-0.1310911396793633,-0.4275634000489717,0.1383974935988353,0.0
0.5077810015004588,-0.589749577907302,-0.19250708383426002,-0.3001135710133635,-0.28253940177345754,0.12272341554728945,0.0
0.5077810015004588,-0.589749577907302,-0.19250708383426002,-0.620462954340755,0.31268170386001937,-0.14164607716318875,0.0
0.5077810015004588,-0.6146161339075821,-0.16673300476782282,-0.16587193841724926,0.475500023665908,-0.17299423326628033,0.0
0.4778920717035816,-0.5814607017250322,-0.24835092181154056,-0.6900245667011995,0.009287978708463105,-0.2806229135991181,0.0
0.4778920717035816,-0.5814607017250322,-0.24835092181154056,-0.5484606128989499,-0.4498063453686527,0.017184607614871058,0.0
0.4330582846106002,-0.5483052695424822,-0.24835092181154056,-0.014544984563273671,0.02708233245475727,0.13944243298526318,0.0
0.33591867417425175,-0.6146161339075821,-0.04215828017450606,0.18742767450999884,-0.2202591679003648,0.18750961289876497,0.0
0.33591867417425175,-0.6146161339075821,-0.04215828017450606,0.30763496604156315,-0.2932160207357099,0.06316190875551703,0.0
0.44053058245942933,-0.5690274237248921,-0.16673300476782282,0.11237439194714775,-0.09213983801844002,0.07570117502021556,0.0
0.45173902923267634,-0.5565941457247517,-0.19250708383426002,0.018405239454830642,-0.09213983801844002,-0.0005793492095305913,0.0
0.48910025687838565,-0.5690274237248921,-0.14955028539019802,0.06477962412772865,0.22104077869241065,-0.06432061354701467,0.0
0.4928364058027999,-0.589749577907302,-0.13666324585697945,0.08674643889940879,0.31268170386001937,0.022409301360792402,0.0
0.4704197738547525,-0.5607385475426222,-0.14095892570138563,0.17949521568754112,0.868755206631904,0.10495945872288781,0.0
0.5414063418201926,-0.5938939797251725,-0.14955028539019802,0.07576303151356872,0.3135714112551955,0.04957770629060883,0.0
0.5152532993492903,-0.6684937202725423,-0.09800212255769164,0.19780089218316246,0.469271985086249,0.13421774242556006,0.0
0.3097656317033471,-0.49857212126865685,0.0007985209130989366,0.10444193312469001,-0.4560343405415984,0.15093675986353378,0.0
0.45921132708150547,-0.5192942754510667,-0.12377620632376085,0.03732110566312845,0.019964590549301667,0.1080942705097351,0.0
0.48910025687838565,-0.5814607017250322,-0.1581416450790104,0.011693156336557672,-0.1303976900781431,0.025544117130412478,0.0
0.48910025687838565,-0.5648829856337569,-0.07652372098584467,-0.027358960156851103,-0.3830775094096097,-0.028792693525774946,0.0
0.4704197738547525,-0.5814607017250322,-0.15384596523460423,-0.12010773229352323,-0.020962421676803636,-0.05387122605517198,0.0
0.4965725547272154,-0.5814607017250322,-0.1882114039898538,-0.020646877736297163,0.30378452139147555,-0.03297245107148659,0.0
0.4704197738547525,-0.589749577907302,-0.13236756601257324,0.3375342545203737,0.3571675727960248,0.09555501061747305,0.0
0.46294747600591973,-0.5938939797251725,-0.08941076286887926,-0.12498924999493496,-0.594830300237454,-0.18657844528984327,0.0
0.4554751781570906,-0.5648829856337569,-0.18391572414544763,-0.27204487399959115,0.0003908026831033879,-0.241960194535904,0.0
0.46294747600591973,-0.5483052695424822,-0.128071886168167,-0.29096074765022545,-0.39464383576703826,-0.25972415136030563,0.0
0.42558598676177106,-0.5856051398161669,-0.06793236129703226,-0.07190277848259584,-0.2513992956885893,0.030768810478056546,0.0
0.4218498378373568,-0.6146161339075821,-0.10659348224650404,0.0586777344433003,-0.2745319484034464,0.11436390682830261,0.0
0.45921132708150547,-0.5690274237248921,-0.16243732492341661,-0.06274994023478517,-0.09125011977158567,-0.024612942352499723,0.0
0.4965725547272154,-0.5607385475426222,-0.14955028539019802,-0.04749520672079389,-0.11883136372071457,-0.07372505527999298,0.0
0.4666836249303352,-0.5441608314513471,-0.15384596523460423,-0.08715751013600301,-0.1001472913884511,-0.1552302764418787,0.0
0.4106413910641092,-0.5524497076336169,-0.1581416450790104,-0.09020845869938533,-0.4498063453686527,-0.19807276579567742,0.0
0.3620714550467162,-0.5856051398161669,-0.059341001608219854,0.25759945425611086,-0.8332746167675725,0.025544117130412478,0.0
0.4330582846106002,-0.531727553451207,-0.11948052647935466,0.23685301890978364,-0.5894920124596841,0.09033031368533348,0.0
0.4704197738547525,-0.5234387135422017,-0.28701204981046036,-0.016375552771011027,-0.35104767422620897,-0.026702814752919104,0.0
0.4778920717035816,-0.5400164296334765,-0.2956034094992728,-0.3031645121344093,-0.1232799549549864,-0.08208457037141632,0.0
0.47415592277916735,-0.5565941457247517,-0.26123797074402316,-0.47462772464612424,-0.11527249073329711,-0.11970236279307543,0.0
0.42558598676177106,-0.5483052695424822,-0.23546389167758602,-0.5374772129554461,-0.14374345292928037,-0.09148901210439463,0.0
0.4442667313838442,-0.531727553451207,-0.256942281500353,-0.4862213068599681,0.17032687117674647,0.022409301360792402,0.0
0.45921132708150547,-0.5565941457247517,-0.19680276367866623,-0.2671633562981795,0.48528693523298416,0.08197080496634658,0.0
0.4554751781570906,-0.5690274237248921,-0.1882114039898538,0.14227366554128565,0.9728522306621868,0.24393630153125367,0.0
0.5152532993492903,-0.6104717320897116,-0.128071886168167,0.7475814735148517,1.5591760453103374,0.6222041300104465,0.0
0.41437753998852705,-0.6892158744549524,-0.02927123976010647,0.8818231209956383,1.1312219700854818,0.31499212882886024,0.0
0.3882244975176209,-0.6602048803635366,-0.02927123976010647,0.6609345789688112,0.17032687117674647,0.04539795193111539,0.0
0.47415592277916735,-0.6270494481809867,-0.1882114039898538,0.602966578591556,0.5413391522297745,0.18541973412590915,0.0
0.47415592277916735,-0.5731718618160269,-0.21828117229996122,0.13861252726522685,0.3429321025497114,0.11749871861514989,0.0
0.42932213568618594,-0.5607385475426222,-0.20968981261114883,-0.45754241269118323,1.1249938880991097,-0.268083666451729,5.0
0.881395109146636,-0.589749577907302,-0.36003861656462965,0.3973328017086495,1.5307052350378494,0.10182464056360406,5.0
0.39196064644203665,-0.6270494481809867,-0.36003861656462965,-0.1908896943099754,0.20235670636014716,-0.04655665035017655,5.0
0.2724041424591972,-0.5980384178163073,0.0867121248506709,-0.2262806678758652,-0.2069134050492275,-0.04760158973660449,5.0
0.45921132708150547,-0.622905010089852,-0.02927123976010647,0.020235804871691868,0.11160551029107116,0.03181374906792991,5.0
0.46294747600591973,-0.5607385475426222,-0.11088916209091024,-0.08532694471914176,0.08936256497139025,-0.021478124193215976,5.0
0.4928364058027999,-0.5524497076336169,-0.08511508302447304,-0.02979971714697289,0.1382970359933457,-0.09566876965010629,5.0
0.45173902923267634,-0.6394827261811268,-0.08511508302447304,-0.0926492175500912,0.06178132102226131,-0.08103963098498838,5.0
0.45921132708150547,-0.6187605719987171,-0.11518484193531643,0.09528908743454301,0.2664163767269487,-0.027747754139347006,5.0
0.4181136889129419,-0.5648829856337569,-0.02067987948384007,0.25759945425611086,-0.06633801971134162,0.047487829110862106,5.0
0.4330582846106002,-0.531727553451207,-0.06363668145262606,0.17339331856077644,-0.46760066689902685,0.03181374906792991,5.0
0.45173902923267634,-0.5524497076336169,-0.16673300476782282,-0.16404136183688353,-0.5530135751903333,-0.036107262858333856,5.0
0.5301978950469498,-0.6104717320897116,-0.15384596523460423,-0.34038607716533764,0.009287978708463105,-0.28271279237197394,5.0
0.4965725547272154,-0.6187605719987171,-0.02067987948384007,-0.21651764735771434,0.06978877981811152,-0.2503197096273273,5.0
0.3545994187963261,-0.5856051398161669,0.08241644500626469,0.02084599458436835,-0.3786289290270164,-0.09566876965010629,5.0
0.33591867417425175,-0.5441608314513471,0.017981242640539713,0.27041343077998037,-1.13399918887414,0.004645344536390762,5.0
0.4554751781570906,-0.4902832632230194,-0.256942281500353,0.08003435950230399,-0.7434131715003856,0.06107203316887943,5.0
0.5414063418201926,-0.5192942754510667,-0.23546389167758602,0.0586777344433003,-0.41154844990223655,0.0934651318446172,5.0
0.4778920717035816,-0.531727553451207,-0.09800212255769164,-0.1506172030426739,-0.543226663623257,0.023454239154111205,5.0
0.4106413910641092,-0.5441608314513471,-0.08081940318006685,-0.35442041822988724,-0.9382613047863184,-0.12701692575319795,5.0
0.4069052421396949,-0.5151498373599319,-0.16673300476782282,-0.44167749504626785,-1.093961878617372,-0.22837599525721403,5.0
0.4778920717035816,-0.5275831153600723,-0.26123797074402316,-0.410557842026777,-0.7532000830674617,-0.11761248402021961,5.0
0.4778920717035816,-0.5275831153600723,-0.20968981261114883,-0.4380163716548816,-0.21492088012259505,-0.06745542533386194,5.0
0.45173902923267634,-0.531727553451207,-0.18391572414544763,-0.3129275475372328,-0.12416967320184079,0.06525178752837286,5.0
0.43679443353501507,-0.5151498373599319,-0.20968981261114883,-0.11095489404571256,0.14274562722761755,0.12167847616086154,5.0
0.45173902923267634,-0.5027165593597916,-0.23546389167758602,-0.20126291198313903,0.47461031627073186,0.07779105060685315,5.0
0.48910025687838565,-0.5524497076336169,-0.20968981261114883,-0.12987076025401037,0.996874547365507,0.08197080496634658,5.0
0.4816279590295565,-0.5690274237248921,-0.15384596523460423,0.17156275686508335,1.3794531547759636,0.16974565607436337,5.0
0.46294747600591973,-0.5607385475426222,-0.06363668145262606,0.26858285419961464,1.6561553233657853,0.26796989467422283,5.0
0.4554751781570906,-0.5607385475426222,-0.02927123976010647,0.3058043894611974,1.405254973083062,0.18541973412590915,5.0
0.45921132708150547,-0.5400164296334765,-0.055045320588905655,0.2728541896306863,1.1018612353842527,0.12063353677443361,5.0
0.42558598676177106,-0.5814607017250322,-0.046453960312639264,0.2874987129655761,0.7593199382305645,0.1154088462147305,5.0
0.33591867417425175,-0.5731718618160269,-0.05074964074449947,0.10627249482038308,-0.21759002401147992,0.008825098895884193,5.0
0.4330582846106002,-0.602182855907442,-0.04215828017450606,0.1514265037890963,-0.00672693922235221,0.06838660250143838,5.0
0.4330582846106002,-0.602182855907442,-0.04215828017450606,0.14044310384559255,-0.11883136372071457,0.07465623563378766,5.0
0.45173902923267634,-0.5814607017250322,-0.055045320588905655,0.07149171096716977,-0.06544830146448728,0.0694315418878663,5.0
0.4704197738547525,-0.5814607017250322,-0.13666324585697945,-0.012714416355536308,0.24595286790097645,0.11854365800157779,5.0
0.4704197738547525,-0.5814607017250322,-0.13666324585697945,0.20634354816063297,-0.33592247488136295,0.11331896744187467,5.0
0.4965725547272154,-0.5690274237248921,-0.08941076286887926,-0.07556391675865462,-0.05477169335391311,-0.025657881738927628,5.0
0.45173902923267634,-0.5938939797251725,-0.012088518620119672,0.14227366554128565,-0.009396092606455532,0.11958859738800573,5.0
0.45173902923267634,-0.5938939797251725,-0.012088518620119672,0.08430568004870294,-0.2513992956885893,-0.0005793492095305913,5.0
0.4554751781570906,-0.589749577907302,-0.012088518620119672,-0.048105396433470365,-0.34304022085619806,-0.05073640789588823,5.0
0.4554751781570906,-0.5483052695424822,-0.08081940318006685,0.044643378494077894,-0.34215049175766543,0.025544117130412478,5.0
0.4554751781570906,-0.5483052695424822,-0.08081940318006685,0.031219212257531943,-0.4453577215793461,0.08824043809869585,5.0
0.44053058245942933,-0.5192942754510667,-0.055045320588905655,0.04037205050534263,-0.25762731256489174,0.15407157802281754,5.0
0.5189894482737059,-0.5856051398161669,-0.08081940318006685,0.06355924470237569,0.09470087445251643,0.13317280303913215,5.0
0.5189894482737059,-0.5856051398161669,-0.08081940318006685,-0.0346812320575085,0.6374286360766204,0.07047648127429423,5.0
0.4928364058027999,-0.589749577907302,-0.11518484193531643,0.0019301265154864466,0.5537951859823791,0.005690280736600446,5.0
0.42558598676177106,-0.5856051398161669,-0.11518484193531643,0.13556158614418082,0.3011153775025907,0.047487829110862106,5.0
0.5750316821399306,-0.6394827261811268,-0.09800212255769164,0.6090684608336479,0.6934808530734108,0.13317280303913215,5.0
0.4853641079539708,-0.6311938499988572,-0.17962004430104142,-0.08715751013600301,0.1107157920442168,-0.030882572298630742,5.0
0.39196064644203665,-0.5731718618160269,0.005094203107321122,-0.011494037860475417,-0.12416967320184079,0.05480240003653017,5.0
0.4666836249303352,-0.5690274237248921,-0.10659348224650404,0.012303346049234132,0.19701839687902098,0.05584733942295808,5.0
0.4442667313838442,-0.589749577907302,-0.046453960312639264,0.012303346049234132,0.06356075751597007,0.019274484794617772,5.0
0.44800288030826146,-0.5980384178163073,-0.007792838775713474,0.011082966623881193,0.07601680212025297,0.017184607614871058,5.0
0.45921132708150547,-0.5814607017250322,-0.012088518620119672,0.03365997110823782,0.012846849406854694,0.018229545408189853,5.0
0.47415592277916735,-0.589749577907302,-0.046453960312639264,0.04708413734478377,0.12762042788277153,-0.036107262858333856,5.0
0.4554751781570906,-0.589749577907302,-0.06793236129703226,0.08308530062335,0.11249522853792554,-0.006848982341879854,5.0
0.4554751781570906,-0.5690274237248921,-0.06793236129703226,0.08064454921498046,0.08669341565666626,0.008825098895884193,5.0
0.45921132708150547,-0.5773162636338973,-0.059341001608219854,0.08125473892765692,0.07156821631182025,-0.013118615474229123,5.0
0.45921132708150547,-0.5814607017250322,-0.046453960312639264,0.08857700803743818,0.07690652036710734,0.026589055720285835,5.0
0.45173902923267634,-0.5731718618160269,-0.04215828017450606,0.11664571249354672,0.08847285215037498,0.022409301360792402,5.0
0.45173902923267634,-0.589749577907302,-0.02927123976010647,0.1081030714007488,0.1000391785078035,0.019274484794617772,5.0
0.46294747600591973,-0.589749577907302,-0.055045320588905655,0.12091704792461828,0.09292143795880771,0.027633994310159192,5.0
0.4704197738547525,-0.5938939797251725,-0.055045320588905655,0.12457817131600443,0.11427466503163429,0.0025554657635349304,5.0
0.4442667313838442,-0.5607385475426222,-0.055045320588905655,0.12457817131600443,0.06800934332440278,0.034948565136257936,5.0
0.44053058245942933,-0.5731718618160269,-0.03356691989823967,0.15020612436374337,0.018185155412052713,0.04644289052098875,5.0
0.44800288030826146,-0.5814607017250322,-0.03356691989823967,0.14593480381734444,0.016405719935688814,0.0568922772162769,5.0
0.4554751781570906,-0.5938939797251725,-0.046453960312639264,0.12884950674707601,0.033310356113358496,0.048532768497290026,5.0
0.43679443353501507,-0.5690274237248921,-0.055045320588905655,0.14959594209340324,-0.034308184527940905,0.04226313616149532,5.0
0.44800288030826146,-0.5607385475426222,-0.08511508302447304,0.11847628907391242,-0.008506374359601164,0.08928537748512377,5.0
0.4554751781570906,-0.5565941457247517,-0.046453960312639264,0.1129845742174879,0.0030599553889768183,0.11749871861514989,5.0
0.4442667313838442,-0.5565941457247517,-0.046453960312639264,0.10932345082610173,-0.03519790277479526,0.09242019245818928,5.0
0.4442667313838442,-0.5648829856337569,-0.03356691989823967,0.10932345082610173,-0.07879406974146365,0.08615056251205826,5.0
0.45921132708150547,-0.5565941457247517,-0.03356691989823967,0.0971196565725724,-0.061889433902908915,0.07047648127429423,5.0
0.4442667313838442,-0.5483052695424822,-0.007792838775713474,0.10444193312469001,-0.07612491500090054,0.07988092937970899,5.0
0.44800288030826146,-0.5483052695424822,-0.02067987948384007,0.07759360065159812,-0.06366887039661767,0.07047648127429423,5.0
0.45921132708150547,-0.5400164296334765,-0.02927123976010647,0.07271208295018639,-0.09213983801844002,0.07256635686093182,5.0
0.45921132708150547,-0.5192942754510667,-0.046453960312639264,0.06600000355308158,-0.04142592507693672,0.08301574435277452,5.0
0.46294747600591973,-0.5524497076336169,-0.06363668145262606,0.041592429930695556,0.027972049345151847,0.0934651318446172,5.0
0.45921132708150547,-0.5524497076336169,-0.06793236129703226,0.02999883283217903,0.03508978989414767,0.04957770629060883,5.0
0.4554751781570906,-0.5524497076336169,-0.06793236129703226,-0.002951387464757121,0.04131781490920869,0.05375746224321138,5.0
0.45921132708150547,-0.5690274237248921,-0.04215828017450606,-0.024308013570339355,0.05911216628169823,0.04539795193111539,5.0
0.4666836249303352,-0.5814607017250322,-0.04215828017450606,-0.05115634313626861,0.11516438327848864,0.006735220123028362,5.0
0.4666836249303352,-0.5607385475426222,-0.024975559328246265,-0.06641107478967578,0.14363534547447193,-0.028792693525774946,5.0
0.45921132708150547,-0.5483052695424822,-0.03356691989823967,-0.0767842924628394,0.13740731774649134,-0.037152202244761796,5.0
0.4554751781570906,-0.5400164296334765,-0.03356691989823967,-0.07007221306573458,0.15253251709133736,-0.016253430447294614,5.0
0.45921132708150547,-0.531727553451207,-0.012088518620119672,-0.08593713071065007,0.20235670636014716,-0.029837632912202837,5.0
0.45921132708150547,-0.5690274237248921,-0.03356691989823967,-0.11217527347106548,0.2228202151861194,-0.0486465291230324,5.0
0.43679443353501507,-0.5441608314513471,-0.03356691989823967,-0.10790394548233022,0.21837163480352578,-0.09671370903653422,5.0
0.45921132708150547,-0.531727553451207,-0.012088518620119672,-0.12681981913296436,0.19968756247126232,-0.11447766586093586,5.0
0.45173902923267634,-0.5483052695424822,-0.012088518620119672,-0.1329217088173927,0.2397248510246741,-0.0946238302636784,5.0
0.45173902923267634,-0.5565941457247517,-0.0034971589313072876,-0.15488852358907285,0.24506316050580035,-0.05491615906916346,5.0
0.4442667313838442,-0.5565941457247517,0.04375532640660892,-0.17624515609041286,0.2486220334932178,-0.11970236279307543,5.0
0.4442667313838442,-0.5690274237248921,0.0738250853174523,-0.17319420008469422,0.18278292663270757,-0.12179224156593127,5.0
0.4442667313838442,-0.5483052695424822,0.06093804578423372,-0.18478779718321076,0.13740731774649134,-0.08103963098498838,5.0
0.47415592277916735,-0.5441608314513471,0.0738250853174523,-0.20553423252953792,0.13651759949963696,-0.05178134728231614,5.0
0.47415592277916735,-0.531727553451207,0.08241644500626469,-0.22383992390983193,0.12584099138906282,-0.12179224156593127,5.0
0.45173902923267634,-0.5648829856337569,0.0910078046950771,-0.2366538855490288,0.121392400154791,-0.13851125900390499,5.0
0.44053058245942933,-0.5690274237248921,0.11248620391710809,-0.2671633562981795,0.17922405364529012,-0.1834436143856866,5.0
0.4554751781570906,-0.5358719915423418,0.1339646125384031,-0.23726408270404165,0.08669341565666626,-0.14269101654961666,5.0
0.4965725547272154,-0.531727553451207,0.0953034845394833,-0.20370367083384486,0.0955905926993708,-0.022523063579643877,5.0
0.48910025687838565,-0.5441608314513471,0.022276922484945907,-0.2574003357800287,0.21303332532239955,-0.05178134728231614,5.0
0.44053058245942933,-0.5773162636338973,0.039459641862570706,-0.2921811121909056,0.1943492529901361,-0.11029790831522417,5.0
0.42558598676177106,-0.5814607017250322,0.06523372562863991,-0.32635170633144245,0.15075308059762862,-0.14373595593604457,5.0
0.4181136889129419,-0.5938939797251725,0.09959916438388948,-0.3159784886582789,0.13206901911704338,-0.10716310290081336,5.0
0.41437753998852705,-0.5980384178163073,0.11248620391710809,-0.27997731793737635,0.11338494678477991,-0.08939913333153883,5.0
0.4442667313838442,-0.5856051398161669,0.08241644500626469,-0.18356741775785781,0.02886176759200622,-0.08521938853070006,5.0
0.4442667313838442,-0.5856051398161669,0.08241644500626469,-0.13597265738077505,0.01907487298067719,-0.04342183856332928,5.0
0.45921132708150547,-0.5773162636338973,0.06093804578423372,-0.09692053809649015,0.027972049345151847,-0.07790481282570463,5.0
0.4554751781570906,-0.5814607017250322,0.0738250853174523,-0.12254849114422912,0.056443014254054666,-0.12388212033878712,5.0
0.4554751781570906,-0.5814607017250322,0.0738250853174523,-0.12743000884564082,0.03153091961964976,-0.13433150145819336,5.0
0.44800288030826146,-0.5358719915423418,0.06093804578423372,-0.13780322651880444,0.030641202729255173,-0.13642138023104916,5.0
0.45921132708150547,-0.5441608314513471,0.10389484422829569,-0.13780322651880444,0.026192614207902896,-0.13851125900390499,5.0
0.45921132708150547,-0.5441608314513471,0.10389484422829569,-0.1207179220061997,0.05288414397955677,-0.11447766586093586,5.0
0.46294747600591973,-0.5151498373599319,0.06952940547304609,-0.06946202335305812,0.019964590549301667,-0.04133195979047344,5.0
0.48910025687838565,-0.5151498373599319,0.039459641862570706,-0.08410656529378885,0.04309724868999786,-0.07685987343927674,5.0
0.48910025687838565,-0.5151498373599319,0.039459641862570706,-0.13536246766809856,0.057332732500909055,-0.08208457037141632,5.0
0.4554751781570906,-0.5275831153600723,0.06952940547304609,-0.15732928243977873,0.017295437843428234,-0.09253395149082257,5.0
0.42558598676177106,-0.5483052695424822,0.05664236593982751,-0.1402439853695103,0.02708233245475727,-0.036107262858333856,5.0
0.42558598676177106,-0.5483052695424822,0.05664236593982751,-0.11949754258084679,0.015516002367064336,-0.014163554860657028,5.0
0.4181136889129419,-0.5607385475426222,0.08241644500626469,-0.05359710012639039,-0.05210253861335001,-0.03924208101761763,5.0
0.47415592277916735,-0.5483052695424822,0.039459641862570706,-0.025528392181686753,-0.03519790277479526,-0.013118615474229123,5.0
0.4778920717035816,-0.5275831153600723,0.022276922484945907,-0.03529142083989293,0.0048393905262257755,-0.011028736701373287,5.0
0.4704197738547525,-0.5068609793142943,0.039459641862570706,-0.05603785711651218,-0.012954962880953439,-0.009983797314945347,5.0
0.4442667313838442,-0.5027165593597916,0.05664236593982751,-0.08776769984867946,-0.08769124678416818,-0.03192751168505868,5.0
0.4442667313838442,-0.4902832632230194,0.04375532640660892,-0.0981409175218431,-0.08858096503102257,-0.019388245420360144,5.0
0.45921132708150547,-0.4902832632230194,0.04375532640660892,-0.1231586808569056,-0.051212820366495625,-0.05387122605517198,5.0
0.45921132708150547,-0.4861388432685166,0.07812076516185851,-0.11705679117247722,-0.057440842668637096,-0.0016242885959584894,5.0
0.46294747600591973,-0.48199440517738185,0.0265726023293521,-0.10790394548233022,-0.03875677576221274,0.008825098895884193,5.0
0.44800288030826146,-0.4778499852228792,0.039459641862570706,-0.12865038827099376,-0.04231564332379108,-0.00580404295545192,5.0
0.42932213568618594,-0.49857212126865685,0.06093804578423372,-0.16221080014119044,-0.0698968926987591,-0.013118615474229123,5.0
0.4442667313838442,-0.48199440517738185,0.0523466860954213,-0.1591598441354718,-0.1312874083249975,-0.003714167368814333,5.0
0.4965725547272154,-0.48199440517738185,0.04805100625101511,-0.20431385310418507,-0.10993419210384914,0.004645344536390762,5.0
0.48910025687838565,-0.4695611090406094,0.005094203107321122,-0.22506028845051224,-0.1001472913884511,-0.01207367608780119,5.0
0.4778920717035816,-0.4654166890861067,0.013685562796133532,-0.2805875299770618,-0.1544200718915328,0.006735220123028362,5.0
0.43679443353501507,-0.4737055471317443,0.0523466860954213,-0.3117071829965525,-0.21047227803664498,-0.027747754139347006,5.0
0.4330582846106002,-0.45298339294933443,0.04805100625101511,-0.28424865336844785,-0.2789805504893965,0.015094730435124338,5.0
0.4554751781570906,-0.48199440517738185,-0.007792838775713474,-0.2549595769293228,-0.21581058751777119,0.014049791048696424,5.0
0.4666836249303352,-0.5068609793142943,-0.06363668145262606,-0.25129843865326396,-0.1588686631258046,0.03181374906792991,5.0
0.45921132708150547,-0.4902832632230194,-0.055045320588905655,-0.14451530591590925,-0.09658841840103363,0.026589055720285835,5.0
0.4330582846106002,-0.5607385475426222,-0.07222804114143845,-0.2836384710981077,-0.18022187934695294,0.04539795193111539,5.0
0.44800288030826146,-0.5192942754510667,-0.06793236129703226,-0.2793671356670362,-0.1232799549549864,0.06838660250143838,5.0
0.45921132708150547,-0.49857212126865685,-0.06793236129703226,-0.24763730037720524,-0.0476539528049173,0.08092586876613693,5.0
0.4704197738547525,-0.4737055471317443,-0.08941076286887926,-0.25251881807861687,0.016405719935688814,0.08301574435277452,5.0
0.4778920717035816,-0.45298339294933443,-0.06793236129703226,-0.2561799563546758,0.024413179070653938,0.03390362644681526,5.0
0.45173902923267634,-0.4364056768580593,-0.055045320588905655,-0.28302828882776754,-0.0004989155637509765,0.013004853255377626,5.0
0.4330582846106002,-0.40325024467550924,-0.024975559328246265,-0.29462187104161147,0.011067414100048268,0.022409301360792402,5.0
0.45173902923267634,-0.43226125690355666,-0.055045320588905655,-0.30255432986406916,0.0039496729576012956,0.05480240003653017,5.0
0.4666836249303352,-0.44469453490369687,-0.03356691989823967,-0.2769263768163303,0.09203171971195334,0.028678932900032553,5.0
0.4778920717035816,-0.4405501149491942,-0.02927123976010647,-0.2702142974192256,0.06711962507754843,0.005690280736600446,5.0
0.4816279590295565,-0.42811681881242175,0.022276922484945907,-0.2738754356952842,0.07512708387339857,-0.022523063579643877,5.0
0.47415592277916735,-0.4198279607667843,-0.0034971589313072876,-0.32024982408935054,0.08135510617554005,-0.0496914685094603,5.0
0.45921132708150547,-0.3949613866298717,-0.007792838775713474,-0.3409962594356778,0.05110470748584803,-0.03924208101761763,5.0
0.45921132708150547,-0.3949613866298717,-0.046453960312639264,-0.3580815713906188,0.07957567510767044,-0.04237689917690138,5.0
0.45921132708150547,-0.41153910272114674,-0.046453960312639264,-0.35930193593129905,0.04220753315606305,-0.022523063579643877,5.0
0.4704197738547525,-0.4364056768580593,-0.055045320588905655,-0.3538102359595471,0.06356075751597007,-0.011028736701373287,5.0
0.4778920717035816,-0.4405501149491942,-0.055045320588905655,-0.35747138912027865,0.1000391785078035,-0.052826286668744074,5.0
0.47415592277916735,-0.45298339294933443,-0.059341001608219854,-0.38187894785799203,0.121392400154791,-0.03819714163118969,5.0
0.45921132708150547,-0.45298339294933443,-0.04215828017450606,-0.3550306302695727,0.13740731774649134,-0.04655665035017655,5.0
0.45921132708150547,-0.45712783104046917,-0.02927123976010647,-0.33245361834287973,0.07423736562654423,-0.052826286668744074,5.0
0.46294747600591973,-0.4654166890861067,-0.02067987948384007,-0.30133396532338885,0.027972049345151847,-0.04237689917690138,5.0
0.4965725547272154,-0.4778499852228792,-0.02067987948384007,-0.31048678868652707,0.04932527370505887,-0.015208491060866717,5.0
0.4816279590295565,-0.4861388432685166,-0.046453960312639264,-0.2995033887430233,0.11961296366108225,-0.003714167368814333,5.0
0.44800288030826146,-0.49442770131415414,-0.055045320588905655,-0.27631619454599016,0.12406155489535407,-0.004759103569024023,5.0
0.44800288030826146,-0.4902832632230194,-0.024975559328246265,-0.2427557826757934,0.12495127314220844,-0.006848982341879854,5.0
0.45921132708150547,-0.4695611090406094,-0.007792838775713474,-0.22689086503087805,0.012846849406854694,0.03285868765780326,5.0
0.4928364058027999,-0.48199440517738185,-0.046453960312639264,-0.22078896790411331,0.0030599553889768183,0.04017325858347132,5.0
0.4778920717035816,-0.5192942754510667,-0.059341001608219854,-0.22933162388158393,0.08135510617554005,0.019274484794617772,5.0
0.45921132708150547,-0.49442770131415414,-0.0034971589313072876,-0.20126291198313903,0.10359804606938187,0.003600405149962846,5.0
0.4442667313838442,-0.48199440517738185,-0.01638419846452587,-0.173804397239707,0.012846849406854694,0.04539795193111539,5.0
0.44800288030826146,-0.4654166890861067,-0.08511508302447304,-0.20187309425347916,-0.0076166561127467974,0.03390362644681526,5.0
0.4666836249303352,-0.4695611090406094,-0.07652372098584467,-0.2201787856337732,0.03508978989414767,0.04539795193111539,5.0
0.45173902923267634,-0.4695611090406094,-0.055045320588905655,-0.198211970862093,-0.012065244634099073,0.006735220123028362,5.0
0.4330582846106002,-0.4405501149491942,-0.06363668145262606,-0.1805164766368118,-0.12950797183128873,-0.002669227982386429,5.0
0.44800288030826146,-0.42811681881242175,-0.06793236129703226,-0.16404136183688353,-0.1090444738569948,0.05480240003653017,5.0
0.4704197738547525,-0.42811681881242175,-0.128071886168167,-0.16404136183688353,-0.024521291951301538,0.03181374906792991,5.0
0.4330582846106002,-0.43226125690355666,-0.06363668145262606,-0.16282098241153062,-0.034308184527940905,-0.006848982341879854,5.0
0.4330582846106002,-0.4405501149491942,-0.05074964074449947,-0.1774655355157658,-0.14730232591669784,-0.04760158973660449,5.0
0.45173902923267634,-0.4364056768580593,-0.08081940318006685,-0.2000425325577861,-0.1054856008695773,-0.009983797314945347,5.0
0.45173902923267634,-0.4364056768580593,-0.08081940318006685,-0.1908896943099754,-0.08947068327787694,-0.03401739045791451,5.0
0.4704197738547525,-0.41153910272114674,-0.13666324585697945,-0.17624515609041286,-0.06099971565605455,-0.01834330603393224,5.0
0.47415592277916735,-0.4239723988579191,-0.1581416450790104,-0.1500070058876611,0.03597950814100204,0.025544117130412478,5.0
0.45921132708150547,-0.4405501149491942,-0.16673300476782282,-0.0926492175500912,0.0964803109462252,0.037038442515143294,5.0
0.4554751781570906,-0.45298339294933443,-0.16243732492341661,-0.07312315790794875,0.10448776431623624,-0.002669227982386429,5.0
0.45173902923267634,-0.4737055471317443,-0.128071886168167,-0.042003503027873854,0.0849139791629575,-0.08835419394511089,5.0
0.45921132708150547,-0.4654166890861067,-0.10659348224650404,-0.009053280870353632,0.07690652036710734,-0.06641048594743404,5.0
0.48910025687838565,-0.4239723988579191,-0.11518484193531643,0.003760693792931752,0.14007647248705446,-0.007893921728307765,5.0
0.4816279590295565,-0.41568354081228154,-0.14095892570138563,0.012913535761910592,0.16320913605358975,0.03181374906792991,5.0
0.46294747600591973,-0.41153910272114674,-0.1581416450790104,-0.0011208201873118158,0.15431195358504607,-0.0005793492095305913,5.0
0.43679443353501507,-0.4239723988579191,-0.16243732492341661,0.005591262930961169,0.13473816300592825,-0.028792693525774946,5.0
0.4666836249303352,-0.4405501149491942,-0.09800212255769164,0.06355924470237569,0.2352762706420805,-0.003714167368814333,5.0
0.5003087036516297,-0.4737055471317443,-0.07652372098584467,0.10688269197539588,0.35271899241343113,0.014049791048696424,5.0
0.48910025687838565,-0.4902832632230194,-0.09800212255769164,0.10749287424573602,0.378520789017173,0.019274484794617772,5.0
0.4330582846106002,-0.46127225099497193,-0.08941076286887926,0.09162795660082053,0.2833210125655034,0.03285868765780326,5.0
0.4106413910641092,-0.46127225099497193,-0.10659348224650404,0.12884950674707601,0.1489736549555981,0.04017325858347132,5.0
0.4330582846106002,-0.4654166890861067,-0.10229780240209783,0.1373921478398739,0.15520167183190048,0.03390362644681526,5.0
0.45921132708150547,-0.4695611090406094,-0.06363668145262606,0.1538672626398022,0.1890109435090099,0.023454239154111205,5.0
0.48910025687838565,-0.4778499852228792,-0.02927123976010647,0.15813858318620116,0.3829694128064796,0.10495945872288781,5.0
0.4965725547272154,-0.4695611090406094,0.009389882951727314,0.1270189301667103,0.4025431925339193,0.057937216602704796,5.0
0.4666836249303352,-0.4239723988579191,-0.007792838775713474,0.05501659616724151,0.36339561137568344,0.014049791048696424,5.0
0.4554751781570906,-0.3991058247210066,0.08241644500626469,-0.034071042344832034,0.23260710504983917,0.07361129624735972,5.0
0.46294747600591973,-0.41153910272114674,0.1339646125384031,-0.042613692740550324,0.2050258719523885,0.11227402805544676,5.0
0.4778920717035816,-0.390816966675369,0.1253732528495907,-0.06885183364038167,0.15787082657246357,0.14989182047710584,5.0
0.4965725547272154,-0.40325024467550924,0.1081905240727019,-0.1188873528681703,0.1187232454142279,0.19691406737661624,5.0
0.5152532993492903,-0.45712783104046917,0.0910078046950771,-0.13841341623148093,0.08758313390352061,0.24916099846339326,5.0
0.5077810015004588,-0.5275831153600723,0.10389484422829569,-0.13597265738077505,0.07423736562654423,0.21258814542816204,5.0
0.4704197738547525,-0.531727553451207,0.0953034845394833,-0.1451254956285857,0.012846849406854694,0.27005977344707865,5.0
0.4666836249303352,-0.5358719915423418,0.0910078046950771,-0.1365828470934515,-0.00672693922235221,0.43933982659967186,5.0
0.4928364058027999,-0.5814607017250322,0.06952940547304609,-0.0981409175218431,0.07690652036710734,0.5762267970076184,5.0
0.48910025687838565,-0.6394827261811268,0.0523466860954213,-0.06091937109675577,0.15075308059762862,0.5898109962863082,5.0
0.4704197738547525,-0.726515744728637,0.03516396201816451,0.007421830208406473,0.18812122526215552,0.5720470394619066,5.0
0.45921132708150547,-0.7762488930024621,0.04805100625101511,0.07149171096716977,0.25307061387581137,0.5636875243704834,5.0
0.4554751781570906,-0.8011154490027426,0.0738250853174523,0.12457817131600443,0.40165348513874316,0.46023861432823027,5.0
0.4218498378373568,-0.726515744728637,0.15114733191602792,0.15630802149050804,0.47461031627073186,0.36410424175635353,5.0
0.38075219966879115,-0.622905010089852,0.21987820942652703,0.15935896261155402,0.2708649788128987,0.2428913621448257,5.0
0.377016050744376,-0.5856051398161669,0.22417387987166923,0.160579342036907,0.14274562722761755,0.20109381217745498,5.0
0.4330582846106002,-0.5400164296334765,0.21558252018285684,0.13617176841452097,0.08135510617554005,0.12690316672056468,5.0
0.4853641079539708,-0.5192942754510667,0.17262572173879484,0.08064454921498046,0.24684259699950906,-0.061185795387730925,5.0
0.4816279590295565,-0.5110054174054294,0.23276523956048162,0.0897973874627911,0.32958633969857387,-0.21688164926163403,5.0
0.43679443353501507,-0.5483052695424822,0.29720044662583867,0.08613624918673234,0.3349246491797002,-0.2994318225548206,5.0
0.4069052421396949,-0.5483052695424822,0.2886091057355544,0.0586777344433003,0.33136577619228264,-0.35794837721529205,5.0
0.3658076039711314,-0.5773162636338973,0.29720044662583867,0.039151674801157846,0.2699752497143661,-0.449902992241457,5.0
0.2649318446103672,-0.5483052695424822,0.3530442940023832,0.07210189323750993,0.12939986437648027,-0.49483534762323855,5.0
0.24625109998829164,-0.5524497076336169,0.34445291551504287,0.10261135654432428,-0.08858096503102257,-0.47289163325312555,5.0
0.24251495106387735,-0.5483052695424822,0.2886091057355544,0.11054383025145467,-0.20513396855551877,-0.4122851743300521,5.0
0.3433909720230815,-0.5151498373599319,0.29720044662583867,0.2588198187967912,-0.5966097584345191,-0.2106120384328124,5.0
0.5825039799887598,-0.4861388432685166,0.12107756360592048,0.4064856250717877,-0.7656560734133534,0.10704933749574366,5.0
0.7879916476347019,-0.5607385475426222,-0.07222804114143845,0.3656029664188187,-0.37595976343477494,0.1603412015965121,5.0
0.7170050796692586,-0.622905010089852,-0.08081940318006685,0.11115401252179481,0.07512708387339857,-0.06954530410671776,5.0
0.5152532993492903,-0.5690274237248921,0.10389484422829569,-0.0975307278091666,0.26107806724582244,-0.18762337193139825,5.0
0.358335306122301,-0.48199440517738185,0.24994797773663444,-0.15793946471011888,0.17477546241101827,-0.13433150145819336,5.0
0.3209740784765917,-0.4405501149491942,0.28431341649188396,-0.17319420008469422,-0.04053621225592145,0.013004853255377626,5.0
0.3695437528955459,-0.45298339294933443,0.18551277067127747,-0.21407688850700846,-0.22915635036890844,0.18959949167162082,5.0
0.45921132708150547,-0.49442770131415414,0.14685164267235767,-0.2000425325577861,-0.2985543302168362,0.19482418860376038,5.0
0.47415592277916735,-0.5275831153600723,0.12966892329473287,-0.15427834131873272,-0.3412607843624893,0.16765577730150752,5.0
0.4704197738547525,-0.49442770131415414,0.11248620391710809,-0.1262096294202879,-0.35282711071991774,0.08406068373920242,5.0
0.44800288030826146,-0.5110054174054294,0.05664236593982751,-0.18661837376357646,-0.3154589660553909,-0.004759103569024023,5.0
0.4778920717035816,-0.5027165593597916,0.0738250853174523,-0.24214560040545324,-0.17488356986582676,-0.015208491060866717,5.0
0.47415592277916735,-0.5110054174054294,0.06093804578423372,-0.2555697591996629,-0.08769124678416818,-0.03401739045791451,5.0
0.44800288030826146,-0.5027165593597916,0.1081905240727019,-0.26350221802212065,-0.030749316966362544,-0.06327567416058678,5.0
0.44053058245942933,-0.49442770131415414,0.11678188376151429,-0.23726408270404165,-0.1001472913884511,-0.04655665035017655,5.0
0.46294747600591973,-0.5110054174054294,0.06093804578423372,-0.19516101485637435,-0.16865555298952442,0.019274484794617772,5.0
0.45921132708150547,-0.5027165593597916,0.07812076516185851,-0.16282098241153062,-0.08413237379675073,-0.00580404295545192,5.0
0.43679443353501507,-0.4654166890861067,0.1081905240727019,-0.15183758246802684,-0.1384051542998324,-0.05178134728231614,5.0
0.4442667313838442,-0.4364056768580593,0.0910078046950771,-0.15366814416371993,-0.17399386247065063,-0.05387122605517198,5.0
0.45173902923267634,-0.45298339294933443,0.0738250853174523,-0.1805164766368118,-0.19267793480291412,-0.09880358780939004,5.0
0.45173902923267634,-0.46127225099497193,0.0910078046950771,-0.21956858847876035,-0.17755273545806807,-0.14373595593604457,5.0
0.4778920717035816,-0.48199440517738185,0.0738250853174523,-0.21834820905340746,-0.2078031341477601,-0.11447766586093586,5.0
0.5189894482737059,-0.4902832632230194,0.017981242640539713,-0.19699159143674008,-0.30300291059942985,-0.059095916614875094,5.0
0.5115171504248761,-0.44883897299483166,0.009389882951727314,-0.17136363838900112,-0.23894324023262825,-0.06641048594743404,5.0
0.48910025687838565,-0.4073946827666441,-0.05074964074449947,-0.15854966186513164,-0.3012234741057211,-0.08417444914427218,5.0
0.48910025687838565,-0.4073946827666441,-0.05074964074449947,-0.1609904207158375,-0.3012234741057211,-0.035062329844342426,5.0
0.4554751781570906,-0.3493726673788653,-0.11948052647935466,-0.19149987658031553,-0.32346641942540183,-0.05178134728231614,5.0
0.4069052421396949,-0.3327949512875903,-0.14955028539019802,-0.1487866264623082,-0.38574667500185117,0.0015105263771070026,5.0
0.4069052421396949,-0.3327949512875903,-0.14955028539019802,-0.19699159143674008,-0.4934024852061255,-0.016253430447294614,5.0
0.5003087036516297,-0.5192942754510667,-0.13666324585697945,-0.19211007373532835,-0.3519373816213851,-0.025657881738927628,5.0
0.5152532993492903,-0.5483052695424822,-0.11518484193531643,-0.08105562045157469,-0.1891190618154966,-0.0946238302636784,5.0
0.5152532993492903,-0.5483052695424822,-0.11518484193531643,0.07515284180089225,-0.12239023670813204,-0.30570145887338807,5.0
0.5488786396690254,-0.5607385475426222,-0.08081940318006685,0.20939448928167903,-0.056551129847621825,-0.4843859792487054,5.0
0.48910025687838565,-0.41153910272114674,-0.11518484193531643,0.32105912483577287,0.005729108094850253,-0.6129134345652286,5.0
0.48910025687838565,-0.41153910272114674,-0.11518484193531643,0.28993947181628205,0.020854308117926143,-0.5679810791834469,5.0
0.40316909321528066,-0.24576193500715915,-0.21828117229996122,0.24539566000258153,-0.018293269649160088,-0.3725775286252828,5.0
0.39196064644203665,-0.24576193500715915,-0.21828117229996122,0.2295307423576661,-0.03252875074715171,-0.22524116435305735,5.0
0.39196064644203665,-0.24576193500715915,-0.21828117229996122,0.23868356572080413,-0.11794164547386021,-0.006848982341879854,5.0
0.4106413910641092,-0.23747307696152162,-0.21828117229996122,0.2484466011236276,-0.008506374359601164,0.1248132943201453,5.0
0.4554751781570906,-0.24576193500715915,-0.26123797074402316,0.1782748362621882,0.2584089233569376,0.2272172840932799,5.0
0.48910025687838565,-0.22918421891588406,-0.24835092181154056,0.07149171096716977,0.43546271340913945,0.3379807953302744,5.0
0.4330582846106002,-0.20017321292230394,-0.22687253198877363,-0.1188873528681703,0.33225548358745877,0.4654632985154966,5.0
0.4181136889129419,-0.21260650084091487,-0.2311682024339158,-0.3470981416777697,0.20057726986643845,0.4675532027780984,5.0
0.5414063418201926,-0.3866725285842341,-0.23975956212272817,-0.4062865065957053,0.4025431925339193,0.3191718863745719,5.0
0.6684351436518647,-0.5814607017250322,-0.11518484193531643,-0.31719888296830445,0.49685326159041265,-0.0016242885959584894,5.0
0.5675593842910985,-0.6146161339075821,0.013685562796133532,-0.1310911396793633,0.3082331017740692,-0.14478089532247246,5.0
0.39196064644203665,-0.46127225099497193,0.013685562796133532,-0.137193036806128,0.08313454266924879,-0.06641048594743404,5.0
0.2985571849301016,-0.29549509008222136,0.013685562796133532,-0.16709231784260217,-0.11260333599273398,0.14675700231782213,5.0
0.32844637632542145,-0.27062851141115074,-0.07652372098584467,-0.1506172030426739,-0.20068538817292522,0.3975423021220468,5.0
0.3956967953664515,-0.3037839481278589,-0.08511508302447304,-0.08715751013600301,-0.2896571477482926,0.45396897800966257,5.0
0.5264617461225349,-0.41153910272114674,-0.09800212255769164,-0.03346085356244761,-0.21314144362888632,0.4414297053725277,5.0
0.6273375054832988,-0.4778499852228792,-0.10659348224650404,0.02877845712799425,0.08758313390352061,0.30663261373743694,5.0
0.5937124267620044,-0.4405501149491942,-0.10659348224650404,0.06233886527702276,0.14363534547447193,0.07779105060685315,5.0
0.5040448525760446,-0.38252810862973147,-0.07222804114143845,-0.0005106304746353354,0.11605410152534298,0.0015105263771070026,5.0
0.4330582846106002,-0.3949613866298717,-0.055045320588905655,-0.05054615342359215,0.03508978989414767,0.04957770629060883,5.0
0.42932213568618594,-0.43226125690355666,-0.08081940318006685,0.02694788798996484,0.04398696693685221,0.06107203316887943,5.0
0.45173902923267634,-0.4405501149491942,-0.08081940318006685,0.08735662861208526,0.03597950814100204,0.13944243298526318,5.0
0.4554751781570906,-0.42811681881242175,-0.04215828017450606,0.10993363309644186,0.1489736549555981,0.279464215180057,5.0
0.47415592277916735,-0.4737055471317443,-0.04215828017450606,0.12518836847101722,0.28065186867661845,0.2564755741683887,5.0
0.5077810015004588,-0.5234387135422017,0.030868282173758324,0.1740035157157893,0.4514776635558746,0.14780194170425,5.0
0.4816279590295565,-0.5400164296334765,0.0953034845394833,0.2710236130503205,0.4345730060139633,0.015094730435124338,5.0
0.47415592277916735,-0.531727553451207,0.0910078046950771,0.30092287175978577,0.4185580992739412,-0.06850036472028988,5.0
0.45921132708150547,-0.46127225099497193,0.12107756360592048,0.3680436955001791,0.355388136302316,-0.014163554860657028,5.0
0.45921132708150547,-0.4405501149491942,0.0953034845394833,0.38329843087475457,0.2833210125655034,0.048532768497290026,5.0
0.4666836249303352,-0.42811681881242175,0.0523466860954213,0.34058519564141976,0.2913284659355145,0.08928537748512377,5.0
0.4218498378373568,-0.41153910272114674,0.06523372562863991,0.21732694810413675,0.20057726986643845,0.07465623563378766,5.0
0.40316909321528066,-0.4073946827666441,0.06952940547304609,0.15020612436374337,0.08936256497139025,0.005690280736600446,5.0
0.41437753998852705,-0.43226125690355666,0.03516396201816451,0.06355924470237569,0.12762042788277153,0.02449917854053912,5.0
0.42558598676177106,-0.4405501149491942,0.08241644500626469,0.058067544730623845,0.15431195358504607,0.07779105060685315,5.0
0.45173902923267634,-0.4695611090406094,0.0953034845394833,0.11481515079785358,0.08936256497139025,0.13735255421240736,5.0
0.4928364058027999,-0.5110054174054294,0.08241644500626469,0.12396798904566429,0.12228211840164534,0.07361129624735972,5.0
0.48910025687838565,-0.5441608314513471,0.1081905240727019,0.10627249482038308,0.17032687117674647,-0.037152202244761796,5.0
0.4704197738547525,-0.531727553451207,0.15114733191602792,0.1007807948486312,0.21036415973015823,-0.03401739045791451,5.0
0.43679443353501507,-0.5483052695424822,0.1554430023611701,0.1270189301667103,0.2139230327175757,-0.003714167368814333,5.0
0.42558598676177106,-0.531727553451207,0.1339646125384031,0.12884950674707601,0.15253251709133736,-0.027747754139347006,5.0
0.4442667313838442,-0.5110054174054294,0.1081905240727019,0.15752840091586096,0.06622990683069405,0.005690280736600446,5.0
0.4704197738547525,-0.5027165593597916,0.11248620391710809,0.13922272442023964,0.09292143795880771,-0.013118615474229123,5.0
0.4704197738547525,-0.48199440517738185,0.09959916438388948,0.09956041542327827,0.13740731774649134,-0.015208491060866717,5.0
0.42932213568618594,-0.46127225099497193,0.1554430023611701,0.08552605947405587,0.11249522853792554,-0.022523063579643877,5.0
0.4106413910641092,-0.46127225099497193,0.17262572173879484,0.04098224021801909,0.008398261139838627,0.015094730435124338,5.0
0.4330582846106002,-0.49442770131415414,0.1339646125384031,0.027558077702641313,-0.05388197510705873,0.03808338120458597,5.0
0.47415592277916735,-0.4902832632230194,0.10389484422829569,0.012913535761910592,-0.014734396661742614,0.018229545408189853,5.0
0.5003087036516297,-0.4778499852228792,0.11248620391710809,-0.020646877736297163,0.08669341565666626,-0.004759103569024023,5.0
0.46294747600591973,-0.4902832632230194,0.12966892329473287,-0.01759593126607192,0.13384845561075212,0.004645344536390762,5.0
0.4442667313838442,-0.5027165593597916,0.15114733191602792,0.0013199368028099698,0.06978877981811152,0.022409301360792402,5.0
0.42558598676177106,-0.5027165593597916,0.1425559722272155,0.02084599458436835,-0.011175526387244707,0.028678932900032553,5.0
0.43679443353501507,-0.5027165593597916,0.12966892329473287,0.03427016082091428,-0.09213983801844002,0.06838660250143838,5.0
0.4554751781570906,-0.5110054174054294,0.11248620391710809,0.04586375791943082,-0.07790435149460928,0.04435301334124204,5.0
0.4666836249303352,-0.4902832632230194,0.07812076516185851,0.06783057269111098,-0.07968378256247889,0.08719549871226795,5.0
0.4442667313838442,-0.4654166890861067,0.0738250853174523,0.06294905498969924,-0.09480898190732492,0.12690316672056468,5.0
0.45921132708150547,-0.4778499852228792,0.08241644500626469,0.023286753435074206,-0.10459588262272296,0.11018414928259092,5.0
0.4704197738547525,-0.4695611090406094,0.10389484422829569,-0.018206120513602368,-0.12416967320184079,0.09555501061747305,5.0
0.47415592277916735,-0.45712783104046917,0.0910078046950771,-0.05847861596721805,-0.11260333599273398,0.08510562312563036,5.0
0.4666836249303352,-0.4778499852228792,0.0738250853174523,-0.08776769984867946,-0.12239023670813204,0.08719549871226795,5.0
0.45921132708150547,-0.4902832632230194,0.09959916438388948,-0.0767842924628394,-0.11260333599273398,0.10182464056360406,5.0
0.45921132708150547,-0.4902832632230194,0.030868282173758324,-0.048105396433470365,-0.13573599955926932,0.08197080496634658,5.0
0.45921132708150547,-0.5027165593597916,0.022276922484945907,-0.07007221306573458,-0.10192672788215985,0.047487829110862106,5.0
0.45173902923267634,-0.5192942754510667,0.07812076516185851,-0.08410656529378885,-0.04053621225592145,0.04957770629060883,5.0
0.45173902923267634,-0.5151498373599319,0.0867121248506709,-0.07922505131354526,-0.021852139923657993,0.05166758347035554,5.0
0.45173902923267634,-0.5068609793142943,0.0910078046950771,-0.07129258876991935,-0.017403551402305727,0.07152142066072213,5.0
0.45921132708150547,-0.4654166890861067,0.06952940547304609,-0.048105396433470365,-0.09658841840103363,0.037038442515143294,5.0
0.45921132708150547,-0.4778499852228792,0.04375532640660892,-0.06274994023478517,-0.13484628131241494,0.04330807475136868,5.0
0.47415592277916735,-0.4902832632230194,0.0523466860954213,-0.06336012994746161,-0.09391926366047053,0.03285868765780326,5.0
0.4442667313838442,-0.49857212126865685,0.0738250853174523,-0.06213975052210868,-0.043205361570645466,0.04017325858347132,5.0
0.4330582846106002,-0.49442770131415414,0.0910078046950771,-0.055427667403835715,-0.07256604743932221,0.08092586876613693,5.0
0.44800288030826146,-0.4861388432685166,0.039459641862570706,-0.05664804682918865,-0.1286182535844344,0.06629672691480078,5.0
0.44800288030826146,-0.4861388432685166,0.039459641862570706,-0.0493257758588233,-0.12150051846127766,0.06420684814194494,5.0
0.4778920717035816,-0.4902832632230194,0.06093804578423372,-0.06274994023478517,-0.10993419210384914,0.07883598999328108,5.0
0.45921132708150547,-0.5068609793142943,0.08241644500626469,-0.0786148616008688,-0.051212820366495625,0.08092586876613693,5.0
0.45921132708150547,-0.5068609793142943,0.08241644500626469,-0.0639703196601381,-0.0396464940090671,0.06734166311501046,5.0
0.4554751781570906,-0.4695611090406094,0.030868282173758324,-0.07983524102622172,-0.0698968926987591,0.04957770629060883,5.0
0.45921132708150547,-0.4737055471317443,0.0738250853174523,-0.05359710012639039,-0.11260333599273398,0.028678932900032553,5.0
0.45921132708150547,-0.4737055471317443,0.0738250853174523,-0.060309181384079286,-0.09125011977158567,0.010914974482521794,5.0
0.4704197738547525,-0.4695611090406094,0.06093804578423372,-0.0493257758588233,-0.06366887039661767,0.0004655869906790928,5.0
0.45921132708150547,-0.48199440517738185,0.030868282173758324,-0.0493257758588233,-0.009396092606455532,0.02449917854053912,5.0
0.45921132708150547,-0.48199440517738185,0.030868282173758324,-0.05847861596721805,-0.03341846899400609,-0.021478124193215976,5.0
0.45173902923267634,-0.44883897299483166,0.039459641862570706,-0.0450544497306721,-0.06633801971134162,-0.015208491060866717,5.0
0.45921132708150547,-0.4737055471317443,0.005094203107321122,-0.027358960156851103,-0.08947068327787694,0.005690280736600446,5.0
0.45921132708150547,-0.4737055471317443,0.005094203107321122,-0.02003668848876672,-0.08146321905618763,0.03181374906792991,5.0
0.47415592277916735,-0.4902832632230194,0.009389882951727314,-0.01088384907809099,-0.05477169335391311,0.019274484794617772,5.0
0.45921132708150547,-0.46127225099497193,0.013685562796133532,-0.024308013570339355,-0.08591181029045947,-0.00580404295545192,5.0
0.46294747600591973,-0.4695611090406094,0.009389882951727314,-0.02125706698382761,-0.08057350080933326,-0.03819714163118969,5.0
0.46294747600591973,-0.4861388432685166,0.030868282173758324,-0.004171766890110061,-0.1001472913884511,-0.01834330603393224,5.0
0.46294747600591973,-0.4902832632230194,0.013685562796133532,0.014133911466095371,-0.09925757314159675,0.016139668228443142,5.0
0.45921132708150547,-0.46127225099497193,0.0007985209130989366,0.02206637400972127,-0.07078661094561346,0.019274484794617772,5.0
0.4704197738547525,-0.46127225099497193,0.0007985209130989366,0.01474410117877185,-0.03341846899400609,0.006735220123028362,5.0
0.45173902923267634,-0.44883897299483166,0.0007985209130989366,-0.007222713592908313,-0.08591181029045947,-0.025657881738927628,5.0
0.45173902923267634,-0.45298339294933443,-0.0034971589313072876,-0.0261385814292172,-0.1054856008695773,0.010914974482521794,5.0
0.4554751781570906,-0.4695611090406094,0.005094203107321122,-0.0346812320575085,-0.051212820366495625,0.052712522856783454,5.0
0.4704197738547525,-0.48199440517738185,0.0007985209130989366,-0.035901610552569393,-0.04498479806435417,0.019274484794617772,5.0
0.4666836249303352,-0.4902832632230194,0.022276922484945907,-0.025528392181686753,-0.036977339268503995,0.017184607614871058,5.0
0.45921132708150547,-0.4737055471317443,0.0523466860954213,-0.02186725634764456,-0.029859598719508187,-0.019388245420360144,5.0
0.4554751781570906,-0.46127225099497193,0.017981242640539713,-0.02247744565331826,-0.08057350080933326,0.0004655869906790928,5.0
0.4442667313838442,-0.4654166890861067,0.030868282173758324,-0.025528392181686753,-0.11527249073329711,0.027633994310159192,5.0
0.45921132708150547,-0.4654166890861067,0.022276922484945907,-0.029189527899442444,-0.09747813664788803,-0.027747754139347006,5.0
0.4554751781570906,-0.4695611090406094,0.0007985209130989366,-0.002951387464757121,-0.08769124678416818,0.02972387148990591,5.0
0.4554751781570906,-0.4737055471317443,0.0007985209130989366,0.012303346049234132,-0.09125011977158567,0.034948565136257936,5.0
0.46294747600591973,-0.4902832632230194,0.0265726023293521,0.01474410117877185,-0.1232799549549864,0.03285868765780326,5.0
0.45921132708150547,-0.46127225099497193,-0.007792838775713474,-0.009663470583030099,-0.11972108196756896,0.04330807475136868,5.0
0.46294747600591973,-0.4695611090406094,-0.01638419846452587,-0.027358960156851103,-0.0930295562652944,-0.024612942352499723,5.0
0.46294747600591973,-0.4695611090406094,-0.012088518620119672,-0.03651179933495382,-0.07078661094561346,-0.07685987343927674,5.0
0.47415592277916735,-0.4654166890861067,-0.0034971589313072876,-0.043834072165903265,-0.04676423455806291,-0.04028702040404553,5.0
0.4816279590295565,-0.4695611090406094,0.009389882951727314,-0.06824164392770518,-0.08146321905618763,-0.04446677794975718,5.0
0.4778920717035816,-0.4695611090406094,-0.007792838775713474,-0.07129258876991935,-0.008506374359601164,-0.004759103569024023,5.0
0.4442667313838442,-0.44469453490369687,-0.04215828017450606,-0.06152956080943222,-0.07345576568617657,-0.11029790831522417,5.0
0.45173902923267634,-0.4405501149491942,-0.01638419846452587,-0.0786148616008688,-0.09480898190732492,-0.0758149340528488,5.0
0.4704197738547525,-0.4902832632230194,-0.01638419846452587,-0.05237672256162155,-0.04142592507693672,-0.08521938853070006,5.0
0.4666836249303352,-0.48199440517738185,0.013685562796133532,-0.07007221306573458,0.018185155412052713,-0.09671370903653422,5.0
0.4554751781570906,-0.42811681881242175,-0.059341001608219854,-0.06702126450235227,-0.024521291951301538,-0.11343272647450794,5.0
0.46294747600591973,-0.43226125690355666,-0.11518484193531643,-0.11766698088515368,-0.0254110101981559,-0.13746631961747707,5.0
0.45921132708150547,-0.45712783104046917,-0.11518484193531643,-0.13414208824274562,-0.07434547850719181,-0.14791570073688332,5.0
0.45173902923267634,-0.46127225099497193,-0.09800212255769164,-0.12987076025401037,-0.11794164547386021,-0.15627521582830664,5.0
0.45173902923267634,-0.48199440517738185,-0.09800212255769164,-0.10363262493593127,-0.1713246968784093,-0.14478089532247246,5.0
0.4816279590295565,-0.5192942754510667,-0.1452546055457918,-0.1262096294202879,-0.05388197510705873,-0.13746631961747707,5.0
0.47415592277916735,-0.5192942754510667,-0.14955028539019802,-0.10424281464860777,-0.06010999740920018,-0.15836509460116246,5.0
0.45921132708150547,-0.5275831153600723,-0.13666324585697945,-0.07007221306573458,-0.12150051846127766,-0.19389300824996575,5.0
0.46294747600591973,-0.5400164296334765,-0.13236756601257324,-0.02186725634764456,-0.1873396253217879,-0.19180312947710987,5.0
0.46294747600591973,-0.5441608314513471,-0.10659348224650404,0.05989811386865324,-0.15708922663209587,-0.17403917265270827,5.0
0.45173902923267634,-0.5151498373599319,-0.11518484193531643,0.15935896261155402,-0.21047227803664498,-0.1008934665822459,5.0
0.4666836249303352,-0.49442770131415414,-0.13666324585697945,0.22770016577730032,-0.21314144362888632,-0.03297245107148659,5.0
0.4778920717035816,-0.4778499852228792,-0.14955028539019802,0.2594300010671313,-0.15797894487895026,-0.024612942352499723,5.0
0.45173902923267634,-0.4239723988579191,-0.14095892570138563,0.2679726719292745,-0.15708922663209587,-0.00580404295545192,5.0
0.45173902923267634,-0.3991058247210066,-0.10659348224650404,0.28566816615455565,-0.1544200718915328,0.05062264567703673,5.0
0.44800288030826146,-0.38252810862973147,-0.11948052647935466,0.2862783484248958,-0.08769124678416818,0.16870071668793543,5.0
0.46294747600591973,-0.34522823835604655,-0.09370644271328545,0.24539566000258153,-0.019182985183094897,0.1781051711657867,5.0
0.4554751781570906,-0.34522823835604655,-0.09800212255769164,0.1947499510621164,0.0012805195734979754,0.1666108379150796,5.0
0.45921132708150547,-0.34108380933322774,-0.07222804114143845,0.14715518324269738,0.01462628479843986,0.2512508644913762,5.0
0.45921132708150547,-0.31207280617349636,-0.11518484193531643,0.07027133154181685,0.07156821631182025,0.3034978083230261,5.0
0.45921132708150547,-0.3037839481278589,-0.13236756601257324,-0.07312315790794875,0.08758313390352061,0.33589091655741854,5.0
0.45173902923267634,-0.3327949512875903,-0.14955028539019802,-0.19027951203963528,0.07957567510767044,0.22512740532042413,5.0
0.45921132708150547,-0.36180595444732155,-0.14955028539019802,-0.22322972675481914,0.016405719935688814,0.09868982240432034,5.0
0.4853641079539708,-0.3991058247210066,-0.128071886168167,-0.2549595769293228,0.03775894463471077,0.014049791048696424,5.0
0.5414063418201926,-0.4654166890861067,-0.128071886168167,-0.23604370327868868,0.14096619073390879,0.006735220123028362,5.0
0.5451424907446105,-0.4695611090406094,-0.09800212255769164,-0.18539799433822354,0.2601883598506463,-0.07163517650713716,5.0
0.5115171504248761,-0.48199440517738185,-0.08511508302447304,-0.12254849114422912,0.2575191942584049,-0.09148901210439463,5.0
0.45921132708150547,-0.45298339294933443,-0.06793236129703226,-0.06946202335305812,0.2824313051703273,-0.0496914685094603,5.0
0.41437753998852705,-0.40325024467550924,-0.06793236129703226,-0.034071042344832034,0.12495127314220844,0.04539795193111539,5.0
0.4181136889129419,-0.4239723988579191,-0.09800212255769164,-0.02247744565331826,0.05110470748584803,0.057937216602704796,5.0
0.45173902923267634,-0.42811681881242175,-0.11948052647935466,-0.0261385814292172,0.08580369740981189,0.12063353677443361,5.0
0.46294747600591973,-0.45298339294933443,-0.11948052647935466,-0.038952556325075605,0.14007647248705446,0.07047648127429423,5.0
0.4704197738547525,-0.45298339294933443,-0.11088916209091024,-0.05603785711651218,0.15876054481931792,0.04644289052098875,5.0
0.4778920717035816,-0.46127225099497193,-0.08511508302447304,-0.0767842924628394,0.2041361428538559,-0.030882572298630742,5.0
0.4816279590295565,-0.4405501149491942,-0.04215828017450606,-0.11644660145980078,0.23616597803725664,-0.07894975221213257,5.0
0.45921132708150547,-0.41568354081228154,-0.024975559328246265,-0.12865038827099376,0.18100349013899886,-0.035062329844342426,5.0
0.44053058245942933,-0.40325024467550924,0.009389882951727314,-0.16831268238328248,0.03597950814100204,0.005690280736600446,5.0
0.4666836249303352,-0.42811681881242175,0.009389882951727314,-0.12743000884564082,-0.028969880472653805,0.08615056251205826,5.0
0.46294747600591973,-0.4737055471317443,-0.046453960312639264,-0.10729375576965375,0.012846849406854694,0.13944243298526318,5.0
0.44800288030826146,-0.5110054174054294,-0.024975559328246265,-0.06213975052210868,0.024413179070653938,0.15825133556852916,5.0
0.44800288030826146,-0.5192942754510667,-0.02067987948384007,0.017795049742154175,-0.0076166561127467974,0.14257725114454692,5.0
0.44800288030826146,-0.5192942754510667,-0.02067987948384007,0.045253568206754344,-0.026300728445010284,0.13212786365270424,5.0
0.4554751781570906,-0.5068609793142943,-0.02067987948384007,0.06722038297843451,-0.0254110101981559,0.12167847616086154,5.0
0.47415592277916735,-0.45712783104046917,-0.046453960312639264,0.048304516770136675,-0.00672693922235221,0.1383974935988353,5.0
0.4778920717035816,-0.44883897299483166,-0.046453960312639264,0.032439591682884884,0.009287978708463105,0.11854365800157779,5.0
0.45921132708150547,-0.45298339294933443,-0.06363668145262606,0.035490540246267216,0.010177696446645054,0.13421774242556006,5.0
0.4704197738547525,-0.4695611090406094,-0.04215828017450606,0.05196564760385918,0.008398261139838627,0.1446671235449663,5.0
0.46294747600591973,-0.4737055471317443,-0.01638419846452587,0.050135078465829784,-0.012954962880953439,0.1248132943201453,5.0
0.46294747600591973,-0.44883897299483166,-0.02927123976010647,0.017795049742154175,0.026192614207902896,0.10077970117717616,5.0
0.46294747600591973,-0.44469453490369687,-0.02927123976010647,0.013523721753418911,0.03597950814100204,0.08824043809869585,5.0
0.4704197738547525,-0.46127225099497193,-0.02927123976010647,-0.012104227573151886,-0.0004989155637509765,0.07465623563378766,5.0
0.4816279590295565,-0.45712783104046917,-0.02927123976010647,-0.004171766890110061,0.1000391785078035,0.022409301360792402,5.0
0.4666836249303352,-0.45298339294933443,-0.01638419846452587,-0.007222713592908313,0.0955905926993708,0.03285868765780326,5.0
0.45173902923267634,-0.46127225099497193,-0.012088518620119672,0.022676563722397746,0.08224482442239439,0.052712522856783454,5.0
0.45173902923267634,-0.45298339294933443,-0.01638419846452587,0.028168267415317777,0.06356075751597007,0.052712522856783454,5.0
0.46294747600591973,-0.4737055471317443,-0.06363668145262606,0.045253568206754344,0.05911216628169823,0.028678932900032553,5.0
0.45921132708150547,-0.4737055471317443,-0.06363668145262606,0.05501659616724151,0.07512708387339857,0.023454239154111205,5.0
0.47415592277916735,-0.4737055471317443,-0.06793236129703226,0.04586375791943082,0.09114200146509895,0.026589055720285835,5.0
0.45921132708150547,-0.4737055471317443,-0.046453960312639264,0.045253568206754344,0.07067849806496589,0.05584733942295808,5.0
0.44800288030826146,-0.4778499852228792,-0.055045320588905655,0.06722038297843451,0.05288414397955677,0.030768810478056546,5.0
0.4442667313838442,-0.4861388432685166,-0.046453960312639264,0.07576303151356872,0.05110470748584803,0.03181374906792991,5.0
0.45921132708150547,-0.4737055471317443,-0.04215828017450606,0.09834003599792535,0.01907487298067719,0.05375746224321138,5.0
0.45921132708150547,-0.46127225099497193,-0.04215828017450606,0.06600000355308158,0.053773862226411145,0.05062264567703673,5.0
0.4554751781570906,-0.4695611090406094,-0.05074964074449947,0.07027133154181685,0.036869226387856405,0.03912831999359797,5.0
0.45921132708150547,-0.4737055471317443,-0.024975559328246265,0.06600000355308158,0.0030599553889768183,0.057937216602704796,5.0
0.4554751781570906,-0.4695611090406094,0.022276922484945907,0.06844076240378742,-0.005837220975497845,0.057937216602704796,5.0
0.4816279590295565,-0.4654166890861067,0.009389882951727314,0.06538981384040508,-0.028080162225799447,0.05584733942295808,5.0
0.47415592277916735,-0.45298339294933443,-0.046453960312639264,0.05684716530527091,-0.0022783507009999336,0.05584733942295808,5.0
0.4778920717035816,-0.46127225099497193,-0.02067987948384007,0.0513554578911827,-0.012065244634099073,0.07570117502021556,5.0
0.4666836249303352,-0.46127225099497193,-0.02067987948384007,0.0586777344433003,-0.04231564332379108,0.06316190875551703,5.0
0.4666836249303352,-0.45712783104046917,-0.02067987948384007,0.03976186079266616,-0.051212820366495625,0.05062264567703673,5.0
0.45921132708150547,-0.4695611090406094,-0.024975559328246265,0.044643378494077894,-0.020072703429949247,0.04644289052098875,5.0
0.4554751781570906,-0.48199440517738185,-0.024975559328246265,0.053796216741888565,0.005729108094850253,0.01195991386894971,5.0
0.45921132708150547,-0.4778499852228792,-0.03356691989823967,0.08064454921498046,0.013736567060257908,0.048532768497290026,5.0
0.4778920717035816,-0.4654166890861067,-0.02067987948384007,0.0745426520882158,0.005729108094850253,0.04644289052098875,5.0
0.4778920717035816,-0.46127225099497193,-0.059341001608219854,0.06905095211646392,0.03242063786650413,-0.013118615474229123,5.0
0.4704197738547525,-0.45298339294933443,-0.03356691989823967,0.053186027029212116,0.006618825663474728,-0.009983797314945347,5.0
0.4666836249303352,-0.48199440517738185,-0.02067987948384007,0.05501659616724151,0.05021499195191325,0.013004853255377626,5.0
0.46294747600591973,-0.48199440517738185,-0.02067987948384007,0.05196564760385918,0.0626710392691157,0.03808338120458597,5.0
0.45921132708150547,-0.48199440517738185,-0.02067987948384007,0.05684716530527091,0.05911216628169823,0.005690280736600446,5.0
0.4666836249303352,-0.4778499852228792,-0.02067987948384007,0.04647394763210729,0.0448766851837066,-0.04237689917690138,5.0
0.44053058245942933,-0.4654166890861067,-0.03356691989823967,0.050135078465829784,0.07957567510767044,-0.04133195979047344,5.0
0.4330582846106002,-0.4654166890861067,-0.02927123976010647,0.04098224021801909,0.060891602775406964,-0.025657881738927628,5.0
0.45921132708150547,-0.45712783104046917,-0.0034971589313072876,0.037931295375804926,0.04665611896449577,-0.0016242885959584894,5.0
0.4704197738547525,-0.4695611090406094,-0.0034971589313072876,0.04281280935604849,0.06178132102226131,-0.01207367608780119,5.0
0.47415592277916735,-0.45298339294933443,-0.02927123976010647,0.03182940197020842,0.05199442573270241,-0.036107262858333856,5.0
0.4704197738547525,-0.44883897299483166,-0.0034971589313072876,0.016574670316801245,0.0048393905262257755,-0.022523063579643877,5.0
0.4554751781570906,-0.46127225099497193,-0.012088518620119672,0.006811640495730018,0.05110470748584803,0.010914974482521794,5.0
0.45173902923267634,-0.4695611090406094,-0.007792838775713474,0.011693156336557672,0.03420007300375308,0.0004655869906790928,5.0
0.4554751781570906,-0.4695611090406094,0.0007985209130989366,0.035490540246267216,-0.0022783507009999336,-0.007893921728307765,5.0
0.4704197738547525,-0.45298339294933443,-0.046453960312639264,0.03610072623777552,0.010177696446645054,0.005690280736600446,5.0
0.4704197738547525,-0.45298339294933443,-0.04215828017450606,0.035490540246267216,0.0448766851837066,0.01195991386894971,5.0
0.45173902923267634,-0.46127225099497193,-0.02927123976010647,0.054406406454565036,0.05555329600720032,0.013004853255377626,5.0
0.45921132708150547,-0.45712783104046917,-0.02067987948384007,0.06538981384040508,-0.022741855457592806,0.01195991386894971,5.0
0.4666836249303352,-0.45298339294933443,-0.01638419846452587,0.08003435950230399,-0.05210253861335001,0.008825098895884193,5.0
0.4928364058027999,-0.45298339294933443,-0.02927123976010647,0.08003435950230399,-0.0004989155637509765,0.02449917854053912,5.0
0.48910025687838565,-0.45298339294933443,-0.024975559328246265,0.044033188781401424,0.03597950814100204,0.034948565136257936,5.0
0.4554751781570906,-0.45712783104046917,-0.024975559328246265,0.011693156336557672,0.03242063786650413,0.026589055720285835,5.0
0.45173902923267634,-0.44883897299483166,-0.007792838775713474,0.0092523974858518,0.011067414100048268,0.004645344536390762,5.0
0.4554751781570906,-0.44883897299483166,-0.007792838775713474,0.009862587198528259,0.0048393905262257755,0.015094730435124338,5.0
0.4704197738547525,-0.4654166890861067,-0.02927123976010647,0.019625615159015414,0.05911216628169823,-0.013118615474229123,5.0
0.46294747600591973,-0.46127225099497193,-0.046453960312639264,0.022676563722397746,0.0849139791629575,-0.0016242885959584894,5.0
