acc_x,acc_y,acc_z,gyro_x,gyro_y,gyro_z,activity
-0.017942276466950787,0.7644925237464161,1.537696969153991,0.10799460420206197,-0.014228199095914131,0.2485506389273689,0.0
-0.02825630575649927,0.7481939487144122,1.5120983485177695,-0.01150154669992045,0.1089183653093205,0.21396346296212543,0.0
-0.0660742927898749,0.7123370151719466,1.5846276242896076,-0.11855018292670501,0.4147025920664674,-0.08118031236497501,0.0
-0.0660742927898749,0.7123370151719466,1.5846276242896076,-0.15091372047494175,0.4182720456080856,-0.05889081167277784,0.0
-0.0660742927898749,0.7123370151719466,1.5846276242896076,-0.21713450449831642,0.39150107148605245,0.058705538799209554,0.0
-0.0660742927898749,0.7123370151719466,1.5846276242896076,-0.21713450449831642,0.39150107148605245,0.058705538799209554,0.0
-0.11420630911279873,0.7579730709095953,1.6272919920166429,-0.29978601384427417,0.30940334978924644,1.079411119356168,0.0
0.009561801638511929,0.7481939487144122,1.6614233368341491,0.004929174068079556,0.025630834646337596,0.0771520282725828,0.0
-0.07982633184260611,0.7025578359167154,1.6486241758801603,-0.07971393301059895,-0.06122616248299515,0.13633450322428708,0.0
-0.05919827326350915,0.6829995344663014,1.618759118471236,-0.07772232920510071,0.023251190864520297,0.01412653038395639,0.0
-0.07295031231624037,0.6732204122711184,1.5974269346077183,-0.099132057968652,0.07500844419610755,-0.05735360343545687,0.0
-0.05919827326350915,0.699298166558353,1.593160497835015,-0.11655857912120675,0.18744661895252893,-0.03736991041200194,0.0
-0.0523222537371434,0.7155967415903568,1.6016933713804218,-0.13846620276335514,0.1814975055298663,0.03411022457922114,0.0
-0.0523222537371434,0.7155967415903568,1.6016933713804218,-0.08419503550019256,0.07500844419610755,0.04717648639378075,0.0
-0.07638832207942366,0.6960384401399426,1.6614233368341491,-0.05382310023925971,0.008378417398224427,0.07177179944195936,0.0
-0.10389227982325025,0.6829995344663014,1.6272919920166429,-0.03689447889943373,-0.0998953779623331,-0.03506409805602048,0.0
-0.08670235136897186,0.6862592608847116,1.6102262449258284,-0.019965858318704927,0.10653871994025546,-0.10577563478763213,0.0
-0.0660742927898749,0.7123370151719466,1.631558428789346,-0.10759636806924208,0.12617078697905243,-0.11346166659975851,0.0
-0.07638832207942366,0.7221161944271776,1.6102262449258284,-0.16883814257887106,0.1951804591460006,-0.1534290620211469,0.0
-0.06951230255305763,0.7090772887535362,1.5974269346077183,-0.052827298336510585,0.01194788273082586,-0.1641895009334367,0.0
-0.06951230255305763,0.7058175623351257,1.546229842699398,0.03878641447043998,-0.0731243820723307,-0.12037910366770294,0.0
-0.03857033504604775,0.7155967415903568,1.5291640956085837,0.01887038856101239,0.048832361462368856,-0.146511615578724,0.0
-0.04888424397396094,0.7221161944271776,1.4907663140183738,-0.07622862635097703,0.1452079354195934,-0.19416505218671726,0.0
-0.04888424397396094,0.7221161944271776,1.4907663140183738,0.0034354712139558676,0.08988121686877955,-0.1265279272425083,0.0
-0.04888424397396094,0.7221161944271776,1.4907663140183738,-0.020463758510982307,0.07381862151157503,-0.09732098948236677,0.0
-0.04888424397396094,0.7644925237464161,1.6528904632887422,-0.05432100119063428,0.057161114812104244,-0.07272567643418815,0.0
-0.0454463545724135,0.7351550430407708,1.631558428789346,-0.04685249147459893,0.00897332874049069,-0.07887450938347206,0.0
-0.0454463545724135,0.7351550430407708,1.631558428789346,-0.04685249147459893,0.00897332874049069,-0.07887450938347206,0.0
-0.035132325282865015,0.7579730709095953,1.6742226471522599,-0.08768034215981449,0.1945855405477446,0.010283512134273571,0.0
0.012999691040058816,0.754713344491185,1.7510183596968014,-0.12303128541629862,0.06727460037464099,-0.12960234371715026,0.0
0.17458590918638095,0.7905702780336507,1.8320805090140464,-0.14195151549575452,-0.15522209651314692,-0.1872476057442943,0.0
0.3533619354253456,0.8525049658633512,1.883277600922367,0.0014438674084576106,-0.25040783871585176,-0.32482767736317236,0.0
0.4736920364134738,1.0122312180051698,1.8235476354686397,0.07363945677554953,-1.388472474592292,0.511413078768643,0.0
0.4736920364134738,1.0122312180051698,1.8235476354686397,0.12094001679224568,-1.5461238859649855,0.5890420103830457,0.0
0.4840060657030209,1.0350492458739944,1.631558428789346,0.15678886100010436,-1.4015605386341294,1.2423550800184493,0.0
0.4840060657030209,1.0350492458739944,1.631558428789346,0.08459327770578991,-1.0999406549928976,1.4521838825445421,0.0
-0.007628247177402302,0.7742717030016469,1.4097041647011288,0.09903238707731984,-0.772144759363827,1.776534539384913,0.0
-0.007628247177402302,0.7742717030016469,1.4097041647011288,0.100526096004221,-0.5901020192381656,1.7742287176544531,0.0
-0.5233286284001063,0.4711177737500133,1.2646456131574528,0.09007018209813264,-0.6109238654255567,1.6335743420546753,0.0
-0.7296087327445334,0.3635470301826639,1.1537185557954046,0.3430036832130866,-0.7465635643903881,1.402993218950271,0.0
-0.7296087327445334,0.3635470301826639,1.1537185557954046,0.37387353005275464,-0.6252017376399469,0.7850359200242925,0.0
-0.8327489052783829,0.24619712875760166,1.0342585502058887,0.4231656817293942,-0.278368650034397,0.16554144098442863,0.0
-0.9840209737735205,0.2038207744745922,0.9958606939336181,0.3654092199521646,0.03931378633509965,-0.5538715359833849,0.0
-0.9840209737735205,0.2038207744745922,0.9958606939336181,0.1552951642187581,0.6568313414810729,-1.3509134351911223,0.0
-0.9840209737735205,0.2038207744745922,0.9958606939336181,0.21554113682563802,0.9138328671963454,-1.6783386209998774,0.0
-0.550832706505569,0.23641797089988859,1.2774449234755632,0.2902262188040478,1.2737539898197736,-2.367776018590975,0.0
-0.38580859895770003,0.2950929180461668,1.4225034750192393,0.07314156189695242,1.4968456053058175,-2.9580636817389183,0.0
-0.031694315519682284,0.5330524330496897,1.631558428789346,0.026836797710227945,1.4427087239515157,-2.8274011503072476,0.0
0.5287001926243987,0.8101285794840647,1.9430075663760942,0.25288368996039773,0.7210817374218705,-2.30936221806652,0.0
0.7177902481529113,0.907920200856231,2.011270405375229,0.4704662538916452,-0.24683838517423354,-1.7306036635708766,0.0
1.0650285120645635,1.1686977437285782,2.0667340834203745,0.4679767552075499,-0.6317457696608655,-1.2994170998580472,0.0
1.3228787628567331,1.4653322772034392,2.0582012098749676,0.21305163814154263,-0.8227121581525518,-0.28639747143014793,0.0
1.3813246881075707,1.6739543115013171,1.9856719341031295,-0.058304205765242055,-0.6799335521044841,0.7358453314258493,0.0
1.219738710684521,1.6217988029268475,1.8320805090140464,-0.26493295939360967,-0.692426683036086,1.6366487210314034,0.0
0.8793764662992337,1.4164363809272842,1.691288394243074,-0.2629413555881114,-0.7804734746196162,2.3614420018256683,0.0
0.25365989301631464,1.0643867265796394,1.4651676933821527,-0.14693051286394526,-0.9095691996114468,2.7042392325097193,0.0
0.05425580819825303,0.9242187758882346,1.3969048543830183,-0.029923870134772948,-0.9482384005788053,2.7503553671356062,0.0
-0.3032964850029477,0.7058175623351257,1.2774449234755632,0.08260167390029166,-0.8667355829682759,2.3783511611934993,0.0
-0.5955267130653101,0.5134941315992756,1.1579849925681083,0.05023813027927746,-0.7507279220182824,1.7934438487444009,0.0
-0.7949307978833716,0.3505081530390466,1.0641235329327523,0.04874442742515378,-0.5978358594316372,1.1578086832126666,0.0
-0.9393269672137793,0.25597628661531463,1.0342585502058887,0.12193581869499481,-0.3985406686122849,0.5398513842866886,0.0
-1.0355909998596273,0.23967769018579294,0.9830613836155075,0.1722237722743834,-0.07966839958126984,-0.13113955195447125,0.0
-1.0630950177842722,0.27879432874915105,1.0470577858419385,0.08260167390029166,0.25467154983668866,-0.5431110970710948,0.0
-1.0149630014613482,0.29835264446457704,1.1537185557954046,-0.07324122367911837,0.7383341590916023,-1.1280184095201937,0.0
-0.8911949508908554,0.2885734794743581,1.3457077624746978,-0.23655262338359184,1.241628762825416,-2.083392738423035,0.0
-0.6127167618812244,0.3765859073262813,1.4907663140183738,-0.39040392626667,1.3385993188708065,-2.554546828799952,0.0
-0.1485864067446272,0.5721690930105656,1.6528904632887422,-0.2893300999381858,0.9596410332948578,-2.5468606563706486,0.0
0.45993999736074204,0.9111799272746413,1.7638176700149117,-0.05780630481386748,0.4735987641588994,-2.0457311834810636,0.0
1.0306484144327357,1.1589185644733473,1.7894162906511326,0.05969824228261669,-0.18615745728703378,-1.2533008152405039,0.0
1.4053907564498505,1.2893073929695686,1.772350543560319,-0.15240741725628795,-0.14689333772141924,-1.1049603422072503,0.0
1.4879027500429682,1.4620725507850287,1.742485486151394,-0.35405716288910427,-0.003519802191111119,-0.7813781676173193,0.0
1.3160027433303687,1.5272668509130436,1.7040877045611844,-0.38193961616607985,-0.174259244953688,0.299278473261047,0.0
0.9722024891818981,1.4522933715297979,1.5419634059266945,-0.40882623110364136,-0.3800984387699999,1.2454295339910053,0.0
0.5080721340453012,1.2208532523030475,1.3926384176103146,-0.34160966946862764,-0.6495930663929151,1.9095030425386992,0.0
0.5080721340453012,1.2208532523030475,1.3926384176103146,-0.10759636806924208,-0.7090841715955826,2.1262492352603437,0.0
-0.4442545242085368,0.7155967415903568,1.1750505902948007,0.030820005321224447,-0.6989707150570048,1.8787589527881077,0.0
-0.6195926610459542,0.5949871208793901,1.1281199351591835,-0.022455360798286195,-0.710868912878371,1.3245957300896003,0.0
-0.9805829640103376,0.3179109601800031,0.9915942571609143,-0.010505746315365695,-0.5722546644581981,0.7527545657895092,0.0
-1.0562189982579064,0.21034021661265387,0.8977327975255589,0.04675282361965552,-0.2843177779690392,0.0487136922874821,0.0
-1.0321529900964446,0.15818470179724167,0.914798544616373,0.08061007009479342,0.15532142098213014,-0.47086232866596595,0.0
-0.6780387066584266,0.2201193744703669,1.12385349838648,0.031317906272599,0.6145926579481374,-0.9504709612288844,0.0
-0.2826684264238505,0.3537678651924449,1.3841055440649077,-0.041873484997242034,0.6479076931150483,-1.2725159463304516,0.0
-0.0523222537371434,0.4645983494432163,1.4779670037002632,0.10550509337241169,0.43076517653968743,-1.5261551367477997,0.0
0.4186841209258195,0.7416744958775915,1.5974269346077183,0.14234973948301954,0.2618104859438838,-1.4231621660983371,0.0
0.4186841209258195,0.7416744958775915,1.5974269346077183,0.06119194513674039,0.1047539931694464,-0.932024537376861,0.0
0.9068803036814256,1.2045546202109958,1.7638176700149117,-0.17630665077671204,0.08333719573184552,-0.32098462864643434,0.0
0.9068803036814256,1.2045546202109958,1.7638176700149117,-0.4227674577421292,0.06905933440143978,0.18783094167662584,0.0
0.800302241746028,1.1817366494022197,1.6016933713804218,-0.5118916855287337,-0.06420071919432647,0.5967280703186075,0.0
0.6799721407579007,1.1067630558988777,1.5419634059266945,-0.4581184070713906,-0.14391878826607765,0.8257719289388199,0.0
0.2570979027794977,0.8199077587392958,1.43530278533735,-0.3535592680105072,-0.3283411737608042,0.766589496172269,0.0
0.10238770415954129,0.7253759208455878,1.4011712911557217,-0.2863426820843834,-0.5847477953897999,0.5175618742200127,0.0
-0.12795834816553023,0.5656496401737452,1.3201091418384767,-0.2460127353869311,-0.845913678732967,0.2170378794367674,0.0
-0.29642046547658196,0.4548191701879855,1.1409192454772943,-0.06129160995529507,-0.9357452696472034,-0.20338828286168614,0.0
-0.30673449476613046,0.42874141590075066,1.0939884409775553,0.20857053565194905,-1.0755492681920116,-0.29331491787257075,0.0
-0.32048653381886166,0.5037149808740684,1.0555906593873456,0.3415099985772954,-1.1302811407044668,-0.34711714993193393,0.0
-0.2551644686800236,0.5884676680425694,1.0043934927969642,0.207574721603645,-0.719197686182078,-0.7014434142724565,0.0
-0.07638832207942366,0.7710119765832365,0.9915942571609143,-0.11456697531570852,-0.08740224703073128,-1.072678987972467,0.0
0.07832187654053273,0.9307382287250551,1.0342585502058887,-0.2624434607095143,0.18447205498520786,-1.0626871438043588,0.0
0.18489993847592942,1.0513478209059979,1.0555906593873456,-0.2350589266022458,0.1862567962679964,-0.7675433122303874,0.0
0.24334586372676617,1.100243660122105,1.0726564064781596,-0.06129160995529507,0.060135667895440705,-0.2272150011656827,0.0
0.2364698442004007,1.0448284251292252,1.115320624841073,0.14782665602091716,-0.1980556841323589,0.1378717114616081,0.0
0.25022188325313166,0.9665951622675211,1.0683899697054562,0.2324697570268182,-0.1915116666234198,0.22088090940454833,0.0
0.26053591254268044,0.9046604744378205,1.0854557167962702,0.03729271161631629,0.060135667895440705,0.0487136922874821,0.0
0.2330318344372177,0.8655438144769445,1.0939884409775553,-0.24551484050833403,0.3462878384977752,-0.27486841902471887,0.0
0.2330318344372177,0.8655438144769445,1.0939884409775553,-0.2370505304077439,0.15948579312200425,-0.21030572930410904,0.0
0.14364382131773523,0.9665951622675211,1.1195870616137766,-0.07274332272774382,-0.12250199445647164,0.18783094167662584,0.0
0.14364382131773523,0.9665951622675211,1.1195870616137766,0.15878046480560265,-0.37771879340093484,0.5436944330034262,0.0
0.18833794823911218,0.9633354358491105,1.0342585502058887,0.004431273116704998,-0.2093589923794282,0.3277167975280496,0.0
0.17458590918638095,1.0350492458739944,1.0427913490692349,-0.47903023488356744,0.05180691635970274,-0.10654423890629262,0.0
0.13332979202818673,1.0643867265796394,0.9659956365246934,-0.9311240315294621,0.21243286630375302,-0.3440427334572919,0.0
0.12301576273863826,1.1067630558988777,0.8593349412532879,-0.8519577498970193,0.16900437459826448,-0.1887848139816153,0.0
0.16083387013364944,1.0969839337036948,0.8252035217537209,-0.6423416497699846,-0.04456865941151924,0.14863215974837643,0.0
0.1539578506072837,1.0285297930371737,0.7569406827545863,-0.5427615080772917,-0.09394626453967045,0.29312964031176325,0.0
0.15051984084410097,1.0122312180051698,0.7185428264823153,-0.5557069206674755,-0.028506060426319844,0.1371031073429476,0.0
0.15051984084410097,1.0122312180051698,0.7185428264823153,-0.8081425147582775,0.23682422408068005,-0.26026495014464834,0.0
0.1573958603704667,1.2078143466294062,0.8124042861176711,-0.8375186769621541,0.29691021885764457,-0.09270937414488235,0.0
0.1642718798968322,1.2860476665511584,0.8593349412532879,-0.6717177633916417,0.139853733339197,0.26392270255162165,0.0
0.1642718798968322,1.2860476665511584,0.8593349412532879,-0.598526366049023,0.20231938074121628,0.43532129914469003,0.0
0.17458590918638095,1.3056060250616206,0.8124042861176711,-0.6916338014466241,0.07203388748477624,0.4637596421606497,0.0
0.1402058115545525,1.4131767686289696,0.7569406827545863,-0.7683104872305322,0.08631174881518196,0.4122631943338324,0.0
0.1402058115545525,1.4131767686289696,0.7569406827545863,-0.6752030518329312,-0.06360580785206021,0.5867362261504997,0.0
0.10926372368590703,1.4881502480122157,0.7185428264823153,-0.48948614878965585,0.007783506055958163,0.9034009355490508,0.0
0.15051984084410097,1.5435654830050953,0.6673457345739952,-0.4377044741378111,0.06786951171690726,1.034063541976549,0.0
0.13332979202818673,1.530526577331454,0.6801450448921058,-0.49994206269574404,0.3766282951853855,0.9264590028619943,0.0
0.13332979202818673,1.4359947394377461,0.6417471886198348,-0.5616817077928604,0.9096685095684506,0.5567606936461761,0.0
0.10926372368590703,1.3349434487072176,0.8337363952991277,-0.6074885710282102,1.171429326021853,0.2877494208556182,0.0
0.07144585701416725,1.2664893080406965,0.9830613836155075,-0.5059168498211292,1.1125330958815032,0.16784725334041015,0.0
0.10926372368590703,1.2208532523030475,1.051324222614642,-0.1942310728806414,0.9905763940687445,0.34770048586426544,0.0
0.12301576273863826,1.178476922983809,1.051324222614642,0.15330356041325982,0.9019346693749789,0.28160058790633447,0.0
0.20208998729184338,0.9796340108811143,1.0043934927969642,0.17570908500678287,1.4236715609989952,0.1371031073429476,0.0
0.3292958670830659,0.7058175623351257,0.9702620732973969,0.28773672011995244,1.997165601536372,-0.04736175926734904,0.0
0.3567999451885281,0.526533008742893,0.9361306537978298,0.33702889608770176,2.6123035666402012,-0.4262833460305288,0.0
0.22615581491085196,0.2820540409025494,1.1025213145229626,0.9788227790967585,2.9519976600906372,-1.0957370552854102,0.0
0.21584178562130346,0.32769011090521016,1.2475798660666386,1.4792129376620986,2.637884819661558,-1.5584364909825832,0.0
0.21584178562130346,0.32769011090521016,1.2475798660666386,1.39755720592778,2.490941855985596,-1.5430644461072875,0.0
0.3808660135308078,0.718856468008767,1.8107483251505287,1.1461174015941722,2.3606563228212125,-1.1111091751565343,0.0
0.3361718866094308,0.7807911558384677,1.8320805090140464,1.181966221510921,2.0019250664182557,-0.782915432101511,0.0
-0.014504266703768049,0.8296869379945266,1.8747447273769602,1.206861305516314,1.7467082239378535,-0.807510688902819,0.0
-0.14171038721826146,0.8166480323208853,1.8918104744677737,0.9180788751746167,1.9341051298639627,-1.4769644731535285,0.0
-0.14171038721826146,0.8166480323208853,1.8918104744677737,0.36640503400046864,2.36957991313932,-2.3623958178837867,0.0
-0.7949307978833716,0.6471426009238356,1.6742226471522599,-0.1852688679014542,2.7872075157784626,-3.135610905042741,0.0
-1.042467019385993,0.5460913101933071,1.5291640956085837,-0.5143811842128291,2.5629259179761115,-3.4999292385388565,0.0
-1.0699710373106377,0.4417802930443681,1.418237038246536,-0.5372845915393941,2.0596314303381345,-3.4591933046201593,0.0
-1.0699710373106377,0.4417802930443681,1.418237038246536,-0.4128094387146379,1.7943011313191544,-2.6875150319704257,0.0
-0.8430628142062955,0.6797398080478911,1.3371748889292907,-0.3570445807429066,2.1607662279155835,-0.5792354625247025,0.0
-0.6780387066584266,0.6960384401399426,1.3585070727928081,-0.2843510782788853,2.390996808532782,1.3676374857387594,0.0
-0.6780387066584266,0.6960384401399426,1.3585070727928081,-0.04585668957184981,2.627771247027145,1.922569265683535,0.0
-0.7536748010868134,0.3113915216081945,1.546229842699398,0.12442531737909014,2.8823930983493935,1.3484223546488117,0.0
-0.7777408694290933,0.26249572518712333,1.7040877045611844,-0.25846025309851783,2.442753957446142,1.771154338677725,0.0
-0.7777408694290933,0.26249572518712333,1.7040877045611844,-0.20219748810263433,2.712843489155332,1.8633867579211558,0.0
-0.647096739151417,0.8557646922817612,2.5189754851422173,-0.2161387025955673,2.665845572932186,2.227704941425614,0.0
-0.6883527359479751,0.7318953166223605,2.638435416049672,0.17073007549303712,2.035835034695401,2.182357364045995,0.0
-0.664286787967331,0.7025578359167154,2.634168979276969,1.0111863105722179,1.1660751021734874,2.4375336689558793,0.0
-0.643658729388234,0.7351550430407708,2.7578953469571266,1.8192790506126046,-0.05349232228952347,2.545906840312529,0.0
-0.458006563261268,0.917699323051414,2.6597675999131902,2.259423273007729,0.291556024033238,2.455211535561635,0.0
-0.458006563261268,1.025270066618763,2.723763852775499,1.984084125843702,1.1547717794144388,2.3283919403529607,0.0
-0.458006563261268,1.025270066618763,2.723763852775499,2.145403912633512,1.1892766227539024,2.0071156624893174,0.0
-0.5817746740125787,1.110022782317288,3.0053480823174445,2.004996050820318,0.6205417568588207,1.6658556962894588,0.0
-0.623030670809137,1.2208532523030475,3.1162751396794923,1.600202777754455,0.8067489126602947,1.1293703401967072,0.0
-0.7124188042902551,1.2632295816222858,3.0053480823174445,0.8877069232135458,2.167310317984421,0.6989523337301459,0.0
-0.7124188042902551,1.2632295816222858,3.0053480823174445,0.6641495721569135,2.9585417501594753,0.9287648245924542,0.0
-0.8361869150415656,1.4588128243666185,3.5642501046286292,0.15878046480560265,2.6670353230568207,2.2930362071414496,0.0
-0.8980708500555852,1.292567119387979,3.7007757826269,-0.3829354059232741,2.488562123544654,3.0470364631937694,0.0
-0.8980708500555852,1.292567119387979,3.7007757826269,0.06965624916455303,2.091161666174339,3.096995684034308,0.0
-1.1593591106109382,1.1589185644733473,3.8586336444886884,0.8304484048971331,1.5218318671690212,2.6565856834079833,0.0
-1.2900031807077967,1.0024520387499387,3.2997316221774997,1.4901666735734544,0.42184152817366277,2.740363522967499,0.0
-1.2900031807077967,1.0024520387499387,3.2997316221774997,1.5568854132032006,-0.17842361709356194,4.585012207819424,0.0
-1.4687793273083967,0.23967769018579294,2.540307370277491,0.699002650898688,-1.8185931501151191,5.6825782518020596,0.0
-1.279689211599066,0.555870489448538,1.989938370875833,0.17869647856947524,-1.1142185852552058,4.313695000804664,0.0
-1.1249790731599276,0.7514536751328225,1.6656897736068526,-0.39289342495076524,1.555146844288014,2.581262573524041,0.0
-1.1593591106109382,0.5852079701541831,1.537696969153991,-0.7683104872305322,1.8537921204259866,2.1485387453270195,0.0
-1.2831271611814306,0.4645983494432163,1.3670399463382155,-1.0730256994339957,1.312423190787132,1.7442531851501295,0.0
-1.1524830910845723,0.5428316123049208,1.4992991875637809,-2.145503656398173,-0.19924550681689146,2.2692095825822376,0.0
-1.7300674975925225,0.3407289880488275,0.4028272147818336,-6.09186379136977,-4.146479744925113,5.558832735586802,0.0
-1.7885135582501996,0.18100273947326181,0.43695859694037037,-5.407748406439983,-5.167346650463378,6.334353794467874,0.0
-1.1421690617950238,0.0929903116213386,2.779227530820645,-3.046703637507282,-4.69141827322538,6.764772250909405,0.0
-1.0115249916981655,0.43852056662595784,2.915753208818912,-2.1201107018052934,-1.9607768811008686,5.306730959645304,0.0
-0.6367827098618685,0.5037149808740684,2.604303921868044,-1.9045197173884345,0.5765183900910145,3.6719110023236454,0.0
-0.3548665110890546,0.3765859073262813,2.216058922372633,-1.8178849882859245,0.4563463715131265,2.5474439548050665,0.0
-0.42706459575425837,0.21685965518446254,2.216058922372633,-1.270692176728041,-1.0428291661353362,2.2015723451442866,0.0
-0.47175860231399946,0.07017227305375522,2.280055473963185,-1.7616223083089257,-1.4479635797949595,2.3737396677242364,0.0
-0.623030670809137,0.008237606621572729,2.18619401432783,-2.522912298192329,-1.312323938878046,2.5136254860777454,0.0
-0.5405186772160205,0.01801675734677976,3.180271691270046,-1.9020301701221194,-1.5544526012207747,2.4359965544633426,0.0
-0.3995605176487957,-0.1351900562232304,3.4490566104938787,-1.3662891593919568,-1.5728948891109775,3.0055316720454908,0.0
0.1917759580022949,-0.4513828626184814,2.67683304827576,-1.5505123535083312,-1.0642460615287985,2.5090138426168256,0.0
-0.17952837425163706,-0.8392895075686398,2.429380312915443,-1.4081128150163102,-1.0458037736385957,2.625841593657393,0.0
-0.3308004427467746,-0.5785119076362447,2.9456182662278407,-1.244303480960186,-2.8317264476515818,2.286887449187993,0.0
-0.6402207196250512,-0.6534854440795383,2.9114867720462088,-1.2477887694014758,-2.284408419102046,3.1815420808400923,0.0
-0.664286787967331,-0.7773548197389394,2.9114867720462088,-0.5442552170041929,-1.632385994313645,3.523570454294564,0.0
-0.6161546512827712,-0.9012241953983404,2.5573731173683054,-0.12352918636767317,-1.489012397107424,3.5473972288454294,0.0
-0.5989647228284929,-0.9142629869518859,2.258723290099668,-0.3361327529307298,-1.0315259594721236,2.8448936081094973,0.0
-0.4339406152806239,-0.982717127618407,1.6528904632887422,-0.6836673862246311,-0.12785618928087827,2.0662981702516965,0.0
-0.5542707162687518,-0.9696782219447657,1.780883417105726,-0.31173561238615377,-0.8643559666231697,1.71965800334465,0.0
-0.5130145991105578,-1.0609504475401592,1.9344746928306875,0.15828256992700554,-0.9446689180132284,0.7389197104025772,0.0
-0.4029985274119784,-1.0413920890296973,1.5974269346077183,0.5078087827352951,-0.7495381138457294,0.38382485131787286,0.0
-0.382370589194517,-0.9305616190439372,1.5718284633356188,0.7159312710998681,-0.72693152637555,0.3915109112534346,0.0
-0.5714606447230302,-0.6600048969163592,1.631558428789346,0.9469571182087865,-0.5246618151248149,0.6320838410280329,0.0
-0.6299066903355027,-0.44160368336325023,1.6486241758801603,0.8379169495316389,-0.18080326246262704,0.4214864437577583,0.0
-0.458006563261268,-0.5524341533490099,1.4779670037002632,0.43411951480518934,-0.06241598516752768,0.19782278584473367,0.0
-0.42706459575425837,-0.5524341533490099,1.5248976588358805,0.06119194513674039,-0.15284245114408188,0.38382485131787286,0.0
-0.39612250788561265,-0.5459147005121892,1.5846276242896076,-0.14643261798534812,-0.235535062415185,0.9510543346591299,0.0
-0.5233286284001063,-0.5491744269305995,1.7766169803330225,-0.023949062893312698,-0.09692082125100178,2.039397016724101,0.0
-0.643658729388234,-0.4709411640688954,1.780883417105726,-0.035400776994181524,0.2011295580566838,3.655001842955813,0.0
-0.6780387066584266,-0.46116198481366444,1.908876221558588,0.10152189790697014,0.4551565343166144,4.237603333674451,0.0
-0.4992626804194622,-0.4904994655193095,2.164861830464312,-0.6184424041040056,-0.4651707099221475,4.110015031227853,0.0
-0.4029985274119784,-0.5850313604730654,2.19899332464594,-0.17979195136355652,-0.6644658717175409,4.351356705738289,0.0
-0.3308004427467746,-0.7643159140652981,2.228858232690743,0.6163511294071753,-0.8417493211050722,5.188365944120544,0.0
-0.3789325794313343,-0.8360297811502295,2.2075261981913474,1.229764712842879,-0.44315899751428556,6.05688782949966,0.0
-0.40987454693834413,-0.774095093320529,2.2373911062361502,1.5255176229027156,0.1535366942113211,6.696366456225186,0.0
-0.4167505664647099,-0.8295103283134087,2.3995152555065187,2.0298909404968324,-0.0778836728104608,7.263595902068529,0.0
-0.5302046479264718,-0.9761976747815861,2.578705301231823,2.7090274252228688,-0.2825330366862506,7.5595078409138,0.0
-0.7536748010868134,-0.9240421662071168,2.868822404319175,2.985860184149357,-0.9440739849029929,7.923826174409912,0.0
-0.9186989086346824,-0.6926021040404146,2.9584172778177074,2.2878034511255323,-2.058342196112742,6.77553265232378,0.0
-1.0630950177842722,-0.5589536061858303,2.8261580365921404,1.6992850488596611,-1.7138887538762566,5.079224215517627,0.0
-0.9977729526454341,-0.44160368336325023,2.6469682895950792,1.4164774542255683,0.01313770450835967,2.684255544173503,0.0
-0.8430628142062955,-0.6730437455299524,2.0539347731022644,1.4105026185179637,-2.4420598304747383,2.0678354347358887,0.0
-0.6092787521180414,-0.6371868690475347,1.9472740031487976,1.5673412785270693,-3.4617372180800383,2.867182968184516,0.0
-0.5233286284001063,-0.5654730019626031,1.9814054973304263,1.893466237712416,-2.145794170681872,2.5412951968516095,0.0
-0.5233286284001063,-0.5654730019626031,1.9814054973304263,1.7505688286329084,-1.8709452901866321,2.5389893751211496,0.0
-0.5748986544862131,-0.5687327283810136,1.802215451605122,1.1311804094896,-2.872180273805895,2.822604248034478,0.0
-0.6539727586777825,-0.5980702090866589,1.5334305323812871,1.1555775257430663,-3.4349662149340463,2.5412951968516095,0.0
-0.7777408694290933,-0.6860826512035938,1.3030433947476627,1.439878732139621,-3.677689868434928,2.0701411064746926,0.0
-0.7777408694290933,-0.6860826512035938,1.3030433947476627,1.2939939052063103,-3.0994362469198324,2.0785958361502646,0.0
-0.7021047750007066,-0.7382381597780635,1.3585070727928081,0.7980848734216738,-2.714529094624872,1.993280882098214,0.0
-0.664286787967331,-0.6534854440795383,1.4139706014738322,0.6048994257438928,-1.6359554768792222,1.5636314328779204,0.0
-0.6780387066584266,-0.6111091147603002,1.563295589790212,0.7607422959958042,-1.3355254594584611,1.213148179756222,0.0
-0.6539727586777825,-0.6828229247851835,1.5888940610623108,0.835925272852811,-2.7395152403922394,0.9610461788272376,0.0
-0.5164526088737409,-0.8523282991221853,1.5803613368810256,0.8125239949387587,-3.8853138035340287,1.1685691596228707,0.0
-0.38580859895770003,-0.9012241953983404,1.5504962794721011,0.7632317946798994,-3.7377757326040766,1.0478983973634806,0.0
-0.382370589194517,-0.8881852897246991,1.507832061109188,0.6945215241179845,-2.4866780142569445,1.005625198960589,0.0
-0.49238666089309646,-0.8751463840510577,1.5206312220631766,0.6342755393655497,-1.6395249594447991,0.7466057328402249,0.0
-0.547394696742386,-0.9664184955263552,1.4992991875637809,0.3843294439588429,-1.82513712408812,-0.14574302083454202,0.0
-0.4408166348069896,-1.0837684183489356,1.4822334404729667,0.1662489730034436,-2.7401101154545557,-0.9051233838492653,0.0
-0.31704852405567896,-1.1945988883346952,1.4779670037002632,0.27080809991877214,-2.546764110617765,-1.1533823735594253,0.0
-0.20703245235709977,-1.1978586147531054,1.5291640956085837,0.4336215956354824,-2.522372839912714,-0.38554733711600137,0.0
-0.05919827326350915,-1.403220922632573,1.4822334404729667,0.3086485479321292,-1.485442914541847,-0.3563403993558597,0.0
0.11957775297545552,-1.3738834989869757,1.7083541413338876,0.5909582233965148,0.06370513594903827,-1.1933497502318569,0.0
0.07832187654053273,-1.308689084738865,1.7680841067876156,0.5142814890303872,0.6294654632727633,-1.6814129999766052,0.0
0.019875710566424565,-1.223936426100388,1.742485486151394,0.010406078460422295,0.5646201342217302,-2.174087893182273,0.0
-0.031694315519682284,-0.9924963068736379,1.870478290604256,-0.22609670947750363,0.6020995270165356,-2.3823795062200026,0.0
0.17458590918638095,-0.8555880255405955,1.9771390605577228,-0.3829354059232741,0.20469902611028137,-2.361627260637519,0.0
0.27428795159541136,-0.6763034719483629,2.2075261981913474,-0.2246030126961574,0.20350920342574882,-2.611423364840214,0.0
0.1677098896600152,-0.5524341533490099,2.4165810025973324,-0.20468698678672972,0.22076162509548075,-3.097180942846158,0.0
0.06456983748780151,-0.49701891835613,2.365384060053134,-0.46160369551268027,-0.006494355274447571,-3.557574331825388,0.0
0.04394177890870454,-0.428564834749657,2.258723290099668,-1.2512740578427652,-0.32001242948105596,-3.3223817152517197,0.0
0.019875710566424565,-0.34381211905113207,2.233124669463446,-1.779048750515374,0.1779280374762687,-2.4899839703387285,0.0
0.019875710566424565,-0.34381211905113207,2.233124669463446,-2.411880355671914,0.3022644136820513,-1.632222336382334,0.0
-0.2689165077327551,-0.017840147665662016,2.011270405375229,-3.0023906289454927,0.7454730661748387,-1.834365191466607,0.0
-0.2689165077327551,-0.017840147665662016,2.011270405375229,-2.6598348715642324,1.8537921204259866,-2.6337130248985465,0.0
-0.43737862504380687,-0.027619312655881058,1.742485486151394,-2.0036019884936396,2.975794287925042,-3.2831828958255556,0.0
-0.2792304166606677,-0.0960734247923781,1.5718284633356188,-2.3078191843629567,2.6569219826140786,-2.9265507347587465,0.0
-0.2792304166606677,-0.0960734247923781,1.5718284633356188,-2.7011606566010977,0.09107103955331206,-1.9404323911011412,0.0
-0.02825630575649927,-0.30469545909025614,1.8150147619232322,-1.3070389643967162,0.20945831684841146,-1.500022540466472,0.0
0.0026857821121461815,-0.3764093261751875,1.7595512332422083,-0.3943871338776664,0.9578562920120693,-0.9596942481507246,0.0
-0.11764431887598174,-0.2883968840582523,1.7638176700149117,0.016878787791902876,-0.16831013153102528,-1.5384528026463675,0.0
-0.11764431887598174,-0.2883968840582523,1.7638176700149117,0.4943654995576242,0.7728390024310662,-1.7467442656924401,0.0
-0.14171038721826146,-0.2786177048030212,1.9344746928306875,0.7766751264397902,2.0608211804627694,-1.1733660618956412,0.0
-0.27235451749593786,-0.38292872195196026,2.314186818780692,0.6756013244024158,0.010163149611025785,-0.5231274087348792,0.0
-0.2826684264238505,-0.2199427719217551,2.0539347731022644,0.04824652647377922,-0.5811783128242229,-0.47777979385734576,0.0
-0.32048653381886166,-0.2199427719217551,1.8747447273769602,0.34250578833448947,-1.1011305212133684,-0.06888265584088571,0.0
-0.37549456966815153,-0.37966899553354977,1.6571569000614457,0.7801604148810797,-1.1249269168561011,-0.08502333295827745,0.0
-0.37549456966815153,-0.37966899553354977,1.6571569000614457,1.1779830624821441,0.001834396261290394,0.22626112886069327,0.0
0.24334586372676617,-0.8458089604054605,1.4566348198367456,1.0744196645962352,-1.364081087791406,0.6912663112924982,0.0
0.401494072109905,-0.5980702090866589,1.5760949001083222,0.9255474198091225,-1.889982453139153,0.26930292200776657,0.0
0.401494072109905,-0.5980702090866589,1.5760949001083222,0.23545715058951053,-0.010658734670311403,-0.784452621589875,0.0
0.2674119320690459,-0.38944817478878085,1.1451856822499977,-0.8011719378756984,5.4589525616667895,-1.1495393623406016,0.0
-0.09357837089533762,-0.30469545909025614,0.9958606939336181,-1.6939078275042048,8.614955164432242,-0.7759979669101313,0.0
-0.3995605176487957,-0.4644217112320747,1.1281199351591835,-1.0371767823528073,7.939731567350935,-0.5784668677805204,0.0
-0.5542707162687518,-0.5459147005121892,2.988282335226629,1.2322541629447548,-1.2677055229041687,-0.7383364119681599,0.0
-0.5748986544862131,-0.4709411640688954,2.7493624734117197,1.0176590168673096,-3.776444933571437,-0.5838470684877082,0.0
-0.623030670809137,-0.324253789070694,2.18619401432783,0.8030638707898647,-3.688398083939988,0.09713572129603772,0.0
-0.32048653381886166,-0.2688385540778143,1.870478290604256,0.15180985148635878,-1.6228674128373848,0.41149459958965046,0.0
-0.26204048820638937,-0.3503315148279048,1.772350543560319,0.16126996348969788,0.7085886064902688,0.7481429973244171,0.0
-0.20703245235709977,-0.4676814376504852,1.7894162906511326,0.44806071715256746,1.9144730918491248,0.42840387145122405,0.0
-0.12108232863916447,-0.5198369462249545,1.631558428789346,0.532205947570981,1.4320002762547845,0.02411837740835065,0.0
-0.11076829934961599,-0.49701891835613,1.6016933713804218,0.4530397145207581,0.3302252250005965,-0.29869511857975867,0.0
-0.14514839698144447,-0.3601106940831359,1.84914625610486,0.29371153153644713,-1.5526678599379862,-0.30023234556603645,0.0
-0.275792406897485,-0.2525399505157866,1.9515404399215017,0.0024396693112067364,-2.624697387614799,-0.13113955195447125,0.0
-0.22766039057456092,-0.23298164906537253,1.8448798193321574,-0.12402708731904773,-1.2730597467525342,-0.19723946866135922,0.0
-0.13139635792871296,-0.22972192264696228,1.8192811986959356,-0.26443506451501253,-0.3979457645260083,0.05716833290550821,0.0
-0.02825630575649927,-0.2557996769341969,1.6614233368341491,-0.5666607537432707,0.09464050760690966,0.16938446157773113,0.0
-0.0523222537371434,-0.3014357612018697,1.6528904632887422,-0.7483944491755496,-0.2045997016412982,0.31618774512262077,0.0
-0.06263628302669189,-0.40900647623919495,1.7296861758332838,-0.6393542319161822,-1.1314710069249376,0.3753702341360428,0.0
-0.07638832207942366,-0.4220453819128363,1.6614233368341491,-0.4860008603483662,-0.9399096272750981,0.44070153734979184,0.0
-0.1485864067446272,-0.41226620265760544,1.6656897736068526,-0.4098220451519454,-0.3485681448858777,0.3407830581707994,0.0
-0.12452033840234722,-0.41552592907601565,1.6102262449258284,-0.4899840193771431,-0.3128734933738609,0.3377086416961574,0.0
-0.05919827326350915,-0.428564834749657,1.5888940610623108,-0.4302359780855251,-0.07133964804553192,0.33694004695197566,0.0
0.019875710566424565,-0.4579022583952541,1.5974269346077183,-0.40783044134644736,-0.4467284510559036,0.22318671238605128,0.0
-0.0523222537371434,-0.47746061690571606,1.6486241758801603,-0.3689942035758961,-0.4027050552641386,0.3215679645787658,0.0
-0.05919827326350915,-0.48398006974253677,1.6528904632887422,-0.313727216191652,-0.262306065561177,0.43608989388887204,0.0
0.019875710566424565,-0.4904994655193095,1.5888940610623108,-0.329660046635638,0.24872243641402586,0.38228766182950885,0.0
-0.004190237414219566,-0.4904994655193095,1.559029153017508,-0.4133073578843449,-0.2795584872309089,0.4076515883708265,0.0
-0.07982633184260611,-0.5133174933881338,1.546229842699398,-0.3829354059232741,-0.1730694222691554,0.4852805574831433,0.0
-0.14171038721826146,-0.5165772198065441,1.5846276242896076,-0.29231749350087827,0.6794379869991704,0.39535392247225865,0.0
-0.11076829934961599,-0.5459147005121892,1.6102262449258284,-0.2330673227967475,0.975108713681801,0.31618774512262077,0.0
0.037065759382338796,-0.5328758518985958,1.5419634059266945,-0.3231873403405462,0.47419369726913485,0.20012860757519366,0.0
0.04737978867188728,-0.6143688411787104,1.563295589790212,-0.27090777081010436,-0.25933151610583544,-0.11423027071841901,0.0
0.04737978867188728,-0.6143688411787104,1.563295589790212,0.025343100928881694,-0.7019452645123463,-0.4631763062283181,0.0
0.006123791875328918,-0.6860826512035938,1.559029153017508,0.26682489230777573,-0.8447238705604139,-0.7329562112609719,0.0
0.11957775297545552,-0.6763034719483629,1.243313429293935,0.24392146069010065,-0.3783136974872114,-1.0457778344448712,0.0
0.11957775297545552,-0.6763034719483629,1.243313429293935,0.028330500564351633,0.13152498180345906,-1.109571910672342,0.0
-0.014504266703768049,-0.6143688411787104,1.3115762682930696,-0.045358789379572426,0.781762650797091,-0.9397105598145088,0.0
-0.32048653381886166,-0.5263563990617752,1.4737005669275598,0.14832455089951424,0.5051290580430217,-0.4946890657189196,0.0
-0.4236265859910754,-0.5035383711929509,1.780883417105726,0.3803462363478465,-1.4259519254350155,-0.6853027371550647,0.0
0.06800784725098424,-0.6111091147603002,1.4737005669275598,0.09007018209813264,-2.9887829839619595,-0.39784500301456915,0.0
0.10926372368590703,-0.5589536061858303,1.6614233368341491,-0.03639657832760776,-1.5717050228905067,-0.933561726865225,0.0
0.2674119320690459,-0.3764093261751875,1.4225034750192393,-0.0827013356824576,-1.6228674128373848,-2.077243830477923,0.0
0.6937241798106311,-0.4904994655193095,1.418237038246536,-0.3938892147079594,1.058991089589519,-2.607580278625562,0.0
0.49775810475575405,-0.43182450410801954,1.12385349838648,-1.3468710405066813,0.33855399830430366,-2.6098862503476785,0.0
0.4358741697417332,-0.3112149119270766,0.74840788389124,-2.388976948345348,-1.2629462902139565,-1.9880857902112203,0.0
-0.4511305437349025,-0.16126781051046504,1.8747447273769602,-1.683451767851458,-2.3718601614795043,-0.5454168813036407,0.0
-0.08326434160578913,-0.28513715763984204,1.2561127396120455,-1.8109144114033462,-2.3778093764860233,-0.3378939380059219,0.0
0.3533619354253456,-0.5426549740937789,1.0001270560242606,-1.821868147314702,-3.6318817023364143,-0.7352619579956039,0.0
0.4118081013994535,-0.6437063218843556,-0.13047625223993536,-4.1336206188241045,-12.49010588547315,-0.5600203689326686,0.0
0.012999691040058816,-0.4513828626184814,2.228858232690743,-0.46259948526987443,-4.3261426945619155,-0.6430295387521735,0.0
0.3224200882799713,-0.3764093261751875,1.0854557167962702,-0.4750470272725708,-2.729401667757826,-0.3909275753211031,0.0
0.3464859158989796,-0.22972192264696228,0.8038714125722644,-0.8315438898367692,-2.1142639348456673,0.08637526832203016,0.0
0.17458590918638095,-0.4546425890368916,0.5777507117113431,-0.7239973329220833,-2.4777544239388374,-0.07426288467150913,0.0
0.22271780514766892,-0.4644217112320747,0.5052215106215657,-0.6592702699711648,-3.242215085159571,-0.2848602631928269,0.0
0.6215262155070637,-0.3275135154891044,0.6289478783017242,-0.8380165961318611,-4.061407502796926,-1.306334415057771,0.0
0.8071782612723934,-0.4546425890368916,0.5009550738488623,-0.3630193921594013,-2.8989512769518857,-2.5676129019531317,0.0
0.8518723881937713,-0.6078493883418896,0.4454914704857773,0.2503941669851926,-0.916708106694683,-3.6989975646547464,0.0
0.6490302936125261,-0.523096672643365,0.3345643757826991,0.6716181167914193,0.139853733339197,-3.9687773571936575,0.0
0.26397392230586286,-0.2362413469537589,0.07431227409272584,0.37387353005275464,-1.2076195426391836,-3.7912298339065207,0.0
0.24334586372676617,-0.4546425890368916,-0.343797642782746,-0.21315129688731982,-2.6586073558919456,-3.341596846341668,0.0
0.37055198424125957,-0.4676814376504852,-0.49738903986605626,-0.48301344249456385,-4.175630480512048,-2.2025263111940614,0.0
0.3396098963726144,-0.16778726334728558,-0.16034124896968552,-0.3032713022855636,-2.903115634579779,-2.2309645792141928,0.0
0.17458590918638095,0.15492498206555572,0.08284512896761764,-0.1304997936141396,-1.3277916192649895,-1.0680673445115467,0.0
0.1539578506072837,0.13210694483531718,0.010315853195779606,-0.09465094940628091,-0.065390541878859,0.12787986729350026,0.0
0.22271780514766892,0.10276946947905163,-0.06221341324080084,-0.08419503550019256,0.8561265032764664,0.6589849570577144,0.0
0.5733940788225037,0.057133395910137864,-0.0024834197813005275,-0.1862646698042033,1.6901916101426098,0.41072600484546845,0.0
0.5458902414403146,0.0929903116213386,0.061513001115645755,-0.3197020276081467,1.7728842359256924,0.15247518034167887,0.0
0.734980296968826,0.13862638429868912,-0.06647984067824675,-0.7478965785880624,0.7853321333626682,-0.3102241897341445,0.0
0.5183861633348489,0.15818470179724167,-0.045147694155759595,-0.9993363829216702,0.3659199055365722,-0.7337247685072398,0.0
0.20208998729184338,0.034315360908807456,-0.17314053128202325,-1.4618860448914335,-0.9488332756411229,-0.5992191508609179,0.0
-0.021380286230133796,-0.18734556479769968,-0.5016554766387598,-1.9324022192476284,-1.3135136890026813,0.16861585745907062,0.0
-0.021380286230133796,-0.18734556479769968,-0.5016554766387598,-1.9199546772449332,-2.9703406960717555,0.5659839055721881,0.0
0.5252621828612165,-0.16452753692887534,-0.33526478790785413,-1.7870150685729267,-2.7829436740498106,-0.2548847306885033,0.0
0.5252621828612165,-0.16452753692887534,-0.33526478790785413,-1.4798104548498079,-1.878679130380104,-1.0511580351520589,0.0
0.6834101505210828,-0.2786177048030212,-0.32246550559551646,-1.0541054511362073,-0.8590017427748041,-0.9596942481507246,0.0
0.893128264628693,-0.15148865978525813,-0.463257620366489,-0.6692282647075463,-0.8423442542153077,-0.4993006716819256,0.0
0.4908820852293886,0.011497318774971083,-0.4163269092193264,-0.5148790548003164,-0.441374256231497,-0.17648716683200455,0.0
0.08519789606689848,0.027795922336998784,-0.7064439936361633,-0.7981845200218961,-2.3700755362925507,0.0986729295333587,0.0
0.6559063131388921,-0.056956779096514094,-0.42485976409421816,-0.091663549770811,-0.30335491189760067,-0.43166354673771656,0.0
1.0650285120645635,-0.030879024809279364,-0.7491082866811376,0.1144673104971538,0.7187020630288466,-0.5861528902181682,0.0
0.741856316495191,-0.040658189799498375,-0.638181154637029,0.35744280473017154,1.2457932365491462,-0.03583270217468095,0.0
0.19865197752866065,0.05061395733832916,-0.4589911835937855,0.520754195325479,1.677698537258926,0.7542918302737011,0.0
0.17458590918638095,0.08973059233543426,-0.4419254738440019,0.7054753571937796,1.7056592905295531,1.8065100718892366,0.0
0.4908820852293886,0.10276946947905163,-0.7789732694080014,0.28126401382486055,0.48966137765607837,1.9633053495938906,0.0
0.6490302936125261,0.034315360908807456,-0.7789732694080014,0.030322104369849872,0.26062066325935124,1.6235824978865676,0.0
0.5321382023875815,0.08647086948327694,-0.5229876044907317,-0.034404975850529575,0.40399420241765416,2.1170259483385037,0.0
0.44962596807119326,-0.004801270522044635,-0.3565969250950837,0.10152189790697014,1.356446615602856,2.369128024263316,0.0
-0.024818295993316534,-0.24276079979057943,-0.5315204593656235,0.07314156189695242,-1.0547274800525384,3.8594503697788873,0.0
0.33273387684624867,-0.21016359266652407,-0.48458974821846096,0.02285359617200888,-0.3009752665285355,3.1807735235938246,0.0
1.010020355853638,-0.2199427719217551,-0.6168490081145418,-0.5099000574321255,-0.0683650913342006,0.8142428952823481,0.0
0.834682339377856,-0.29165658194663874,-0.48458974821846096,-0.4446750753115,0.7341697434157899,-0.07580009290883012,0.0
0.5183861633348489,-0.39922735404401183,-0.2030055268448662,0.08857647317123149,2.025721462060988,0.6989523337301459,0.0
0.5080721340453012,-0.29165658194663874,-0.36512977996997553,0.18019018749637639,1.8692598008129298,1.3822409733677872,0.0
0.5940221374016011,-0.3209940626522838,-0.343797642782746,0.13936234592032704,1.7806180761191641,0.9710380229953458,0.0
0.6284022350334285,-0.3079551855086664,-0.3096662232831787,-0.023451161941938137,1.6753189209138197,0.2662285055331246,0.0
0.5630800495329554,-0.3764093261751875,-0.3011333684082869,-0.012995249554044151,1.812148428051204,-0.14266860435990003,0.0
0.3430479061357971,-0.3405523926327218,-0.1347426796773813,0.014389286071418797,1.724101578419756,0.2631541078074397,0.0
0.3430479061357971,-0.3405523926327218,-0.1347426796773813,-0.029923870134772948,1.0839773514527224,1.2269830351431539,0.0
0.408370091636271,-0.3209940626522838,-0.05794698580335494,-0.2674224580777051,0.5794929395463562,1.9971238183212097,0.0
0.4530639778343763,-0.3275135154891044,-0.045147694155759595,-0.37297738689578275,0.777003360058961,1.7819148900837571,0.0
0.6318402447966113,-0.428564834749657,-0.06647984067824675,-0.2928153883794754,0.8222165930472379,1.5113663903069212,0.0
0.7556083555479236,-0.48398006974253677,-0.05794698580335494,-0.11307327246158483,0.8222165930472379,0.8626649266345233,0.0
0.7212282579160935,-0.5687327283810136,-0.03234842117867948,0.006920774837189081,0.7311951939604483,0.1194252219882349,0.0
0.6146501959806987,-0.5589536061858303,0.10417727549010469,0.0641793447722103,0.377223199271662,-0.10500703066897164,0.0
0.6421542740861611,-0.5361355783170063,0.027381562945563216,0.1597762667083518,0.6467178849424952,-0.02891526979397583,0.0
0.477130046176656,-0.4644217112320747,0.10417727549010469,0.019866190463761514,0.2237361745508224,0.017969548633639202,0.0
0.3464859158989796,-0.4513828626184814,0.21510440753421356,-0.23555682148084273,-0.38902208713602465,0.06869738765455669,0.0
0.4530639778343763,-0.5002786447745404,0.08711156574032117,-0.052329397385136034,-0.39497121507066674,-0.009700180889181374,0.0
0.5011961145189363,-0.4676814376504852,-0.09634483274036812,0.016878787791902876,0.10772854262478798,0.041796259906776954,0.0
0.45993999736074204,-0.4872397391008992,0.04018085459315854,-0.08718244120843993,0.11724711684505848,-0.015849009151226022,0.0
0.4358741697417332,-0.4937591919377198,0.05298012757023867,-0.09216144464940809,-0.16949995421555783,-0.005857162639498544,0.0
0.44962596807119326,-0.46116198481366444,0.07431227409272584,-0.04834619281052825,-0.39199663659136635,0.042564864025437445,0.0
0.45993999736074204,-0.4676814376504852,0.05298012757023867,-0.05382310023925971,-0.4627910355291236,0.05563112466818724,0.0
0.4702540266502911,-0.4709411640688954,0.014582289968483167,-0.039383981758563585,-0.48718242233000947,0.11327639841342949,0.0
0.4840060657030209,-0.46116198481366444,-0.10487768761525992,-0.06477691357852826,-0.10703429955754881,0.0771520282725828,0.0
0.477130046176656,-0.4481231362000711,-0.33526478790785413,0.2727997037242705,1.4034445318260038,0.08791247655935111,0.0
0.45993999736074204,-0.4448634097816606,-0.2456698047200469,0.1433455413857687,3.0400445097220863,0.29620405678640527,0.0
0.3292958670830659,-0.4676814376504852,0.2577686632381576,0.026836797710227945,2.386832450904888,0.2669971190262636,0.0
0.4908820852293886,-0.591550813309886,0.42415936130432075,-0.313727216191652,0.5348745816203965,0.0625485570488924,0.0
0.41524611116263627,-0.5459147005121892,0.3814950682593464,-0.5377825107091011,-0.7727396344261446,-0.09424658238220332,0.0
0.49432009499257135,-0.523096672643365,0.06577941921783399,0.030322104369849872,0.4081585600455489,-0.032758290387278274,0.0
0.4427499485448278,-0.5100578240297714,0.1724401144892393,-0.08170553377970849,0.2540766312384326,-0.06503964462206176,0.0
0.5287001926243987,-0.523096672643365,0.04018085459315854,-0.14593471096119612,0.4849020869179481,-0.2679509913312531,0.0
0.3774280037676253,-0.4676814376504852,0.3174986660329153,-0.1962226766861396,0.6556415333085199,-0.12345351076786634,0.0
0.20896600681820915,-0.4513828626184814,0.3217650654645884,-0.2405358431401434,0.5015596045014037,0.27698896319437144,0.0
0.16083387013364944,-0.5524341533490099,0.3686957952822662,-0.26792037724741186,0.36175551888471874,1.1224529500011555,0.0
0.3361718866094308,-0.4579022583952541,0.43695859694037037,-0.030421770896373216,-0.4919417130681397,1.204693525076478,0.0
0.5115101438084839,-0.5687327283810136,0.22790368051129362,0.25487529376589607,-0.2884821355969337,0.16016121215380524,0.0
0.45993999736074204,-0.4448634097816606,0.20657153398880668,0.18516920915567706,0.08690666015744823,0.6190175803852831,0.0
0.45993999736074204,-0.4448634097816606,0.20657153398880668,-0.006024640789383369,-0.174259244953688,1.3722491291996795,0.0
0.16083387013364944,-0.5328758518985958,0.2449693902610773,0.22002223931523152,-0.6079493159702151,0.12941707553082124,0.0
0.6318402447966113,-0.6208882369554831,0.16817367771653582,0.1050071984938146,-1.0981559137101091,0.4722142968403935,0.0
0.5252621828612165,-0.6274076897923038,0.07857871086542932,0.29171992773094896,-0.44970300051124523,0.49142935293451306,0.0
0.5252621828612165,-0.6274076897923038,0.07857871086542932,-0.033409174564546916,0.19101607249414704,0.2823691826505164,0.0
0.5596420397697732,-0.6339271426291242,-0.08354555042803037,0.03878641447043998,0.9578562920120693,0.20627744052447755,0.0
0.5390142219139469,-0.5752521812178342,0.2577686632381576,0.10600300039656373,0.06489495863357081,0.6236291863482891,0.0
0.5390142219139469,-0.5752521812178342,0.2577686632381576,0.10600300039656373,-0.07490911609912948,0.39535392247225865,0.0
0.583708108112053,-0.6339271426291242,0.12124298523988838,-0.09415304845490637,-0.3455935954305361,-0.2794800437366819,0.0
0.3774280037676253,-0.5654730019626031,0.21083797076151017,-0.16385913306512545,-0.7221722356374197,-0.918189606994101,0.0
0.3774280037676253,-0.5654730019626031,0.21083797076151017,-0.29032588969538,-0.7400195323694692,-2.7159534499822136,0.0
-0.2414124296272924,-0.5361355783170063,0.22790368051129362,-0.2992880946745672,-0.8423442542153077,-7.103911654190655,0.0
0.25365989301631464,-0.6991215568772353,0.3686957952822662,0.02584100188025627,-0.3057345572666657,-3.967240242701122,0.0
0.8896904955887819,-0.14170948053002705,-0.10914411505270585,-0.08220343473108303,-0.05170758826272468,-3.583707078098372,0.0
0.6937241798106311,-0.2883968840582523,-0.01528271142889585,0.05920034133124211,0.7103733477730572,-1.901233721666634,0.0
0.9412604013132535,-0.14822893336684762,-0.045147694155759595,-0.04137558480496466,0.796635398073799,-0.9735291035376564,0.0
0.6112121862175159,-0.10911230193599551,0.044447272695346866,-0.08768034215981449,1.3534720080995966,-0.3401997222384679,0.0
0.5252621828612165,-0.15800808409205475,0.11697654846718496,0.05621293562299476,1.4980354715262885,-0.009700180889181374,0.0
0.5665180592961387,-0.17104696123567195,0.3260315022372921,-0.14045780656885337,-0.08442769031939995,0.20166581581251464,0.0
0.7452943262583743,-0.16452753692887534,0.3174986660329153,-0.10958797187474033,-0.05646687900085479,0.05178810641850443,0.0
0.6318402447966113,-0.19060529121610997,0.2577686632381576,-0.09315724655215722,0.14758758078865844,0.0402590528412658,0.0
0.5252621828612165,-0.18734556479769968,0.20230509721610296,-0.2499959429979277,0.33736416110779155,0.061011351155191046,0.0
0.5218241730980338,-0.19712471552290683,0.12977582144426497,-0.34907816552091364,0.3569962281465885,-0.04121293100530439,0.0
0.583708108112053,-0.2362413469537589,0.18950582423902299,-0.3480823757637194,0.38852652203071086,0.07407761179794083,0.0
0.5011961145189363,-0.2362413469537589,0.23643651671567043,-0.14643261798534812,0.4456379528403542,0.2170378794367674,0.0
0.504634124282119,-0.2395010733721692,0.19803869778442987,0.053225535987524816,0.2267107385181433,0.06716017941723569,0.0
0.4530639778343763,-0.15800808409205475,0.23217011728399733,-0.3052629060910619,0.17078910136907355,0.2669971190262636,0.0
0.5665180592961387,-0.2883968840582523,0.18523938746631952,-0.001045634312026472,0.3659199055365722,0.29082383733026024,0.0
0.45993999736074204,-0.265578827659404,0.22790368051129362,-0.18427306599870505,-0.27896358314463243,0.500652602358439,0.0
0.5080721340453012,-0.2395010733721692,0.20230509721610296,0.028828401515726184,0.4849020869179481,-0.13037094783581074,0.0
0.5596420397697732,-0.265578827659404,0.1724401144892393,-0.07822023015647527,0.20469902611028137,-0.2379754588269295,0.0
0.477130046176656,-0.3372926662143116,0.2961665195104281,0.06666884952908309,0.21540743027107412,0.07484621591660133,0.0
0.408370091636271,-0.2264621962285517,0.09991083871740125,0.1279106301114896,0.44325830747128936,0.20397161879401757,0.0
0.5115101438084839,-0.15148865978525813,0.4796228899853448,0.12990223391698782,-0.05884651711393008,0.2739145467197295,0.0
0.4908820852293886,-0.2199427719217551,0.4028272147818336,-0.12153758256217494,-0.43364041603802533,0.364609757725839,0.0
0.5562040300065906,-0.24928022409737638,0.30043295628313194,0.12243371357359194,-0.2825330366862506,0.31849356685308083,0.0
0.48056805593983876,-0.265578827659404,0.10417727549010469,-0.08220343473108303,0.054781471257036626,-0.007394370876819531,0.0
0.4736920364134738,-0.24602052620898998,0.21510440753421356,-0.0936551475035318,0.16008071172026025,0.038721845775754625,0.0
0.5183861633348489,-0.2557996769341969,0.2919000827377247,-0.08867614406256362,0.28322727975348977,-0.015080405032565542,0.0
0.638716264322979,-0.265578827659404,0.23643651671567043,0.15927835968419976,0.020871546969328154,0.23625297302880108,0.0
0.638716264322979,-0.19712471552290683,0.5009550738488623,0.3783546568334581,-0.4925365881304573,0.19474836937009174,0.0
0.5458902414403146,-0.19712471552290683,0.08711156574032117,0.23545715058951053,0.13390462717252413,0.05409391877448589,0.0
0.5871461178752363,-0.27535800691463486,0.20657153398880668,0.10102399088281809,0.4628903745100863,-0.0027827485084762175,0.0
0.5493282512034967,-0.28187743122143155,0.20657153398880668,-0.06577271548127739,0.34331328904243374,-0.0404443268866439,0.0
0.45650198759755906,-0.27535800691463486,0.3388308125554025,0.03878641447043998,0.13152498180345906,-0.1219163119050239,0.0
0.477130046176656,-0.16452753692887534,0.39002794180475336,0.1453371451912668,0.04645271790730124,-0.007394370876819531,0.0
0.4908820852293886,-0.17430668765408244,0.3388308125554025,0.1597762667083518,-0.11833760780461806,0.16707864922174961,0.0
0.42899815021536775,-0.19712471552290683,-0.17740696105328355,0.16276367241659906,0.265974858083758,-0.005088558520838069,0.0
0.41524611116263627,-0.21342331908493456,0.3388308125554025,0.09305758780638002,-0.10049028204860962,0.09098689303399307,0.0
0.3774280037676253,0.05061395733832916,0.2876336459650213,0.06517514667495942,-0.28907706870716915,0.09559851305871675,0.0
0.5940221374016011,-0.10585257551758524,0.2791008097606448,-0.19373317800204432,0.1904211684078705,0.14863215974837643,0.0
0.5424522316771319,-0.16778726334728558,0.30043295628313194,-0.22111771210931283,0.5342797065580789,0.2739145467197295,0.0
0.5458902414403146,-0.20364416835972737,0.27483437298794094,-0.2226114088906591,0.9828425538752729,0.3307912140026916,0.0
0.3017920297008746,-0.294916308365049,0.4796228899853448,-0.10361316045824558,0.352831841494735,0.16016121215380524,0.0
0.425560140452185,-0.3209940626522838,0.4582907808038879,-0.07473492653324205,0.15651124366666266,0.1501693679856974,0.0
0.408370091636271,-0.29165658194663874,0.4454914704857773,-0.019467957367330365,-0.07431420475686322,0.3261795892907286,0.0
0.4427499485448278,-0.2688385540778143,0.39002794180475336,-0.08319923663383216,-0.1700948728138138,0.02411837740835065,0.0
0.32585785731988237,-0.17430668765408244,0.4028272147818336,-0.05133359700058127,-0.42471673864804155,-0.5969133291304579,0.0
0.5252621828612165,-0.2362413469537589,0.3729622320549699,0.08857647317123149,-0.2730144552099904,-0.15496627025846788,0.0
0.7212282579160935,-0.2883968840582523,0.35589652230518626,0.2259970507317264,-0.3021651037250476,-0.15650347849578886,0.0
0.6146501959806987,-0.2199427719217551,0.30896579248750844,-0.03689447889943373,-0.3473783367133246,0.33847725518929644,0.0
0.4118081013994535,-0.08303454764876082,0.3260315022372921,-0.29978601384427417,-0.14570351503688672,0.14863215974837643,0.0
0.45993999736074204,-0.15800808409205475,0.2663015367835645,-0.3694920984544932,0.3540216786912471,-0.08425472883961695,0.0
0.42899815021536775,-0.18082614049090298,0.42842579807702424,-0.008016243076687255,0.37484355390259694,0.09559851305871675,0.0
0.05425580819825303,-0.1351900562232304,0.18523938746631952,0.026836797710227945,-0.6168729643362397,-0.22260337645371978,0.0
0.4324361599785507,-0.2786177048030212,0.28336724653334816,-0.21912610830381454,-0.8280663820009172,0.08330085653462743,0.0
0.6180882057438815,-0.2623191012409935,0.4028272147818336,-0.27588676817829516,-1.2641360403385917,0.2616168995701187,0.0
0.7281042774424618,-0.37314959975677725,-0.06647984067824675,-0.31621671487574743,-0.321202237653609,-0.5876900797065322,0.0
0.5527660202434084,-0.314474638345487,0.061513001115645755,-0.2878363910112846,0.30464405905111647,-0.6345748840724295,0.0
0.6730961212315357,-0.3764093261751875,-0.006749856554004046,-0.08867614406256362,1.3261061298912868,-0.5008378986682036,0.0
0.45993999736074204,-0.2981760347834592,0.47535645321264103,0.20060412042995607,1.3391941939331242,-0.23336383411496672,0.0
0.4874440754662031,-0.34381211905113207,0.3686957952822662,0.8264651487039169,0.8608857940145964,0.25008782841573285,0.0
0.4840060657030209,-0.2362413469537589,0.4668236543492951,0.61386163072308,0.0024293076035566507,0.061011351155191046,0.0
0.4874440754662031,-0.18408583837928935,0.30896579248750844,0.2628416846967792,-0.3182276881982674,0.29620405678640527,0.0
0.5011961145189363,-0.14496920694843732,0.2577686632381576,0.11546311239990295,0.01075806095329205,0.40227135016572446,0.0
0.3636759647148941,-0.11237202835440578,0.3388308125554025,0.223507552047631,-0.014228199095914131,0.3761388288802248,0.0
0.4358741697417332,-0.14170948053002705,0.3302979390099956,0.33553518716080055,0.11962676221412352,0.22779833709801423,0.0
0.5080721340453012,-0.314474638345487,0.28336724653334816,0.36789871863625984,0.17852294156254522,0.34693189112008344,0.0
0.49775810475575405,-0.3405523926327218,0.30896579248750844,0.35445541116747903,0.3052389921613517,0.15170657622301836,0.0
0.48056805593983876,-0.2688385540778143,0.35589652230518626,-0.03390707518381646,-0.06955491401873312,0.04487067403779928,0.0
0.4324361599785507,-0.25905940335260713,0.34736364875977904,-0.21912610830381454,-0.34618849951681263,0.03718463871024347,0.0
0.44962596807119326,-0.24276079979057943,0.3686957952822662,-0.20120168619988532,-0.3967559273294963,0.10405314898950362,0.0
0.44962596807119326,-0.24276079979057943,0.3686957952822662,-0.10162155665274733,-0.2432689026086567,0.0756148200352618,0.0
0.45650198759755906,-0.2362413469537589,0.3260315022372921,-0.058304205765242055,0.0851219297586443,0.04948229640614259,0.0
0.5080721340453012,-0.22320246981014147,0.30469935571480505,-0.1046089623609947,0.04645271790730124,0.06485436706125423,0.0
0.5768320885856859,-0.4253051083312468,0.47109009112199857,-0.6866548040784335,-0.8268765738283644,0.1248054508188583,0.0
0.49775810475575405,-0.265578827659404,0.22363724373859012,-0.5372845915393941,0.18030768284533377,0.03487882752607181,0.0
0.44618795830801083,-0.2525399505157866,0.34309721198707555,-0.3172125289240515,0.0982099684045175,-0.05965941579143835,0.0
0.3911800428203563,-0.2395010733721692,0.3686957952822662,-0.3256768390246416,-0.4877772973923271,-0.05197337929207272,0.0
0.4908820852293886,-0.29165658194663874,0.2663015367835645,-0.3799480123605816,-0.6341253860059717,-0.04121293100530439,0.0
0.4358741697417332,-0.2557996769341969,0.2577686632381576,-0.43720657925921397,-0.6293660952678417,0.008746305068762407,0.0
0.49432009499257135,-0.29165658194663874,0.23217011728399733,-0.16236543628377922,-0.278368650034397,-0.09270937414488235,0.0
0.5080721340453012,-0.25905940335260713,0.2577686632381576,-0.07473492653324205,-0.18080326246262704,-0.0635024363847408,0.0
0.4874440754662031,-0.2688385540778143,0.2791008097606448,-0.1543990210617862,-0.5710648562856452,0.007977702121911732,0.0
0.5183861633348489,-0.3372926662143116,0.21937080696588665,-0.3351369388824258,-0.7453737562178349,-0.10961864600645606,0.0
0.4186841209258195,-0.3372926662143116,0.2407029534883738,-0.06627061643265196,-1.3343355932379903,-0.17033833388272066,0.0
0.425560140452185,-0.3372926662143116,0.06577941921783399,0.17670487476397706,-1.0475885149213842,-0.18340459452547042,0.0
0.5080721340453012,-0.3307732133774907,0.061513001115645755,0.29968634295294205,-0.3342903016954464,-0.19570226042403824,0.0
0.5252621828612165,-0.28187743122143155,0.010315853195779606,0.40076014499031615,-0.24564854797772176,-0.28793467966746866,0.0
0.5596420397697732,-0.25905940335260713,-0.04941413092846313,0.15927835968419976,0.11486747873198315,-0.2249091981841798,0.0
0.5802700983488708,-0.2199427719217551,0.07004585599053748,0.22251173799932691,0.5021545085876803,-0.1526604485280079,0.0
0.5802700983488708,-0.2199427719217551,0.07004585599053748,0.13338753450383237,0.5449880962068921,-0.07426288467150913,0.0
0.45650198759755906,-0.16778726334728558,0.18950582423902299,-0.06378111167577916,0.356401324060312,-0.08579193707693794,0.0
0.45993999736074204,-0.1351900562232304,0.2449693902610773,-0.05730840386249293,0.46586492396542767,-0.07118846819686718,0.0
0.45993999736074204,-0.1351900562232304,0.2449693902610773,-0.06527481452990283,0.31237789924458803,-0.07349428055284865,0.0
0.5115101438084839,-0.16778726334728558,0.14257513176237555,-0.2251009075747545,0.265974858083758,-0.08502333295827745,0.0
0.4874440754662031,-0.2166830455033448,0.17670655126194304,-0.3052629060910619,0.06786951171690726,-0.19262784394939628,0.0
0.4874440754662031,-0.2166830455033448,0.17670655126194304,-0.3172125289240515,0.1577010663511952,-0.19954527164286218,0.0
0.5424522316771319,-0.27209828049622464,0.13830869498967213,-0.1444410141798499,0.7442832580022856,-0.08809774943291941,0.0
0.5974601471647839,-0.2525399505157866,0.05724656434294219,0.0721457599942033,1.336814577588018,0.01412653038395639,0.0
0.5974601471647839,-0.2525399505157866,0.05724656434294219,-0.06776431625038692,1.4552017968351996,0.027961395438319124,0.0
0.37055198424125957,-0.19386501763452046,0.3686957952822662,-0.12651659207592056,-0.45565212844588726,-0.05120477517341221,0.0
0.37055198424125957,-0.19386501763452046,0.3686957952822662,-0.12651659207592056,-0.45565212844588726,-0.05120477517341221,0.0
0.4633780071239245,-0.2557996769341969,0.3260315022372921,0.07911636116789225,-0.25457222536770546,-0.10423842655031117,0.0
0.42899815021536775,-0.2557996769341969,0.3601629217368593,0.323087669449214,-0.6698200375179887,-0.22183478170953783,0.0
0.5115101438084839,-0.20038444194131708,0.1340422582169687,0.26483328850227744,-0.22185212331103007,-0.060428019910098836,0.0
0.4427499485448278,-0.17430668765408244,0.3260315022372921,0.17919439773918217,-0.6204424469018169,-0.17033833388272066,0.0
0.4702540266502911,-0.07977482123035048,0.5052215106215657,0.3116359657859314,-0.6198475137915814,-0.2425870647899355,0.0
0.5252621828612165,-0.16778726334728558,0.3942943412364265,-0.013991049938598905,-0.18258798923343614,-0.16111508445879474,0.0
0.6249642252702463,-0.14822893336684762,0.09564442061521314,-0.0692580191045106,0.2713290529081645,-0.0819489164836355,0.0
0.6008981569279661,-0.1351900562232304,0.09564442061521314,-0.05730840386249293,0.39209597557232895,-0.12883373959848976,0.0
0.425560140452185,-0.1286706033864096,0.3686957952822662,0.1552951642187581,0.14342320139279457,-0.08348612472095648,0.0
0.3464859158989796,-0.1286706033864096,0.47109009112199857,0.06517514667495942,-1.1255217919184188,-0.14958603205336596,0.0
0.3567999451885281,-0.17430668765408244,0.41989292453161736,-0.06876011815313604,-1.8780841392219505,-0.12806513547982928,0.0
0.44618795830801083,-0.16452753692887534,0.027381562945563216,-0.13249139741963784,-1.669270453998215,-0.034295498624599234,0.0
0.5321382023875815,-0.18082614049090298,-0.08781197786547627,-0.15489692808593825,-0.5657106324372795,-0.08271752060229597,0.0
0.638716264322979,-0.18082614049090298,-0.07074626811569265,-0.12950399171139046,0.01254279407309212,-0.11192445836243756,0.0
0.6318402447966113,-0.17104696123567195,-0.01528271142889585,-0.2664266683205108,0.07798299727944401,-0.06888265584088571,0.0
0.5321382023875815,-0.16126781051046504,0.07431227409272584,-0.07871813110784982,0.0857168374729157,-0.06734544760356474,0.0
0.504634124282119,-0.19712471552290683,0.09564442061521314,0.04426332493556017,0.1945855405477446,-0.14881743730918393,0.0
0.5493282512034967,-0.24602052620898998,-0.006749856554004046,-0.06278530977303003,0.1731687467381386,-0.14343721785303906,0.0
0.5355762121507636,-0.24276079979057943,-0.006749856554004046,-0.1409557135930054,-0.11179359029567892,-0.12345351076786634,0.0
0.5287001926243987,-0.22972192264696228,0.08711156574032117,0.10102399088281809,-0.07490911609912948,-0.011237389126502356,0.0
0.4358741697417332,-0.24276079979057943,0.09137798384250936,0.21653692658283222,-0.3164429469154789,-0.024303649769252134,0.0
0.425560140452185,-0.21342331908493456,-0.023815566303787655,0.004929174068079556,-0.459816486073782,-0.05120477517341221,0.0
0.5321382023875815,-0.265578827659404,-0.045147694155759595,0.034803212932220946,-0.07550402744139574,-0.13728838490375514,0.0
0.9343843817868885,-0.28187743122143155,0.014582289968483167,0.19612301794036238,0.6621855653294385,-0.005088558520838069,0.0
0.5218241730980338,-0.21016359266652407,0.21510440753421356,0.14234973948301954,0.31713718998271806,-0.07349428055284865,0.0
0.5355762121507636,-0.1351900562232304,0.031647999718266734,0.1139694034730018,0.6294654632727633,0.12787986729350026,0.0
0.2983540199376919,-0.11889145266120268,0.031647999718266734,0.5814980992476205,1.5837025887167946,0.15554959681632083,0.0
0.5321382023875815,-0.14496920694843732,-0.05794698580335494,-0.2669245631991079,0.332009966283385,-0.11653608307440047,0.0
0.5424522316771319,-0.08303454764876082,0.22363724373859012,-0.38144169699637287,0.662780440391756,-0.147280229071863,0.0
0.5218241730980338,-0.11237202835440578,0.2791008097606448,-0.46757853122028475,0.5182170930609,0.09406130482139578,0.0
0.4840060657030209,-0.10585257551758524,0.22790368051129362,-0.3938892147079594,0.1856618776697404,0.16092981627246575,0.0
0.4840060657030209,-0.10585257551758524,0.22790368051129362,-0.05332519928788516,0.15651124366666266,0.17860770162717843,0.0
0.5562040300065906,-0.1351900562232304,0.2577686632381576,0.7388346784264331,0.5800878146086738,0.05101950464346357,0.0
0.2983540199376919,-0.06347623193333479,0.3260315022372921,0.4052412717710197,-0.1314256573344759,0.19782278584473367,0.0
0.3396098963726144,-0.09281369837396783,0.16817367771653582,-0.24501694562973692,-0.31108875209107223,0.2708401302450876,0.0
0.2674119320690459,0.057133395910137864,-0.638181154637029,-0.028928068991121006,-0.34380885414774764,-0.04428734279270709,0.0
0.4530639778343763,0.027795922336998784,-0.045147694155759595,-0.34011596054172644,-0.5579767922438078,-0.14804882381604498,0.0
0.6352782545597963,-0.0993331512107886,0.09564442061521314,-0.3784543034336804,-0.38069334285627654,-0.3156044279392463,0.0
0.5183861633348489,-0.08303454764876082,0.17670655126194304,-0.3938892147079594,-0.6412643511371257,-0.2641079801124291,0.0
0.4393119387816448,-0.04391790195289674,0.22790368051129362,-0.2549749403661184,-0.5841528622795644,-0.06196522814741982,0.0
0.4702540266502911,-0.0960734247923781,0.10844371226280843,-0.42177166798493504,-0.6394796098543374,-0.002014144389815742,0.0
0.5974601471647839,-0.15148865978525813,0.061513001115645755,-0.14593471096119612,-0.4693350675500421,-0.012005993245162836,0.0
0.5665180592961387,-0.17430668765408244,0.03591441782045506,-0.1369725059820089,-0.4455386428833505,-0.11346166659975851,0.0
0.5458902414403146,-0.15800808409205475,0.014582289968483167,-0.24651063026552827,-0.6299610283780771,-0.06580824874072226,0.0
0.5080721340453012,-0.1156317262427922,0.0017829983208878016,-0.35604876669460256,-0.5008653614341645,-0.12575932312384783,0.0
0.5974601471647839,0.027795922336998784,-0.6253818816599488,-0.3097440085806554,0.28739163738138435,-0.05581639519813591,0.0
0.3533619354253456,-0.06999567050514341,0.18097295069361613,-0.606990700440723,0.6984750919037731,0.01412653038395639,0.0
0.5596420397697732,-0.10911230193599551,-0.006749856554004046,-0.1489221166694435,0.1267656983213187,0.13249148263098465,0.0
0.4427499485448278,-0.15800808409205475,-0.10487768761525992,-0.1942310728806414,0.1107030993361193,0.17783909750851798,0.0
0.4530639778343763,-0.004801270522044635,0.21937080696588665,-0.005028838886634243,0.0036191302880891813,0.2669971190262636,0.0
0.4633780071239245,-0.11237202835440578,-0.10061126017781401,-0.18875416848829862,0.3677046177954018,0.13479729498696613,0.0
0.5905841276384185,-0.22972192264696228,-0.03661483928086779,-0.03589867775578179,0.5646201342217302,0.18168211810182042,0.0
0.5665180592961387,-0.24276079979057943,-0.18593981592817538,-0.11406907436433396,0.9519071931013862,0.34462606938962337,0.0
0.583708108112053,-0.265578827659404,-0.08781197786547627,0.307652758174935,1.0976604066527131,0.4399329426056099,0.0
0.4393119387816448,-0.2557996769341969,0.12124298523988838,0.31014225685903024,0.7573713220441229,0.3215679645787658,0.0
0.3464859158989796,-0.2362413469537589,0.20657153398880668,0.10600300039656373,0.03098503298536426,0.3115761204106581,0.0
0.38430402329399077,-0.21342331908493456,0.22363724373859012,-0.02743436727564309,0.01670717074795982,0.25085644190887185,0.0
0.5011961145189363,-0.22972192264696228,0.08284512896761764,-0.11506487626708306,-0.06598545322112526,0.06408576528621336,0.0
0.5493282512034967,-0.22320246981014147,0.044447272695346866,-0.0742370255818675,0.08155246533304158,0.10405314898950362,0.0
0.583708108112053,-0.21016359266652407,0.05298012757023867,-0.000547733360651898,0.2743036023635061,0.173227472796555,0.0
0.5252621828612165,-0.21342331908493456,0.11271011169448152,0.09206178590363089,0.09939979108905003,0.16554144098442863,0.0
0.45993999736074204,-0.27535800691463486,0.15110796796675208,0.29769473914744365,-0.11536305834927647,0.07254040356061987,0.0
0.4530639778343763,-0.324253789070694,0.18523938746631952,0.49336966121821035,-0.18318290783169217,-0.05351058752939368,0.0
0.45993999736074204,-0.3079551855086664,0.10844371226280843,0.40822868962482195,-0.14332386966782168,-0.16726391740807867,0.0
0.5011961145189363,-0.28187743122143155,0.06577941921783399,-0.07473492653324205,-0.546673469484759,-0.04428734279270709,0.0
0.5493282512034967,-0.19386501763452046,0.006049435093591278,-0.19223946907514317,-0.41341344491295184,0.12711126317483978,0.0
0.5424522316771319,-0.19712471552290683,0.044447272695346866,0.19562509877065543,-0.021367131575114415,0.0002916656225461008,0.0
0.5562040300065906,-0.2166830455033448,0.08711156574032117,0.3952832770346383,0.001834396261290394,0.1009787372021009,0.0
0.5183861633348489,-0.14496920694843732,0.15537440473945585,0.2160390317042351,-0.40092031398135003,0.310038912173337,0.0
0.5183861633348489,-0.16778726334728558,0.12977582144426497,0.07812055926514314,-0.4919417130681397,0.29312964031176325,0.0
0.45993999736074204,-0.2199427719217551,0.12550942201259183,0.19711880769755663,-0.5276363645801565,0.144020544410892,0.0
0.4530639778343763,-0.21016359266652407,0.1340422582169687,0.24441937985980763,-0.7203874943546311,0.08099504417864598,0.0
0.5149481535716661,-0.17756641407249274,0.027381562945563216,0.1279106301114896,-0.6763640695389072,0.10866477370146653,0.0
0.5596420397697732,-0.16778726334728558,-0.0024834197813005275,0.0004480685420972276,-0.48063839030909095,0.11404500253208996,0.0
0.5458902414403146,-0.17430668765408244,0.044447272695346866,-0.0473503924259735,-0.3670104037521216,0.10405314898950362,0.0
0.45993999736074204,-0.16126781051046504,0.08711156574032117,0.07114995809145418,-0.4562470325321638,0.061011351155191046,0.0
0.5011961145189363,-0.15148865978525813,0.03591441782045506,0.09853449219872275,-0.42888112529989514,0.07868923182266452,0.0
0.5355762121507636,-0.16778726334728558,-0.08781197786547627,-0.010505746315365695,-0.1700948728138138,0.010283512134273571,0.0
0.5493282512034967,-0.15800808409205475,-0.16887410384457735,-0.06527481452990283,0.2011295580566838,-0.011237389126502356,0.0
0.5390142219139469,-0.18082614049090298,-0.06221341324080084,-0.08469293645156711,0.4611056332272977,-0.03506409805602048,0.0
0.5149481535716661,-0.14496920694843732,-0.07501269555313857,-0.24651063026552827,0.617567207403479,-0.05965941579143835,0.0
0.5287001926243987,-0.1351900562232304,-0.05794698580335494,-0.3799480123605816,0.8483926630829945,-0.05812220755411737,0.0
0.5527660202434084,-0.16778726334728558,0.09564442061521314,-0.2410337380187405,0.9560715507292806,0.10328454955808238,0.0
0.5493282512034967,-0.16778726334728558,0.12977582144426497,-0.12054178065942579,0.9513122599911507,0.2700715355009055,0.0
0.5287001926243987,-0.19060529121610997,0.1596408415121593,-0.004033036983885112,0.8483926630829945,0.24624481719690894,0.0
0.477130046176656,-0.20690389477813761,0.1724401144892393,0.13388542938242945,0.4985850260221031,0.10559035722682458,0.0
0.5115101438084839,-0.2166830455033448,0.15110796796675208,0.21703484575253917,0.5777081982635675,0.10174734132076142,0.0
0.49432009499257135,-0.21342331908493456,0.16817367771653582,0.20558311779814673,0.42481607762900414,0.3146505368852998,5.0
0.4874440754662031,-0.16778726334728558,0.2791008097606448,0.0029375702625813105,0.49442066839420834,0.1255740549375188,5.0
0.5218241730980338,-0.27535800691463486,0.1596408415121593,-0.2405358431401434,0.5777081982635675,0.05563112466818724,5.0
0.3911800428203563,-0.24276079979057943,0.2876336459650213,-0.09763835511452829,0.09404559626464337,0.04640788227512026,5.0
0.4427499485448278,-0.2525399505157866,0.23643651671567043,-0.07622862635097703,0.07203388748477624,0.03411022457922114,5.0
0.4702540266502911,-0.24276079979057943,0.2577686632381576,-0.06527481452990283,0.08155246533304158,0.030267206329538325,5.0
0.48056805593983876,-0.2525399505157866,0.2449693902610773,-0.05432100119063428,0.04645271790730124,0.03257301692780507,5.0
0.4874440754662031,-0.23298164906537253,0.21510440753421356,-0.04635459052322437,0.0399086967703672,0.04333346814409793,5.0
0.5011961145189363,-0.2362413469537589,0.19803869778442987,-0.04386508728454592,0.032174854762898074,0.05025090052480309,5.0
0.5080721340453012,-0.2264621962285517,0.18950582423902299,-0.03589867775578179,0.00897332874049069,0.06792878353589617,5.0
0.49432009499257135,-0.22972192264696228,0.18523938746631952,-0.03988188270993815,-0.010658734670311403,0.06408576528621336,5.0
0.4908820852293886,-0.22972192264696228,0.1724401144892393,-0.05880210519842225,0.0030242189458229277,0.07023459589187764,5.0
0.5011961145189363,-0.2362413469537589,0.15537440473945585,-0.05033779509783215,0.01254279407309212,0.04948229640614259,5.0
0.4874440754662031,-0.24276079979057943,0.20230509721610296,-0.04336718709226854,0.011352972295558312,0.042564864025437445,5.0
0.4840060657030209,-0.24928022409737638,0.19803869778442987,-0.034404975850529575,0.010163149611025785,0.03180441339504949,5.0
0.49775810475575405,-0.24928022409737638,0.14684153119404866,-0.010505746315365695,0.017302081183227364,0.0010602697412065896,5.0
0.5011961145189363,-0.22972192264696228,0.14684153119404866,-0.002539337166150155,-0.007089266616713827,-0.021997837413270677,5.0
0.49432009499257135,-0.2166830455033448,0.16817367771653582,-0.003037238117524712,0.007783506055958163,-0.004319956745797203,5.0
0.49432009499257135,-0.21342331908493456,0.15537440473945585,-0.002539337166150155,0.011352972295558312,-0.03583270217468095,5.0
0.5011961145189363,-0.21016359266652407,0.15537440473945585,-0.01150154669992045,0.03336467654043188,-0.05658499931679639,5.0
0.5011961145189363,-0.19712471552290683,0.17670655126194304,-0.04336718709226854,0.03574432100249822,-0.06119662402875931,5.0
0.49775810475575405,-0.20364416835972737,0.16817367771653582,-0.06627061643265196,0.04109851945489973,-0.07656869702749058,5.0
0.5011961145189363,-0.20038444194131708,0.18097295069361613,-0.0936551475035318,0.06073057923770696,-0.06427104050340128,5.0
0.5011961145189363,-0.21342331908493456,0.15537440473945585,-0.10062576082277569,0.042883251667701086,-0.05812220755411737,5.0
0.5011961145189363,-0.21342331908493456,0.15537440473945585,-0.11506487626708306,0.037529053215299576,-0.05274198341073319,5.0
0.4874440754662031,-0.20690389477813761,0.17670655126194304,-0.12253338446492404,0.023251190864520297,-0.03813851453066242,5.0
0.5149481535716661,-0.2362413469537589,0.17670655126194304,-0.12004387970805123,0.029200300319063545,-0.020460633863188946,5.0
0.5080721340453012,-0.2362413469537589,0.1596408415121593,-0.12203548351354948,0.032174854762898074,-0.004319956745797203,5.0
0.4702540266502911,-0.2395010733721692,0.06577941921783399,-0.16385913306512545,-0.0326704398221837,0.04717648639378075,5.0
0.4427499485448278,-0.2525399505157866,0.044447272695346866,-0.26393716963641545,-0.16414575939115114,0.07484621591660133,5.0
0.5287001926243987,-0.24602052620898998,0.17670655126194304,-0.08469293645156711,-0.08204804495033491,0.01412653038395639,5.0
0.5149481535716661,-0.2688385540778143,0.1340422582169687,-0.09265934560078268,0.11129801067838557,0.042564864025437445,5.0
0.5080721340453012,-0.265578827659404,0.09991083871740125,-0.1061026652151184,0.09761505706225125,0.012589323318445223,5.0
0.5115101438084839,-0.2883968840582523,0.12550942201259183,0.005427075019454113,0.22254635186628982,-0.04121293100530439,5.0
0.4393119387816448,-0.24928022409737638,0.2961665195104281,0.10600300039656373,-0.18080326246262704,-0.03967572276798341,5.0
0.5768320885856859,-0.2362413469537589,0.06577941921783399,-0.07124962291000884,-0.15165262845954933,0.061011351155191046,5.0
0.5321382023875815,-0.24928022409737638,0.14257513176237555,-0.05382310023925971,-0.022556950631652074,0.11865661786957438,5.0
0.5011961145189363,-0.2525399505157866,0.12124298523988838,0.016878787791902876,-0.006494355274447571,0.06177995527385152,5.0
0.49432009499257135,-0.2557996769341969,0.09564442061521314,0.03779061256769084,-0.0386195459888566,0.06331716116755287,5.0
0.4908820852293886,-0.2688385540778143,0.14257513176237555,0.06268564799086407,-0.03980936867338913,0.07023459589187764,5.0
0.5011961145189363,-0.25905940335260713,0.18097295069361613,0.026836797710227945,-0.14570351503688672,0.08714387244069062,5.0
0.5011961145189363,-0.25905940335260713,0.18097295069361613,0.06965624916455303,0.04407307435223362,0.009514909187422893,5.0
0.4874440754662031,-0.23298164906537253,0.14684153119404866,0.04675282361965552,-0.0023299795065785884,0.03334162046056065,5.0
0.5011961145189363,-0.2395010733721692,0.1340422582169687,0.021857794269259767,-0.03921445733112285,0.07638342415392231,5.0
0.5011961145189363,-0.2395010733721692,0.1340422582169687,0.02633889675885337,-0.04992285423592589,0.07177179944195936,5.0
0.5183861633348489,-0.22972192264696228,0.12124298523988838,-0.019965858318704927,-0.01779766352151683,0.08253225241596697,5.0
0.5183861633348489,-0.21342331908493456,0.11697654846718496,-0.07672652730235158,0.04764253877783633,0.06792878353589617,5.0
0.5183861633348489,-0.21342331908493456,0.11697654846718496,-0.08120763282833392,0.09523541169318618,0.07100319532329889,5.0
0.5183861633348489,-0.21342331908493456,0.1340422582169687,-0.08070973491334808,0.07798299727944401,0.05716833290550821,5.0
0.4702540266502911,-0.19712471552290683,0.14684153119404866,0.008912378642687327,-0.11655288103380904,-0.034295498624599234,5.0
0.4702540266502911,-0.19712471552290683,0.14684153119404866,-0.1698339444816202,-0.13202056142075239,0.0441020710909486,5.0
0.5355762121507636,-0.22320246981014147,0.09991083871740125,-0.10958797187474033,0.04109851945489973,0.10635896134548507,5.0
0.5183861633348489,-0.24602052620898998,0.12977582144426497,-0.1543990210617862,0.06132549057997324,0.06408576528621336,5.0
0.5183861633348489,-0.24276079979057943,0.10417727549010469,-0.13846620276335514,0.045857806565034964,0.07254040356061987,5.0
0.4874440754662031,-0.24276079979057943,0.15537440473945585,-0.10709846711786752,-0.028506060426319844,0.09175549246541431,5.0
0.48056805593983876,-0.2362413469537589,0.1596408415121593,-0.09016984691668734,-0.10168010473314215,0.11327639841342949,5.0
0.48056805593983876,-0.22320246981014147,0.1724401144892393,-0.05133359700058127,-0.09870555527780056,0.14709495151105545,5.0
0.5115101438084839,-0.24928022409737638,0.14257513176237555,-0.031417572040025155,-0.0058994457461787365,0.14017752381758955,5.0
0.5183861633348489,-0.24276079979057943,0.12550942201259183,0.004431273116704998,0.060135667895440705,0.09713572129603772,5.0
0.5115101438084839,-0.24276079979057943,0.12977582144426497,0.02235569522063433,-0.007684177958980084,0.05793693702416872,5.0
0.5115101438084839,-0.2525399505157866,0.12977582144426497,0.04127591922731279,0.06311022460677201,0.06331716116755287,5.0
0.5115101438084839,-0.2362413469537589,0.12550942201259183,-0.013493150505418706,0.0708440648002437,0.06024274703653054,5.0
0.49775810475575405,-0.23298164906537253,0.12977582144426497,-0.06577271548127739,-0.013633287753647853,0.012589323318445223,5.0
0.4668160168871075,-0.22320246981014147,0.1340422582169687,-0.07672652730235158,-0.11833760780461806,-0.018923425625867987,5.0
0.4908820852293886,-0.2362413469537589,0.10844371226280843,-0.09315724655215722,0.005403862500890542,-0.030452478031296807,5.0
0.5080721340453012,-0.2166830455033448,0.14684153119404866,-0.07373912463049292,0.11784202818732474,-0.06119662402875931,5.0
0.5527660202434084,-0.2264621962285517,0.10844371226280843,-0.05979790710117137,0.1779280374762687,-0.05889081167277784,5.0
0.5252621828612165,-0.2199427719217551,0.061513001115645755,-0.08469293645156711,0.21421760758654154,-0.07656869702749058,5.0
0.5080721340453012,-0.19712471552290683,0.12977582144426497,-0.12801029493004426,0.09345068492237713,-0.05658499931679639,5.0
0.5011961145189363,-0.20038444194131708,0.14684153119404866,-0.10709846711786752,0.0024293076035566507,-0.02276644153193118,5.0
0.4702540266502911,-0.21342331908493456,0.17670655126194304,-0.1100858728261149,-0.06479563053659272,0.007977702121911732,5.0
0.49432009499257135,-0.2362413469537589,0.11697654846718496,-0.07772232920510071,-0.027911149084053587,0.041796259906776954,5.0
0.5080721340453012,-0.2525399505157866,0.10417727549010469,-0.06079370900392049,0.06251531326450575,-0.004319956745797203,5.0
0.5080721340453012,-0.27535800691463486,0.11697654846718496,0.005427075019454113,-0.032075528479917445,-0.010468785007841853,5.0
0.5183861633348489,-0.28187743122143155,0.09137798384250936,-0.01150154669992045,0.03098503298536426,-0.03813851453066242,5.0
0.5149481535716661,-0.29165658194663874,0.10417727549010469,0.019368289512386953,0.056566203469837976,-0.04659315514868855,5.0
0.4908820852293886,-0.29165658194663874,0.10844371226280843,0.04525912076553183,0.05894584883890304,-0.0635024363847408,5.0
0.504634124282119,-0.2981760347834592,0.10844371226280843,0.1308980358197369,0.16662472922919944,-0.11269306248109802,5.0
0.5080721340453012,-0.27209828049622464,0.11697654846718496,0.08359747580304079,0.13628427254158917,-0.08886635355157992,5.0
0.5011961145189363,-0.24276079979057943,0.10417727549010469,0.0357990087621926,0.08690666015744823,-0.05812220755411737,5.0
0.5011961145189363,-0.23298164906537253,0.1724401144892393,0.05720873752574388,0.037529053215299576,-0.06657684348490424,5.0
0.49432009499257135,-0.2525399505157866,0.13830869498967213,0.08907438019538351,0.07560335553837381,-0.07887450938347206,5.0
0.5183861633348489,-0.2525399505157866,0.12550942201259183,0.11745471620540118,0.1529417756130651,-0.07426288467150913,5.0
0.5080721340453012,-0.2362413469537589,0.12550942201259183,0.09156387887947887,0.12081658489865606,-0.05581639519813591,5.0
0.5011961145189363,-0.2362413469537589,0.1596408415121593,0.05969824228261669,0.06548986634784221,-0.05043617105475174,5.0
0.49432009499257135,-0.21016359266652407,0.12977582144426497,0.0004480685420972276,0.026820656537246246,-0.025072253887912642,5.0
0.5011961145189363,-0.21016359266652407,0.1340422582169687,-0.05880210519842225,0.02622574564847934,-0.0627338322660803,5.0
0.5149481535716661,-0.20038444194131708,0.13830869498967213,-0.0423713859486166,0.029200300319063545,-0.04121293100530439,5.0
0.504634124282119,-0.21342331908493456,0.14257513176237555,-0.034902876422355546,-0.027911149084053587,-0.02891526979397583,5.0
0.5011961145189363,-0.20364416835972737,0.17670655126194304,-0.08070973491334808,-0.021962039289385824,-0.010468785007841853,5.0
0.5080721340453012,-0.19712471552290683,0.15537440473945585,-0.09863415701727742,0.03455449922496441,0.01412653038395639,5.0
0.5011961145189363,-0.20364416835972737,0.1596408415121593,-0.12552079017317141,0.07619826325264523,0.06177995527385152,5.0
0.4668160168871075,-0.2362413469537589,0.19377226101172648,-0.03639657832760776,-0.12369181714100416,0.02719279190556354,5.0
0.49432009499257135,-0.22972192264696228,0.17670655126194304,0.009410279594061896,-0.09156661917060539,0.02411837740835065,5.0
0.5183861633348489,-0.2199427719217551,0.15110796796675208,0.0357990087621926,-0.041594102700187915,0.016432341568128037,5.0
0.5183861633348489,-0.2199427719217551,0.17670655126194304,0.17969229261777928,0.0399086967703672,0.035647431644732296,5.0
0.5287001926243987,-0.21016359266652407,0.09137798384250936,0.01588298588915375,-0.04813812020912708,0.006440493884590755,5.0
0.5183861633348489,-0.18408583837928935,0.06577941921783399,-0.06776431625038692,0.0036191302880891813,0.007977702121911732,5.0
0.5080721340453012,-0.19060529121610997,0.1596408415121593,-0.10560476426374384,-0.016607840836984307,0.03180441339504949,5.0
0.4908820852293886,-0.19712471552290683,0.16390724094383238,-0.12004387970805123,-0.03802463464659034,0.03641603459158298,5.0
0.4908820852293886,-0.2166830455033448,0.18097295069361613,-0.05581470252656359,0.018491903414260533,0.011820719199784733,5.0
0.49432009499257135,-0.2199427719217551,0.17670655126194304,-0.06378111167577916,0.05240182770196901,-0.025072253887912642,5.0
0.5080721340453012,-0.22972192264696228,0.17670655126194304,-0.06726641529901234,0.02622574564847934,-0.032758290387278274,5.0
0.5080721340453012,-0.23298164906537253,0.1596408415121593,-0.0642790126271537,0.04407307435223362,-0.02891526979397583,5.0
0.5011961145189363,-0.2362413469537589,0.17670655126194304,-0.045358789379572426,0.032174854762898074,-0.020460633863188946,5.0
0.5011961145189363,-0.21342331908493456,0.16817367771653582,-0.020961658703259688,0.02146645808484474,-0.018923425625867987,5.0
0.5011961145189363,-0.21342331908493456,0.14684153119404866,0.009410279594061896,0.018491903414260533,-0.0027827485084762175,5.0
0.504634124282119,-0.2264621962285517,0.14684153119404866,0.016878787791902876,0.023251190864520297,0.018738152166394784,5.0
0.5011961145189363,-0.2362413469537589,0.15537440473945585,0.045757021716906404,0.032769766105164334,0.017969548633639202,5.0
0.5080721340453012,-0.2362413469537589,0.13830869498967213,0.06019614323399126,0.03336467654043188,0.022581170123125147,5.0
0.5080721340453012,-0.22972192264696228,0.1340422582169687,0.08110796497339053,0.05835093749663678,0.007209098003251244,5.0
0.5080721340453012,-0.2199427719217551,0.15537440473945585,0.10201979278556722,0.08036264264850906,-0.04582455103002805,5.0
0.49432009499257135,-0.20364416835972737,0.1596408415121593,0.1134715085944047,0.0922608622378446,-0.025072253887912642,5.0
0.49432009499257135,-0.20364416835972737,0.1596408415121593,0.11944632001089948,0.08155246533304158,-0.06503964462206176,5.0
0.49432009499257135,-0.19386501763452046,0.15537440473945585,0.12940432689283582,0.05835093749663678,-0.04889896750467002,5.0
0.504634124282119,-0.17430668765408244,0.1340422582169687,0.12293162059774392,0.06965424574370604,-0.07887450938347206,5.0
0.5080721340453012,-0.17430668765408244,0.16390724094383238,0.10301559468831635,0.06489495863357081,-0.05427918696081493,5.0
0.5183861633348489,-0.15800808409205475,0.15110796796675208,0.07513316570245068,0.0535916485725041,-0.048130363386009546,5.0
0.5080721340453012,-0.15148865978525813,0.15537440473945585,0.06517514667495942,0.057756026154370504,-0.03583270217468095,5.0
0.5252621828612165,-0.16452753692887534,0.14684153119404866,0.052229734084775714,0.061920401922239486,-0.027378066243894106,5.0
0.5080721340453012,-0.14822893336684762,0.15537440473945585,0.017376688743277427,0.060135667895440705,-0.018923425625867987,5.0
0.49775810475575405,-0.14822893336684762,0.1596408415121593,-0.011003647266740269,0.045262895222768704,-0.025072253887912642,5.0
0.504634124282119,-0.14822893336684762,0.15110796796675208,-0.03988188270993815,0.05180691635970274,-0.0404443268866439,5.0
0.5011961145189363,-0.16778726334728558,0.1340422582169687,-0.06577271548127739,0.04764253877783633,-0.001245542614774881,5.0
0.5011961145189363,-0.18408583837928935,0.14684153119404866,-0.08369713758520672,0.03336467654043188,-0.018923425625867987,5.0
0.5252621828612165,-0.16452753692887534,0.10417727549010469,-0.10112366177415023,0.07619826325264523,-0.03736991041200194,5.0
0.5252621828612165,-0.16452753692887534,0.07857871086542932,-0.11705648007258132,0.09107103955331206,-0.060428019910098836,5.0
0.5252621828612165,-0.16452753692887534,0.08711156574032117,-0.13647459895785688,0.11665221275878195,-0.09117216590756136,5.0
0.5183861633348489,-0.15148865978525813,0.044447272695346866,-0.16037383247828096,0.11903185087185726,-0.08502333295827745,5.0
0.5149481535716661,-0.13844978264164068,0.08711156574032117,-0.1738171520926167,0.10653871994025546,-0.08732914531425892,5.0
0.504634124282119,-0.11237202835440578,0.15537440473945585,-0.2310757189912492,0.05835093749663678,-0.05581639519813591,5.0
0.5080721340453012,-0.08955398622056962,0.1724401144892393,-0.3052629060910619,0.02503592370088327,-0.04121293100530439,5.0
0.5183861633348489,-0.07325538265854181,0.18523938746631952,-0.3595340794270019,0.029795211207830453,-0.028146665675315322,5.0
0.5115101438084839,-0.0667359440867331,0.1724401144892393,-0.4322275818910234,0.0024293076035566507,0.007977702121911732,5.0
0.5011961145189363,-0.07325538265854181,0.16817367771653582,-0.5099000574321255,-0.03505008156325389,0.01412653038395639,5.0
0.5011961145189363,-0.0960734247923781,0.19803869778442987,-0.6000200749759242,-0.04456865941151924,0.021043963057613982,5.0
0.5011961145189363,-0.1286706033864096,0.14684153119404866,-0.6542912240207546,-0.06360580785206021,0.03487882752607181,5.0
0.5080721340453012,-0.15800808409205475,0.10844371226280843,-0.6791862594439277,-0.04456865941151924,0.04717648639378075,5.0
0.49432009499257135,-0.19060529121610997,0.09564442061521314,-0.6856589657390195,-0.03505008156325389,0.04563927815645977,5.0
0.48056805593983876,-0.2199427719217551,0.11697654846718496,-0.652299644506366,-0.040999191357921655,0.04102765695992628,5.0
0.4874440754662031,-0.28187743122143155,0.12977582144426497,-0.5845851637016451,-0.0326704398221837,0.039490449894415115,5.0
0.4874440754662031,-0.2981760347834592,0.12550942201259183,-0.5178664726541186,-0.03683481196205781,0.013357927437105711,5.0
0.49432009499257135,-0.3177343362338733,0.14257513176237555,-0.3988682363672601,-0.02910097176858612,0.01720094510088362,5.0
0.49775810475575405,-0.3372926662143116,0.12550942201259183,-0.3132293213130549,-0.007684177958980084,0.02719279190556354,5.0
0.504634124282119,-0.3340329397959011,0.09991083871740125,-0.22310931591481112,-0.014228199095914131,0.006440493884590755,5.0
0.5080721340453012,-0.3307732133774907,0.12124298523988838,-0.09863415701727742,-0.01839257486378311,-0.006625766758159046,5.0
0.5183861633348489,-0.314474638345487,0.09564442061521314,-0.006024640789383369,0.0012394867330215603,0.012589323318445223,5.0
0.5149481535716661,-0.30469545909025614,0.10417727549010469,0.0726436548728004,0.004214039816358012,0.022581170123125147,5.0
0.5080721340453012,-0.29165658194663874,0.11697654846718496,0.12940432689283582,-0.0005452472937772274,0.004903287990889405,5.0
0.5080721340453012,-0.28187743122143155,0.09137798384250936,0.18865449759696654,-0.0023299795065785884,0.007209098003251244,5.0
0.5011961145189363,-0.2557996769341969,0.12550942201259183,0.21902644955803732,0.001834396261290394,0.03257301692780507,5.0
0.5011961145189363,-0.2199427719217551,0.1340422582169687,0.22549915585312927,0.014922437628159743,0.021043963057613982,5.0
0.504634124282119,-0.21342331908493456,0.14684153119404866,0.22898444429441872,0.001834396261290394,0.031035809862293904,5.0
0.5011961145189363,-0.18734556479769968,0.11271011169448152,0.20408940887124552,0.006593685185423069,0.039490449894415115,5.0
0.4908820852293886,-0.18082614049090298,0.09564442061521314,0.19512720389205834,0.015517348970426007,0.03180441339504949,5.0
0.5011961145189363,-0.18408583837928935,0.11697654846718496,0.16575107812484652,0.006593685185423069,0.031035809862293904,5.0
0.5080721340453012,-0.17756641407249274,0.14684153119404866,0.15280565338910795,0.03514940966023196,-0.001245542614774881,5.0
0.5183861633348489,-0.19060529121610997,0.15110796796675208,0.138864438896175,0.0470476292495675,0.011820719199784733,5.0
0.5080721340453012,-0.17430668765408244,0.11697654846718496,0.11596100727850003,0.0726287988270425,-0.020460633863188946,5.0
0.5011961145189363,-0.16452753692887534,0.1340422582169687,0.08110796497339053,0.09107103955331206,-0.020460633863188946,5.0
0.5080721340453012,-0.16126781051046504,0.12550942201259183,0.06666884952908309,0.08988121686877955,-0.019692029744528466,5.0
0.5218241730980338,-0.1547483576736445,0.13830869498967213,0.016878787791902876,0.09107103955331206,-0.001245542614774881,5.0
0.5080721340453012,-0.17104696123567195,0.14257513176237555,0.010406078460422295,0.08869139418424701,-0.012005993245162836,5.0
0.504634124282119,-0.16778726334728558,0.10417727549010469,-0.013991049938598905,0.057161114812104244,-0.023535045650591654,5.0
0.5080721340453012,-0.19060529121610997,0.11697654846718496,-0.020463758510982307,0.07500844419610755,-0.0127745950202037,5.0
0.5080721340453012,-0.19060529121610997,0.11271011169448152,-0.018970056415955804,0.07679317459491147,-0.015080405032565542,5.0
0.49432009499257135,-0.18082614049090298,0.06577941921783399,-0.011003647266740269,0.08869139418424701,-0.027378066243894106,5.0
0.5011961145189363,-0.19712471552290683,0.10417727549010469,0.0029375702625813105,0.07798299727944401,-0.02891526979397583,5.0
0.5080721340453012,-0.20364416835972737,0.12977582144426497,0.02235569522063433,0.07203388748477624,-0.005857162639498544,5.0
0.4874440754662031,-0.20690389477813761,0.1340422582169687,0.08210376687613963,0.06370513594903827,-0.013543199138864176,5.0
0.5011961145189363,-0.21016359266652407,0.15110796796675208,0.09405338970912915,0.03336467654043188,-0.01815482150720748,5.0
0.5183861633348489,-0.19712471552290683,0.11271011169448152,0.11894841298674744,0.03931378633509965,0.007209098003251244,5.0
0.5252621828612165,-0.19712471552290683,0.11271011169448152,0.1279106301114896,0.03514940966023196,-0.020460633863188946,5.0
0.5080721340453012,-0.18408583837928935,0.15537440473945585,0.1279106301114896,0.004214039816358012,0.035647431644732296,5.0
0.504634124282119,-0.16126781051046504,0.14684153119404866,0.12243371357359194,0.010163149611025785,0.028729998971074706,5.0
0.504634124282119,-0.16452753692887534,0.1340422582169687,0.10351350171246837,0.019681725191794345,0.02565558462033804,5.0
0.5183861633348489,-0.16126781051046504,0.12977582144426497,0.09305758780638002,0.010163149611025785,0.029498602796782743,5.0
0.5011961145189363,-0.15800808409205475,0.1596408415121593,0.03878641447043998,0.004808951158624272,0.02411837740835065,5.0
0.5115101438084839,-0.15800808409205475,0.1340422582169687,0.03380741102947181,0.02741556742601315,0.027961395438319124,5.0
0.5115101438084839,-0.1547483576736445,0.1340422582169687,0.0029375702625813105,0.018491903414260533,0.0002916656225461008,5.0
0.5115101438084839,-0.14170948053002705,0.15110796796675208,-0.006522541740757926,0.02146645808484474,0.007209098003251244,5.0
0.5080721340453012,-0.15148865978525813,0.12550942201259183,-0.020961658703259688,0.008378417398224427,0.003366079753568428,5.0
0.5080721340453012,-0.15148865978525813,0.12550942201259183,-0.035400776994181524,0.019681725191794345,0.016432341568128037,5.0
0.5183861633348489,-0.14496920694843732,0.14684153119404866,-0.06477691357852826,0.03455449922496441,0.012589323318445223,5.0
0.504634124282119,-0.1351900562232304,0.1340422582169687,-0.09863415701727742,0.028010478541529736,-0.004319956745797203,5.0
0.504634124282119,-0.1351900562232304,0.1340422582169687,-0.09863415701727742,0.017302081183227364,-0.012005993245162836,5.0
0.5080721340453012,-0.14496920694843732,0.09137798384250936,-0.11904808387807957,0.02384610180997462,-0.0127745950202037,5.0
0.5218241730980338,-0.16778726334728558,0.1340422582169687,-0.11207747055883568,0.04169343079716599,-0.0296838739126363,5.0
0.5218241730980338,-0.16778726334728558,0.1340422582169687,-0.12402708731904773,0.054781471257036626,-0.02891526979397583,5.0
0.5218241730980338,-0.16778726334728558,0.1340422582169687,-0.11307327246158483,0.06251531326450575,-0.025840858006573122,5.0
0.5115101438084839,-0.18082614049090298,0.1340422582169687,-0.10709846711786752,0.05954076018116929,-0.03198968626861776,5.0
0.5115101438084839,-0.18082614049090298,0.1340422582169687,-0.10411106140962015,0.07024915708597232,-0.03890711864932292,5.0
0.504634124282119,-0.18734556479769968,0.12977582144426497,-0.09664255321177918,0.07143897614250998,-0.0127745950202037,5.0
0.5011961145189363,-0.19386501763452046,0.14257513176237555,-0.07124962291000884,0.06073057923770696,-0.02660946212523362,5.0
0.5011961145189363,-0.19386501763452046,0.14257513176237555,-0.05332519928788516,0.0500221841469014,-0.021997837413270677,5.0
0.5080721340453012,-0.19712471552290683,0.13830869498967213,-0.05481890062381447,0.051212005017436474,-0.020460633863188946,5.0
0.5149481535716661,-0.19060529121610997,0.13830869498967213,-0.05133359700058127,0.042883251667701086,-0.025072253887912642,5.0
0.5080721340453012,-0.17430668765408244,0.14684153119404866,-0.035400776994181524,0.056566203469837976,0.0010602697412065896,5.0
0.5183861633348489,-0.17104696123567195,0.14257513176237555,-0.03789028004308567,0.03514940966023196,-0.00047693849611439663,5.0
0.5080721340453012,-0.17104696123567195,0.12977582144426497,-0.03589867775578179,0.04764253877783633,-0.012005993245162836,5.0
0.49775810475575405,-0.19060529121610997,0.14684153119404866,-0.045358789379572426,0.05299673904423527,-0.005088558520838069,5.0
0.504634124282119,-0.18408583837928935,0.14257513176237555,-0.05780630481386748,0.06073057923770696,-0.025840858006573122,5.0
0.5080721340453012,-0.18082614049090298,0.1340422582169687,-0.051831497951955824,0.06489495863357081,-0.028146665675315322,5.0
0.5080721340453012,-0.17430668765408244,0.12550942201259183,-0.05979790710117137,0.0726287988270425,-0.008162974995480032,5.0
0.5011961145189363,-0.17104696123567195,0.1340422582169687,-0.09016984691668734,0.06608477769010847,-0.025072253887912642,5.0
0.49432009499257135,-0.17756641407249274,0.1340422582169687,-0.07174752082499469,0.045857806565034964,-0.006625766758159046,5.0
0.5011961145189363,-0.18734556479769968,0.15537440473945585,-0.06129160995529507,0.045262895222768704,0.012589323318445223,5.0
0.49775810475575405,-0.18082614049090298,0.1596408415121593,-0.034404975850529575,0.032174854762898074,0.02565558462033804,5.0
0.4908820852293886,-0.19060529121610997,0.15537440473945585,-0.010007845363991137,0.019681725191794345,-0.001245542614774881,5.0
0.5011961145189363,-0.19712471552290683,0.13830869498967213,0.016878787791902876,0.02860538943029664,0.021043963057613982,5.0
0.5183861633348489,-0.21342331908493456,0.14257513176237555,0.04725072457103009,0.04050360811263346,0.014895134502616874,5.0
0.5149481535716661,-0.20690389477813761,0.14257513176237555,0.055715034671620194,0.05894584883890304,-0.011237389126502356,5.0
0.504634124282119,-0.19386501763452046,0.18950582423902299,0.06716675048045767,0.05418655991477035,0.001828873859867078,5.0
0.5011961145189363,-0.17756641407249274,0.16817367771653582,0.06318354286946115,0.05180691635970274,-0.017386217388547,5.0
0.5011961145189363,-0.17756641407249274,0.16390724094383238,0.07065205106730216,0.04764253877783633,-0.010468785007841853,5.0
0.5115101438084839,-0.17104696123567195,0.14684153119404866,0.07363945677554953,0.061920401922239486,-0.025072253887912642,5.0
0.5115101438084839,-0.16452753692887534,0.15110796796675208,0.04924232837652833,0.0500221841469014,-0.04275013455538611,5.0
0.5149481535716661,-0.14822893336684762,0.15537440473945585,0.0163808868405283,0.060135667895440705,-0.021229233294610197,5.0
0.5080721340453012,-0.1351900562232304,0.15537440473945585,-0.0015435352634010292,0.048832361462368856,-0.025840858006573122,5.0
0.5149481535716661,-0.13844978264164068,0.16390724094383238,-0.030421770896373216,0.08393210707411178,-0.023535045650591654,5.0
0.5115101438084839,-0.14496920694843732,0.18523938746631952,-0.023949062893312698,0.07203388748477624,-0.01815482150720748,5.0
0.5080721340453012,-0.14496920694843732,0.1724401144892393,-0.026438566131991147,0.06727460037464099,-0.007394370876819531,5.0
0.5080721340453012,-0.15800808409205475,0.16817367771653582,-0.010007845363991137,0.057161114812104244,-0.008931576770520868,5.0
0.5011961145189363,-0.15148865978525813,0.14684153119404866,-0.009012043461242009,0.05954076018116929,-0.02660946212523362,5.0
0.5183861633348489,-0.1351900562232304,0.1596408415121593,-0.039383981758563585,0.056566203469837976,-0.021229233294610197,5.0
0.5115101438084839,-0.14170948053002705,0.15537440473945585,-0.05581470252656359,0.04645271790730124,-0.013543199138864176,5.0
0.5080721340453012,-0.1156317262427922,0.15537440473945585,-0.06378111167577916,0.04823745012010258,-0.006625766758159046,5.0
0.5149481535716661,-0.12541090549802322,0.14684153119404866,-0.08319923663383216,0.045857806565034964,-0.011237389126502356,5.0
0.5115101438084839,-0.11889145266120268,0.14684153119404866,-0.09564675130903004,0.05240182770196901,-0.016617613269886502,5.0
0.5183861633348489,-0.1286706033864096,0.16390724094383238,-0.10709846711786752,0.05299673904423527,-0.007394370876819531,5.0
0.5149481535716661,-0.12541090549802322,0.17670655126194304,-0.13099769456551416,0.0399086967703672,0.013357927437105711,5.0
0.5149481535716661,-0.13193032980481986,0.17670655126194304,-0.13000189266276502,0.02622574564847934,-0.006625766758159046,5.0
0.5011961145189363,-0.14170948053002705,0.1724401144892393,-0.12502288922179686,0.032769766105164334,0.009514909187422893,5.0
0.49432009499257135,-0.14822893336684762,0.18097295069361613,-0.10112366177415023,0.023251190864520297,0.022581170123125147,5.0
0.5011961145189363,-0.15148865978525813,0.1724401144892393,-0.08917404501393818,0.02503592370088327,-0.008931576770520868,5.0
0.504634124282119,-0.16778726334728558,0.16817367771653582,-0.07573072843599118,0.031579944327630526,-0.006625766758159046,5.0
0.5080721340453012,-0.17430668765408244,0.16817367771653582,-0.07174752082499469,0.01254279407309212,0.01412653038395639,5.0
0.5080721340453012,-0.18408583837928935,0.17670655126194304,-0.04037978290221553,0.03455449922496441,-0.028146665675315322,5.0
0.504634124282119,-0.17430668765408244,0.20230509721610296,-0.017974256031401042,0.036934142780032035,-0.05274198341073319,5.0
0.504634124282119,-0.16126781051046504,0.18523938746631952,-4.983240927734088e-05,0.06251531326450575,-0.03890711864932292,5.0
0.5080721340453012,-0.1156317262427922,0.16390724094383238,-0.020961658703259688,0.06430004729130455,-0.0296838739126363,5.0
0.4702540266502911,-0.10585257551758524,0.1724401144892393,-0.05481890062381447,0.05180691635970274,-0.0035513526271367234,5.0
0.49432009499257135,-0.10911230193599551,0.18950582423902299,-0.08867614406256362,0.05835093749663678,0.022581170123125147,5.0
0.5080721340453012,-0.15148865978525813,0.18523938746631952,-0.0961446522604046,0.05180691635970274,0.007977702121911732,5.0
0.5149481535716661,-0.16778726334728558,0.19377226101172648,-0.07174752082499469,0.05299673904423527,0.012589323318445223,5.0
0.49432009499257135,-0.17756641407249274,0.21510440753421356,-0.051831497951955824,0.054781471257036626,0.030267206329538325,5.0
0.5011961145189363,-0.19712471552290683,0.18097295069361613,-0.033409174564546916,0.044667985694499875,0.01720094510088362,5.0
0.5011961145189363,-0.18082614049090298,0.17670655126194304,-0.01598265222590279,0.04764253877783633,0.020275359231905946,5.0
0.5080721340453012,-0.18734556479769968,0.17670655126194304,-0.006024640789383369,0.04050360811263346,0.03795324282890396,5.0
0.5115101438084839,-0.18734556479769968,0.15110796796675208,0.0074186757885636384,0.05954076018116929,0.041796259906776954,5.0
0.5011961145189363,-0.17430668765408244,0.15110796796675208,0.008912378642687327,0.0506170936751702,0.05025090052480309,5.0
0.5011961145189363,-0.16778726334728558,0.18097295069361613,0.05720873752574388,0.036934142780032035,0.04333346814409793,5.0
0.5011961145189363,-0.16778726334728558,0.18950582423902299,0.06368144382083574,0.038718875899832104,0.027961395438319124,5.0
0.4908820852293886,-0.15148865978525813,0.22790368051129362,0.07712475736239403,0.0399086967703672,0.03334162046056065,5.0
0.49432009499257135,-0.15148865978525813,0.19803869778442987,0.07911636116789225,0.019681725191794345,0.038721845775754625,5.0
0.5080721340453012,-0.1351900562232304,0.17670655126194304,0.08409537068163789,0.020871546969328154,0.02719279190556354,5.0
0.5115101438084839,-0.14170948053002705,0.17670655126194304,0.06567304762633397,0.018491903414260533,0.03795324282890396,5.0
0.5183861633348489,-0.15148865978525813,0.20230509721610296,0.04476121981415728,0.023251190864520297,0.028729998971074706,5.0
0.49775810475575405,-0.14822893336684762,0.21937080696588665,0.040280117324563665,0.02741556742601315,0.021812566590369564,5.0
0.504634124282119,-0.14170948053002705,0.18097295069361613,0.0353011138835955,0.029200300319063545,0.03180441339504949,5.0
0.5080721340453012,-0.13844978264164068,0.15537440473945585,0.012397682265920536,0.04407307435223362,-0.004319956745797203,5.0
0.5149481535716661,-0.1286706033864096,0.1596408415121593,-0.030421770896373216,0.03633923143776577,0.038721845775754625,5.0
0.5183861633348489,-0.11889145266120268,0.15537440473945585,-0.047848291859153694,0.051212005017436474,0.03718463871024347,5.0
0.504634124282119,-0.13193032980481986,0.16817367771653582,-0.06776431625038692,0.028010478541529736,0.05255671053716491,5.0
0.49432009499257135,-0.15800808409205475,0.18097295069361613,-0.07722442825372614,0.005403862500890542,0.05409391877448589,5.0
0.49775810475575405,-0.17430668765408244,0.16390724094383238,-0.05432100119063428,0.0036191302880891813,0.011052116252934062,5.0
0.5011961145189363,-0.17104696123567195,0.17670655126194304,-0.04087768385359009,0.0071885947136919,0.013357927437105711,5.0
0.5115101438084839,-0.16778726334728558,0.17670655126194304,-0.031417572040025155,0.01254279407309212,0.021043963057613982,5.0
0.504634124282119,-0.13844978264164068,0.16817367771653582,-0.03390707518381646,-0.004114713533377376,0.04487067403779928,5.0
0.5115101438084839,-0.1286706033864096,0.19803869778442987,-0.03888608156628621,-0.0201773088905819,0.04333346814409793,5.0
0.5183861633348489,-0.12215117907961295,0.16817367771653582,-0.06228741185804418,-0.008874000643512611,0.0402590528412658,5.0
0.5011961145189363,-0.1351900562232304,0.18523938746631952,-0.06776431625038692,0.004214039816358012,0.035647431644732296,5.0
0.5011961145189363,-0.15148865978525813,0.17670655126194304,-0.04934199471327739,0.02503592370088327,0.0402590528412658,5.0
0.4908820852293886,-0.16778726334728558,0.16817367771653582,-0.03241337332600782,0.04050360811263346,-0.014311803257524678,5.0
0.5115101438084839,-0.15800808409205475,0.1596408415121593,-0.012995249554044151,0.03514940966023196,-0.05274198341073319,5.0
0.5183861633348489,-0.16126781051046504,0.17670655126194304,0.008414477691312764,0.060135667895440705,-0.03506409805602048,5.0
0.504634124282119,-0.13844978264164068,0.18523938746631952,0.006920774837189081,0.055971292127571716,-0.028146665675315322,5.0
0.504634124282119,-0.13844978264164068,0.18523938746631952,-0.007518342125312683,0.03336467654043188,-0.05812220755411737,5.0
0.5149481535716661,-0.1286706033864096,0.18523938746631952,-0.05133359700058127,0.03336467654043188,-0.001245542614774881,5.0
0.5080721340453012,-0.1351900562232304,0.21510440753421356,-0.05979790710117137,0.048832361462368856,-0.015080405032565542,5.0
0.5080721340453012,-0.1351900562232304,0.21510440753421356,-0.058304205765242055,0.04764253877783633,-0.002014144389815742,5.0
0.5080721340453012,-0.12541090549802322,0.21510440753421356,-0.06726641529901234,0.06430004729130455,-0.001245542614774881,5.0
0.5080721340453012,-0.11237202835440578,0.19803869778442987,-0.09116564881943644,0.04764253877783633,-0.03198968626861776,5.0
0.5080721340453012,-0.11237202835440578,0.19803869778442987,-0.13647459895785688,0.05240182770196901,-0.025072253887912642,5.0
0.5149481535716661,-0.10259284909917497,0.18097295069361613,-0.1738171520926167,0.07917281996397653,-0.01815482150720748,5.0
0.5149481535716661,-0.10259284909917497,0.15537440473945585,-0.20120168619988532,0.1047539931694464,-0.06119662402875931,5.0
0.5149481535716661,-0.10259284909917497,0.15537440473945585,-0.22908411518575092,0.11367765604745061,-0.06119662402875931,5.0
0.5115101438084839,-0.0960734247923781,0.1724401144892393,-0.24451902646002996,0.10832345396705426,-0.04736175926734904,5.0
0.5183861633348489,-0.08955398622056962,0.17670655126194304,-0.2599539620254188,0.10832345396705426,-0.04198153043672564,5.0
0.5183861633348489,-0.08955398622056962,0.17670655126194304,-0.26592877344191374,0.10118452511584883,-0.03583270217468095,5.0
0.5252621828612165,-0.11237202835440578,0.15110796796675208,-0.26343925046670846,0.0851219297586443,-0.013543199138864176,5.0
0.5183861633348489,-0.13193032980481986,0.15110796796675208,-0.23207152089399832,0.06846442305917352,0.022581170123125147,5.0
0.49432009499257135,-0.15148865978525813,0.1340422582169687,-0.17580875589811495,0.04347816300996735,-0.002014144389815742,5.0
0.49432009499257135,-0.18082614049090298,0.1596408415121593,-0.10162155665274733,0.007783506055958163,0.03487882752607181,5.0
0.49775810475575405,-0.19386501763452046,0.18097295069361613,-0.04137558480496466,-0.009468911985778889,0.04333346814409793,5.0
0.5011961145189363,-0.18082614049090298,0.16390724094383238,0.006920774837189081,-0.007684177958980084,0.03334162046056065,5.0
0.5080721340453012,-0.16778726334728558,0.16817367771653582,0.02135989331788519,-0.003519802191111119,0.039490449894415115,5.0
0.5115101438084839,-0.16452753692887534,0.16817367771653582,0.041773820178687346,0.0012394867330215603,0.06177995527385152,5.0
0.5011961145189363,-0.15148865978525813,0.17670655126194304,0.028330500564351633,0.0030242189458229277,0.07023459589187764,5.0
0.5115101438084839,-0.14496920694843732,0.18097295069361613,0.028330500564351633,-0.0011401586360435011,0.06408576528621336,5.0
0.504634124282119,-0.14496920694843732,0.20657153398880668,0.024347299026132592,0.004214039816358012,0.08944968479667209,5.0
0.49432009499257135,-0.13193032980481986,0.18950582423902299,0.02982420341847531,-0.0011401586360435011,0.08099504417864598,5.0
0.5011961145189363,-0.14496920694843732,0.19377226101172648,0.030820005321224447,-0.010658734670311403,0.08791247655935111,5.0
0.49775810475575405,-0.13844978264164068,0.21510440753421356,0.03181580722397356,-0.02910097176858612,0.07638342415392231,5.0
0.5149481535716661,-0.14496920694843732,0.22790368051129362,0.017376688743277427,-0.02612641868524967,0.08483806008470918,5.0
0.5149481535716661,-0.1156317262427922,0.18097295069361613,0.0029375702625813105,-0.02612641868524967,0.11020198193878752,5.0
0.5115101438084839,-0.12215117907961295,0.18523938746631952,-0.007518342125312683,-0.018987486206049366,0.09098689303399307,5.0
0.5080721340453012,-0.1286706033864096,0.18523938746631952,-0.01150154669992045,-0.0011401586360435011,0.09098689303399307,5.0
0.5080721340453012,-0.15148865978525813,0.19377226101172648,-0.013493150505418706,0.013732615850625934,0.08560666420336965,5.0
0.5080721340453012,-0.16778726334728558,0.20230509721610296,0.004431273116704998,-0.0017350681643123111,0.0802264400599855,5.0
0.5183861633348489,-0.17756641407249274,0.16817367771653582,0.02584100188025627,0.01432752628589348,0.0663915752985752,5.0
0.5080721340453012,-0.17430668765408244,0.17670655126194304,0.043267523032811055,0.005998773843156806,0.06869738765455669,5.0
0.49432009499257135,-0.18082614049090298,0.18523938746631952,0.06467724572358487,0.015517348970426007,0.06485436706125423,5.0
0.49775810475575405,-0.19060529121610997,0.20657153398880668,0.07563106058104775,0.017896992525493628,0.05793693702416872,5.0
0.5080721340453012,-0.16778726334728558,0.16817367771653582,0.07612896760519981,0.02860538943029664,0.05332531465582542,5.0
0.5080721340453012,-0.14822893336684762,0.1724401144892393,0.0641793447722103,0.04228834032543482,0.041796259906776954,5.0
0.5115101438084839,-0.15800808409205475,0.18950582423902299,0.06069404418536582,0.0535916485725041,0.026424188226331736,5.0
0.504634124282119,-0.14496920694843732,0.19803869778442987,0.025343100928881694,0.04347816300996735,0.011820719199784733,5.0
0.5115101438084839,-0.1351900562232304,0.1724401144892393,-0.005028838886634243,0.029795211207830453,0.01566373744946755,5.0
0.5115101438084839,-0.1286706033864096,0.15537440473945585,-0.039383981758563585,0.03336467654043188,0.018738152166394784,5.0
0.5149481535716661,-0.15148865978525813,0.18523938746631952,-0.04834619281052825,0.06489495863357081,0.02719279190556354,5.0
0.5149481535716661,-0.15148865978525813,0.16817367771653582,-0.04037978290221553,0.04347816300996735,0.019506755699150367,5.0
0.5183861633348489,-0.15148865978525813,0.16817367771653582,-0.028928068991121006,0.030390122096597357,0.007209098003251244,5.0
0.5183861633348489,-0.16126781051046504,0.16817367771653582,-0.01199944765129502,0.028010478541529736,-0.001245542614774881,5.0
0.504634124282119,-0.17430668765408244,0.1596408415121593,0.008414477691312764,0.03514940966023196,0.013357927437105711,5.0
0.49775810475575405,-0.18082614049090298,0.15537440473945585,0.01887038856101239,0.031579944327630526,0.004903287990889405,5.0
0.5183861633348489,-0.18082614049090298,0.15110796796675208,0.043765423984185606,0.038123964557565844,0.014895134502616874,5.0
0.5149481535716661,-0.17430668765408244,0.16390724094383238,0.05920034133124211,0.04109851945489973,0.0002916656225461008,5.0
0.5080721340453012,-0.15800808409205475,0.1596408415121593,0.08260167390029166,0.026820656537246246,0.007977702121911732,5.0
0.49432009499257135,-0.15800808409205475,0.1724401144892393,0.0970407832718216,0.0036191302880891813,0.021043963057613982,5.0
0.5011961145189363,-0.15800808409205475,0.16390724094383238,0.092559680782228,-0.007089266616713827,0.042564864025437445,5.0
0.504634124282119,-0.16126781051046504,0.15110796796675208,0.09504917946632334,-0.014823110438180388,0.059474142917870065,5.0
0.5149481535716661,-0.15800808409205475,0.17670655126194304,0.08409537068163789,-0.005304534403912463,0.04640788227512026,5.0
0.5080721340453012,-0.15148865978525813,0.1724401144892393,0.06119194513674039,-0.02612641868524967,0.08560666420336965,5.0
0.5080721340453012,-0.14496920694843732,0.17670655126194304,0.04227172113006192,-0.033860258878721364,0.09559851305871675,5.0
0.5149481535716661,-0.14822893336684762,0.1724401144892393,0.019368289512386953,-0.019582397548315623,0.08176364829730647,5.0
0.5080721340453012,-0.14822893336684762,0.16817367771653582,-0.007020442692132483,-0.033860258878721364,0.08330085653462743,5.0
0.5149481535716661,-0.14496920694843732,0.15110796796675208,-0.035400776994181524,-0.04278392538472044,0.08944968479667209,5.0
0.5115101438084839,-0.1547483576736445,0.15537440473945585,-0.034902876422355546,-0.0255315073429834,0.06408576528621336,5.0
0.5183861633348489,-0.16126781051046504,0.14684153119404866,-0.052329397385136034,0.007783506055958163,0.05716833290550821,5.0
0.5183861633348489,-0.16778726334728558,0.16817367771653582,-0.04834619281052825,0.018491903414260533,0.0402590528412658,5.0
0.5149481535716661,-0.18082614049090298,0.13830869498967213,-0.05133359700058127,0.056566203469837976,0.012589323318445223,5.0
0.49775810475575405,-0.18734556479769968,0.13830869498967213,-0.05382310023925971,0.07798299727944401,-0.001245542614774881,5.0
0.5011961145189363,-0.20364416835972737,0.14684153119404866,-0.0423713859486166,0.0851219297586443,-0.060428019910098836,5.0
0.49775810475575405,-0.19712471552290683,0.16390724094383238,-0.0015435352634010292,0.11605730141651568,-0.06811405172222522,5.0
0.49775810475575405,-0.21016359266652407,0.16817367771653582,0.012397682265920536,0.11605730141651568,-0.04966756693609125,5.0
0.504634124282119,-0.19712471552290683,0.16390724094383238,0.02584100188025627,0.09107103955331206,-0.06657684348490424,5.0
0.5080721340453012,-0.18408583837928935,0.14684153119404866,0.04227172113006192,0.10118452511584883,-0.07580009290883012,5.0
0.5115101438084839,-0.16778726334728558,0.16390724094383238,0.05073603123065202,0.10356417048491388,-0.07426288467150913,5.0
0.5080721340453012,-0.14822893336684762,0.18523938746631952,0.05870244037986757,0.09939979108905003,-0.0819489164836355,5.0
0.5080721340453012,-0.13844978264164068,0.18523938746631952,0.03779061256769084,0.11903185087185726,-0.02660946212523362,5.0
0.49432009499257135,-0.1351900562232304,0.22790368051129362,-4.983240927734088e-05,0.07560335553837381,-0.00047693849611439663,5.0
0.5080721340453012,-0.14170948053002705,0.20657153398880668,-0.013493150505418706,0.038718875899832104,0.029498602796782743,5.0
0.5011961145189363,-0.1351900562232304,0.19377226101172648,-0.025442764988339205,0.028010478541529736,0.03718463871024347,5.0
0.4874440754662031,-0.14170948053002705,0.20657153398880668,-0.020463758510982307,0.004808951158624272,0.0625485570488924,5.0
0.5011961145189363,-0.14822893336684762,0.19377226101172648,-0.01249734860266958,-0.014823110438180388,0.07330900767928034,5.0
0.5011961145189363,-0.1547483576736445,0.18523938746631952,-0.01598265222590279,-0.027316237741787337,0.05178810641850443,5.0
0.5080721340453012,-0.15148865978525813,0.21083797076151017,-0.012995249554044151,-0.0255315073429834,0.0802264400599855,5.0
0.5080721340453012,-0.15148865978525813,0.21083797076151017,-0.011003647266740269,-0.027316237741787337,0.07792062770400401,5.0
0.5115101438084839,-0.1286706033864096,0.16390724094383238,-0.009509944412616565,-0.0201773088905819,0.09790432541469823,5.0
0.5080721340453012,-0.1156317262427922,0.15537440473945585,-0.0055267398380088005,-0.028506060426319844,0.11173919017610849,5.0
0.5080721340453012,-0.1156317262427922,0.15537440473945585,-0.021957460606008814,-0.01720275217925058,0.10635896134548507,5.0
0.49432009499257135,-0.11889145266120268,0.21083797076151017,-0.011003647266740269,-0.003519802191111119,0.09098689303399307,5.0
0.5080721340453012,-0.11889145266120268,0.20230509721610296,-0.019467957367330365,-0.041594102700187915,0.09713572129603772,5.0
0.5080721340453012,-0.11889145266120268,0.20230509721610296,-0.04037978290221553,-0.036239904247786406,0.09713572129603772,5.0
0.5115101438084839,-0.1156317262427922,0.21083797076151017,-0.07573072843599118,-0.0255315073429834,0.12249963846287683,5.0
0.5183861633348489,-0.10585257551758524,0.1724401144892393,-0.10709846711786752,-0.032075528479917445,0.12249963846287683,5.0
0.5183861633348489,-0.10585257551758524,0.1724401144892393,-0.11606067816983219,-0.027911149084053587,0.13249148263098465,5.0
0.504634124282119,-0.11889145266120268,0.12977582144426497,-0.13498090217651065,-0.024341684658450866,0.12941707553082124,5.0
0.5080721340453012,-0.15800808409205475,0.16817367771653582,-0.13896410978750715,-0.016607840836984307,0.0902182889153326,5.0
0.5080721340453012,-0.15800808409205475,0.16817367771653582,-0.12651659207592056,0.006593685185423069,0.09406130482139578,5.0
0.49775810475575405,-0.16778726334728558,0.18523938746631952,-0.09863415701727742,-0.010658734670311403,0.06408576528621336,5.0
0.5080721340453012,-0.17430668765408244,0.18523938746631952,-0.08718244120843993,-0.040999191357921655,0.06869738765455669,5.0
0.49432009499257135,-0.16778726334728558,0.16817367771653582,-0.07573072843599118,-0.02612641868524967,0.042564864025437445,5.0
