acc_x,acc_y,acc_z,gyro_x,gyro_y,gyro_z,activity
-0.9577194051379068,0.43388191488268474,2.0438869856763713,0.22496963786335916,-3.358490784880141,4.832835373192047,0.0
-1.1807503492360019,0.5168654876516035,2.561482096202454,0.6219503872620575,-2.7924454376835697,4.701624735161393,0.0
-1.1706126166922237,0.5605410180644986,2.5487803484179627,0.16978650411463472,1.2041265770352954,3.743618606250848,0.0
-1.1706126166922237,0.5605410180644986,2.5487803484179627,0.16978650411463472,1.2041265770352954,3.743618606250848,0.0
-0.9948912488717554,0.350898380339894,1.986729342984551,0.4575271320523885,-0.21587995908815008,3.891651095700089,0.0
-0.940823144796611,0.41204413056317307,1.9232206040620903,0.7475201894214851,-0.8512533753683025,4.312198037717017,0.0
-0.940823144796611,0.41204413056317307,1.9232206040620903,1.0189311366607559,-1.4287172887382529,4.54518115586481,0.0
-1.0117875092130513,0.4382494793918127,1.9517995365771976,1.2497993980591953,1.222885979739937,3.595586116801603,0.0
-1.2145429290710916,0.49502770333209173,1.8978173308315005,1.1326759246827185,1.7310216449621016,3.502224398255713,0.0
-1.3192998733226216,0.3727361646594057,1.9390977887927054,0.5780291259533789,2.1013162324825734,2.9311218368009926,0.0
-1.3192998733226216,0.3727361646594057,1.9390977887927054,0.06110951061527584,0.38442146465298926,2.6838399972231572,0.0
-1.265231769247477,0.10194772415059615,2.1073957245988315,-0.10443990951766852,-0.12126722853072434,2.7999110346322973,0.0
-1.265231769247477,0.10194772415059615,2.1073957245988315,-0.36571518014579396,0.7979443396296604,2.4533803373399956,0.0
-1.2618525053487184,0.014596619723128349,2.129623560883299,-0.5926417793223007,1.271823590074871,2.0858220795673925,0.0
-1.2584732414499598,-0.020343824078621835,2.139149871721668,-0.8004231816148959,1.4773616808161398,1.6577052551706903,0.0
-1.285507293487532,-0.12516514771919013,2.221711009982472,-0.5554776140059827,1.4732834736694789,1.5626616141038094,0.0
-1.3733679773977663,-0.10769492790880641,2.529727949079618,-0.8955859144503662,0.1927491409278115,0.7047457145133293,0.0
-1.4544701630867314,-0.16010559689648957,2.599587339555931,-1.1191339656306925,-0.2925489044950394,0.44568873487361976,0.0
-1.5423308469969657,-0.2474566959484081,2.4916227057261424,-1.0707079004026618,-0.19956742894184626,0.20513583693232113,0.0
-1.6065367131921373,-0.2649269157587918,2.269342564174319,-0.7762101490008806,0.1731741007730424,-0.0926114543150095,0.0
-1.5254345570794208,-0.21688380172370456,2.145500745613914,-0.75312334483837,-0.2778676094569455,-0.37606016775308754,0.0
-1.4308153453716692,-0.15573803238736159,2.0311852378918793,-1.012146218657757,-0.49319313074349663,-0.19101947387251075,0.0
-1.4308153453716692,-0.15573803238736159,2.0311852378918793,-0.9434488654526444,-0.3529052799635793,0.01757185918377932,0.0
-1.4240568767266497,-0.14700292248216973,1.9486240996310744,-0.5864477426123587,0.5622281606342349,0.0798128227903985,0.0
-1.4375738731691865,-0.23435402153408827,2.069290481245355,-0.2863190275188876,0.7718442595619376,0.12691408960086925,0.0
-1.4713664530042765,-0.27802959017311163,2.2566408163898255,-0.08923639374246084,0.2253742310644532,0.393540909303518,0.0
-1.4713664530042765,-0.27802959017311163,2.2566408163898255,0.1709126776228059,0.10873956789789802,0.38512996307696756,0.0
-1.5896404232745929,-0.22125136623283254,2.48844726878002,-0.11176012231125038,-0.580465203833864,0.3657847970145293,0.0
-1.6132952114134063,-0.23435402153408827,2.529727949079618,-0.3927436465302372,-0.5453932510868961,0.41372715972998375,0.0
-1.59977818539462,-0.25182424134447196,2.4820963948877717,-0.46988743840496777,-0.10169218837595521,0.42213810595653395,0.0
-1.5659856351357793,-0.2736620256639837,2.361430013273492,-0.3561425954396717,0.22863672117689585,0.4112038861206463,0.0
-1.5355723191994481,-0.24308913143928013,2.218535795374743,-0.09599351033857165,0.23108361363125612,0.3388697896068234,0.0
-1.5659856351357793,-0.23872158604321622,2.0978694137604625,-0.04531512213190716,-0.3659553199974405,0.4086805919940533,0.0
-1.5659856351357793,-0.23872158604321622,2.0978694137604625,-0.0025200343313997223,-1.3805953357494691,0.544096754431121,0.0
-1.4815042151243039,-0.15573803238736159,2.142325308667791,0.2553766797156494,-1.2851669279498703,0.39774637215816566,0.0
-1.4308153453716692,-0.09022470809842267,2.1359744347755445,0.5391756729031374,-0.4312054803747014,0.3413930837334162,0.0
-1.3699887134990074,-0.07712204324063492,2.1645533672906523,0.7829950670038794,0.41133716227481665,0.39774637215816566,0.0
-1.339575456715174,-0.13826781257697787,2.177255115075144,0.9018077731709462,0.45211851748461024,0.43054905218308426,0.0
-1.4071605572328558,-0.12953270267178604,2.2153603584286206,0.7903152772219925,-0.14247354358574882,0.563441899976304,0.0
-1.3936435607903188,-0.10332737295621047,2.339201954650631,0.7193655220572039,-0.11474221846180505,0.5567131429950636,0.0
-1.3497131892589527,-0.06838693333544303,2.428114189142074,0.6225134465444763,0.12342085298798053,0.5802637924294048,0.0
-1.3530924531577113,-0.0596518234302512,2.4439911515342962,0.5132734074985322,0.16583345325399546,0.609702073446448,0.0
-1.3497131892589527,-0.07712204324063492,2.332851080758385,0.3786941073870679,0.050014426449504205,0.8342741838159284,0.0
-1.3598509809552288,-0.03781404388900553,2.189956862859636,0.1568353439406652,-0.2778676094569455,0.9797834612076014,0.0
-1.3463339253601936,0.014596619723128349,2.0565887334608632,-0.022228297365646563,-0.6334809815234138,0.9764191237514919,0.0
-1.299024349082567,0.058272172235503863,2.0343606748380023,-0.07009122089625794,-1.0943101919347633,0.9293178248828096,0.0
-1.285507293487532,0.053904617282907956,2.0343606748380023,-0.17144800761146195,-1.4833641821598766,0.9612793589919353,0.0
-1.2111636651723328,0.03206684072807856,2.0311852378918793,-0.008150963683505937,-1.108175889314775,0.8527782860315948,0.0
-1.2213014568686094,0.04080195123055367,2.0470624226224943,0.1709126776228059,-0.8145501477210794,0.7728743276552492,0.0
-1.2077844012735743,0.11505039378664993,2.101044850706586,0.1827376368169372,-0.8055782352497884,0.5474611329217413,0.0
-1.1706126166922237,0.13688816854962957,2.189956862859636,0.14163183675035343,-0.7060717794717102,0.45073530260954997,0.0
-1.150337033299671,0.11505039378664993,2.218535795374743,0.12868070404805076,-0.0592795881099403,0.32877667465221827,0.0
-1.150337033299671,0.09321261424540432,2.2280618838747186,0.10390458467994994,0.8134412721178816,0.2068180261776312,0.0
-1.1875088770335194,0.06263972718809982,2.158202493398406,-0.02391757823165344,0.8444350575102341,0.17906192414727023,0.0
-1.1908881409322782,0.027699285476841008,2.081992229029847,-0.15455520925326824,0.3778964645320815,0.21018240466825136,0.0
-1.2213014568686094,0.04953706233031203,2.0978694137604625,-0.22944661290415624,-0.051123313088777045,0.13111956014948753,0.0
-1.2111636651723328,0.005861509220653242,2.1073957245988315,-0.28012500454477907,-0.1596017111821803,0.16224004195279712,0.0
-1.1908881409322782,-0.0290789339838137,2.113746598491078,-0.28125119178878366,-0.032363895462118555,0.19924817970304967,0.0
-1.1908881409322782,-0.07712204324063492,2.1359744347755445,-0.2716786070826614,0.1642021982497628,0.16812769918206855,0.0
-1.1266822451608576,-0.11643003781399823,2.1486761825600373,-0.3094058454172315,-0.14247354358574882,0.2572836727610506,0.0
-1.2213014568686094,-0.09022470809842267,2.1105711615449545,-0.23676682312226935,-0.5584432911207573,0.19420161709643327,0.0
-1.2179221929698503,-0.06401937838284712,2.1073957245988315,-0.16638016844739967,-0.17917675133694944,0.2581247673837056,0.0
-1.2010259326285546,-0.046549153794197405,2.1105711615449545,-0.17482656590951737,0.3371151093222879,0.23373303358533715,0.0
-1.1706126166922237,-0.09895981800361453,2.1105711615449545,-0.18102058888362588,0.33059010920137977,0.14373597051301393,0.0
-1.1807503492360019,-0.09895981800361453,2.116921813098806,-0.14948737008920596,0.23842425120229171,0.08654157464232498,0.0
-1.1875088770335194,-0.09022470809842267,2.113746598491078,-0.1072553759107008,0.4757717050979723,0.07308407093847202,0.0
-1.2213014568686094,0.005861509220653242,2.09469397681434,-0.14385643730314138,0.6152438985317393,0.07560735224178022,0.0
-1.2348184533111464,-0.007241156831701044,2.12009725004493,-0.04475202850990487,1.1086982488197874,-0.05055675395814055,0.0
-1.2618525053487184,-0.0028736018791051185,2.129623560883299,0.02507153254296252,1.188629644547074,-0.10270458978686997,0.0
-1.2517147728049403,-0.015976266736892914,2.196307736751882,-0.03743181142387507,0.7400348168234351,-0.2482138671785428,0.0
-1.271990297044995,-0.01160871178429696,2.2248864469285956,-0.20579669451589336,0.38768397466145454,-0.1590578987288746,0.0
-1.2753695609437536,0.014596619723128349,2.2407636316592106,-0.1680694458794482,0.5369437379126628,-0.18092633840065037,0.0
-1.3024036129813257,0.005861509220653242,2.1931322998057596,-0.0774114345483294,0.4561966450471806,-0.20111258882711586,0.0
-1.271990297044995,0.010229064173249168,2.123272686991053,-0.07853762179233398,-0.058463960607823995,-0.25157824566916304,0.0
-1.271990297044995,-0.007241156831701044,2.12009725004493,-0.10894465591821809,-0.3414865148299735,-0.10522786339620743,0.0
-1.265231769247477,0.001493953073490807,2.1518516195061603,-0.10838156315470539,-0.3382240048215081,0.024300616165019665,0.0
-1.2787488248425123,0.010229064173249168,2.18360598896739,-0.08979948393050478,-0.1840705163496474,0.10672783276276135,0.0
-1.271990297044995,0.005861509220653242,2.1518516195061603,-0.1359731317460468,-0.19793617393761356,0.0840182933390168,0.0
-1.2686110331462364,0.005861509220653242,2.113746598491078,-0.19284554807775733,-0.10658595338865318,0.10420455017712468,0.0
-1.2753695609437536,-0.007241156831701044,2.142325308667791,-0.17651584677552423,-0.008710712822762146,0.04112249835949275,0.0
-1.2787488248425123,0.001493953073490807,2.1359744347755445,-0.09036257755250707,0.04593629158136309,-0.017754084191849328,0.0
-1.2686110331462364,0.001493953073490807,2.161377930344529,-0.07572215368232252,0.40562779960403655,-0.13298397568519604,0.0
-1.285507293487532,-0.0028736018791051185,2.174079678129021,-0.12358508027130305,0.6070876434065988,-0.14560038476639398,0.0
-1.285507293487532,-0.0028736018791051185,2.174079678129021,-0.25985364788852994,0.40562779960403655,-0.10438677903218005,0.0
-1.299024349082567,-0.01160871178429696,2.199483173698005,-0.23113589377016314,0.2620774388156539,-0.05812660556203588,0.0
-1.3057828768800845,-0.01160871178429696,2.2153603584286206,-0.1365362253680491,0.620953300994565,-0.08756488657907928,0.0
-1.3125414046776018,0.010229064173249168,2.2026586106441286,-0.043062747643898,0.8012068894301709,-0.16578663519285963,0.0
-1.3260584011201393,0.005861509220653242,2.167728804236775,-0.028985413961757377,0.16664908075611176,-0.12625521870395576,0.0
-1.3024036129813257,0.005861509220653242,2.174079678129021,-0.0802268992243825,0.033701887443252775,-0.14223600627577382,0.0
-1.315920609423863,-0.007241156831701044,2.2026586106441286,-0.15455520925326824,0.1079239403957817,-0.08924707582438936,0.0
-1.3125414046776018,-0.024711379031217756,2.177255115075144,-0.1866515251036488,-0.2631863343148743,-0.031211598154329927,0.0
-1.3091621407788432,-0.04218159884160145,2.174079678129021,-0.21874784095402938,-0.44670237307087735,0.08822376388763506,0.0
-1.2956450851838084,-0.03781404388900553,2.158202493398406,-0.19735029705377566,-0.19793617393761356,0.1580345688395219,0.0
-1.3024036129813257,-0.0290789339838137,2.1359744347755445,-0.19397173532176193,0.18214599334831066,0.15130581698759543,0.0
-1.3192998733226216,-0.03781404388900553,2.1645533672906523,-0.23901919074236183,0.27838996896195767,0.1714920776726887,0.0
-1.342954661461435,-0.015976266736892914,2.174079678129021,-0.2705524198386568,0.3917621022240249,0.17233316716602992,0.0
-1.3497131892589527,-0.007241156831701044,2.167728804236775,-0.3595211434358521,0.42194030985431746,0.16812769918206855,0.0
-1.342954661461435,-0.0290789339838137,2.170904241182898,-0.3595211434358521,0.4039965247037811,0.08317719871636173,0.0
-1.342954661461435,-0.0290789339838137,2.170904241182898,-0.3043380096871276,0.49208425514029885,0.0840182933390168,0.0
-1.3497131892589527,-0.04218159884160145,2.1931322998057596,-0.28012500454477907,0.41949345719200276,0.06719641114454367,0.0
-1.3598509809552288,-0.046549153794197405,2.189956862859636,-0.24633941469630832,0.3746339545236161,-0.08756488657907928,0.0
-1.3598509809552288,-0.046549153794197405,2.189956862859636,-0.14779808922319906,0.37708082708195373,-0.14139492191174644,0.0
-1.3497131892589527,-0.0596518234302512,2.205834047590251,-0.20016576516378712,0.21884921104752258,0.0032732608572713334,0.0
-1.3497131892589527,-0.06838693333544303,2.2026586106441286,-0.2643583968645483,0.051645680365673116,-0.008502053601271556,0.0
-1.3598509809552288,-0.09895981800361453,2.189956862859636,-0.3009594479551138,0.07203635517269172,-0.053080037826105646,0.0
-1.3733679773977663,-0.08585715314582673,2.1804305520212677,-0.43441256082257357,0.09324265530569917,0.04785125021141926,0.0
-1.3699887134990074,-0.05528426369938924,2.174079678129021,-0.6343106386713032,-0.5005337683145321,0.3136369714444276,0.0
-1.4004020294353383,-0.09022470809842267,2.1804305520212677,-0.6303690039210375,-1.1212258497645455,-0.18344961200998788,0.0
-1.3733679773977663,-0.06401937838284712,2.2248864469285956,-0.27449406832475615,-0.0739608732000228,-0.35419172808131166,0.0
-1.282128088741271,-0.14263537708610588,2.196307736751882,-0.24746558820447953,-0.3243583472335419,-0.41306829011539853,0.0
-1.2381977172099052,-0.2081486918185127,2.139149871721668,-0.1967872034317734,-0.5926996263136205,-0.35587389680936643,0.0
-1.2381977172099052,-0.21251625632764073,2.1073957245988315,-0.019412829255635103,-0.6497934917736949,-0.37606016775308754,0.0
-1.2145429290710916,-0.20378114642244882,2.0756413551376016,0.03182865600699002,-1.671774105304714,-0.3340054571375909,0.0
-1.1908881409322782,-0.3129700106808151,2.037536111784125,-0.041373466777891124,-3.211677874291247,-0.5568953987790166,0.0
-1.2314391894123875,-0.06838693333544303,2.0756413551376016,0.1331854530240692,-3.1007526135875185,-1.2894883329560556,0.0
-1.1875088770335194,-0.12079759276659417,2.161377930344529,0.20188280622918175,-0.7134123772507005,-1.4417263673289689,0.0
-0.9577194051379068,-0.024711379031217756,2.1804305520212677,-0.5808167926565023,-0.9532067236007413,-1.2499569164671518,0.0
-1.018546037010569,-0.33480779500032676,1.989904779930674,-1.5369491172322254,-2.130156502845794,-1.3979894879854176,0.0
-1.1266822451608576,-0.40032114795886153,1.6406073828723233,-2.2779797468822394,-1.3879358539443687,-0.6393226102474444,0.0
-1.1030274570220442,-0.15137048699129774,1.6310810720339544,-3.1333184436099697,0.042673783749025265,-0.9850122642102294,0.0
-1.1266822451608576,-0.2867647000783035,1.8501857766396548,-3.3168869781185504,0.5124748929531504,-0.8857631602887007,0.0
-1.0523386168456585,-0.2649269157587918,2.186781425913513,-3.310692886465275,0.7302473265900844,-1.114540733512829,0.0
-0.7988942976587344,-0.4352615875796292,2.466219210157158,-1.9305512911630767,1.2057578121435055,-2.2853437096274516,0.0
-0.8022735615574935,-0.46146689818214065,2.3804826349502304,-1.4327768864447183,1.6886090546440982,-3.1087746989131917,0.0
-0.893513568518984,-0.5357153419328033,2.0756413551376016,-1.9654630545197187,-0.1840705163496474,-3.424184987494906,0.0
-0.7955151520649715,-0.8676495183300936,1.9740275952000588,-2.9035764106630357,-4.913891168018535,-3.4586697336616044,0.0
-0.5522086245743238,-1.2214214790468956,1.7580983275404813,-3.404166441453489,-8.921882226415322,-3.818658273192471,0.0
-0.5251745133842538,-1.2563619951199196,1.859712087478024,-3.803962487264281,-10.783142733835122,-4.220701277131769,0.0
-0.5285537772830127,-1.1034975431094662,1.8216069552937446,-4.6215737945632736,-12.334465864835943,-4.6883492718103135,0.0
-0.24469620131225567,-0.9593682201172685,1.5199410012580425,-6.642515753138247,-12.885829538969988,-4.711900126417206,0.0
-0.17711115994707205,-0.9593682201172685,1.3548186135672362,-6.906606380272738,-10.192628780431312,-4.492374358093848,0.0
-0.24807546521101434,-1.308772692777199,1.592975939849675,-5.274762121369265,-5.418764363024278,-2.424965273367401,0.0
-0.2278000001234577,-1.5839286452342105,1.6342565089800773,-3.965570171345189,-6.7767834676351795,-0.4534408320028403,0.0
-0.1602148404532782,-1.7455280733584069,1.4183272413204997,-3.850699484531722,-7.335487978300488,0.42297919032056136,0.0
0.05605757584729935,-1.2476268661016638,1.0118722015703292,-3.8698443792272994,-9.817440726338482,-0.7310018317891946,0.0
-0.34269473607126394,-0.5750233460626987,0.49110165409812323,-5.606987317143117,-14.973834671042331,-3.752211582571542,0.0
-0.5488293606755652,-0.9681033491355245,0.8245218108412603,-4.9768857395563035,-5.5109303801915495,-0.25746587725186515,0.0
0.9448020883409215,-1.8547170331820937,0.7832412417108581,-4.146323189668341,-3.3487032150627005,-0.7444593457516753,0.0
1.6274119762302404,-1.6931174521533843,0.18626034649319603,-3.926716883124947,-3.537928715969597,-1.6822792037185015,0.0
0.5933593526999842,-1.5708259517068266,-0.1566861210883099,-4.060732904180658,-1.6815616751221552,-2.2903902978806374,0.0
0.258812936552842,-1.4572694273740119,-0.001090033813760593,-4.474606530918594,-2.796523644830231,-2.191982319357646,0.0
0.6170141999912958,-1.6232365729118492,-0.06142320898773267,-4.603555018432536,-3.568106684847619,-2.274409489791564,0.0
0.8603207274819445,-1.5358854356338023,-0.15351068414218688,-4.829918475911623,-5.384508186999598,-2.7740194289243374,0.0
0.8603207274819445,-1.5358854356338023,-0.15351068414218688,-3.6874021830568915,-4.249970759320277,-1.016973798319355,0.0
0.01888579126594887,-0.5531855617431869,-0.023318046405626108,-3.3315273985547766,-3.3756188728924825,0.188313954737848,0.0
0.05267831194854069,-0.6449041870781053,-0.20749300105708132,-3.260014474220902,-2.942520977657065,0.5785815826668395,0.0
0.18446936739014075,-0.62743400549385,-0.33451020097900974,-3.501018352136216,-2.4180728021846183,0.12439080829756105,0.0
0.6237727277888121,-0.8851197763666055,-0.5313868747541484,-4.136187683038134,-2.121184510790412,-0.8563248382371466,0.0
0.5866008249024673,-0.8851197763666055,-0.6044217577611823,-4.475169590201013,-1.962137297097899,-1.4989207606350008,0.0
0.2452958809578068,-0.12953270267178604,-0.6075971947073053,-4.301173722813554,-1.527408087170181,-4.0028575954674475,0.0
-0.03518231280919572,0.18056371807558885,-0.5155097456081317,-3.874912352315737,-0.6791560420578373,-3.970054935959782,0.0
0.12364285382247445,-0.024711379031217756,-0.5345623117002714,-3.113610269858641,-0.7468531346815037,-4.701806949910837,0.0
0.30612263113546456,-0.9681033491355245,-0.6901583885527085,-2.0865281626464616,-0.6139059214726221,-4.105471118914105,0.0
0.30612263113546456,-0.9681033491355245,-0.6901583885527085,-1.034669963537849,0.25881492880718854,-1.4240633084428194,0.0
0.02564431906346619,-0.8720170828392216,-0.4583519917471144,-0.4321601863345643,-0.024207625414960972,0.45241749185486013,0.0
0.01888579126594887,-0.25182424134447196,-0.32180848098681686,-0.3003963612010282,-0.13757977857305087,-0.09765802205093974,0.0
0.01888579126594887,-0.25182424134447196,-0.32180848098681686,-0.33587123878342257,-0.3912397427190125,-1.0329546064084285,0.0
0.2655714643503593,-0.33480779500032676,-0.3789662348478342,-0.3533271204617434,-0.4246804603577707,-3.147464990003559,0.0
0.5088779918410056,-0.8327090787093264,-0.4583519917471144,-0.6804843019396578,0.014942467329591456,-3.7732389789138017,0.0
0.44129295047582356,-0.8108713326159428,-0.328159354879063,-2.1034210399856974,0.7808161720332287,-1.9640457894630354,0.0
0.4041210475894767,-0.23435402153408827,-0.023318046405626108,-2.8624706655397842,0.8990821101000392,0.19588380121242954,0.0
0.5933593526999842,-0.22561891162889638,-0.3503873579173256,-2.576982247260039,1.471652158977178,-0.8504372066544446,0.0
1.0360419769974167,-0.47020202720039644,-0.6234743794379204,-3.2701502006244447,0.815888164572242,-0.49381333285577156,0.0
0.8873548386720144,-0.47020202720039644,-0.6838075146604622,-2.527993232636257,1.0206105183832697,-1.9918018607175134,0.0
1.3942432404358698,-0.13390025762438196,-0.9156139114660564,-0.3324926770514089,0.3803433370904189,1.0874434908384252,0.0
1.205004935325363,0.3552659448490222,-0.715561828537094,-0.33080338931748526,0.5679375630970606,1.6963955462610563,0.0
0.7555637832304135,0.14562327845482143,-0.6234743794379204,-0.46313031494094037,1.4602334336356175,0.9049260910844413,0.0
0.4311551587795473,0.09758016919800024,-0.6266497607994449,-0.5605454497360866,1.9104595760515573,-0.40045190155145594,0.0
0.37032840860188926,0.07574239443502061,-0.6615795116221996,-1.310585659753138,1.6877933177138569,0.0974757983251982,0.0
0.3939832558932007,0.11505039378664993,-0.6774566963528147,-0.36571518014579396,1.3705144680908898,0.5054064223062446,0.0
0.46494756115714325,-0.06838693333544303,-0.7758950193442345,-0.27674644281276534,1.9373752338813393,0.24803163191184513,0.0
0.47846461675217816,0.010229064173249168,-0.718737265483217,-0.3313664898074043,1.215545381960947,-0.5089530155463069,0.0
0.5528084225248708,0.07137483948242467,-0.5726674994691491,-1.2497715211052236,0.9871698405365569,0.0167307645611243,0.0
0.4987402001447307,0.001493953073490807,-0.5250360008619022,-1.1641813455042087,0.9186571701508311,-0.3037260507220094,0.0
0.5730837693074332,0.20676905734769646,-0.5091588717158858,-1.434466174178642,0.053276934437279704,-0.3155013959564353,0.0
0.4277758948807884,0.3465308158307661,-0.3503873579173256,-1.0082045839074911,0.784894299595799,0.10756892674425216,0.0
0.4750853528534195,0.2810174819852952,-0.3503873579173256,-1.066766265652396,1.2033109196891454,-0.7705332482780988,0.0
0.4007417836907183,-0.06401937838284712,-0.3789662348478342,-1.2069764882480498,2.611898630990917,-1.8681611050666374,0.0
0.353432089108096,0.07137483948242467,-0.47422914868543026,-0.9834284920110571,2.0042565895747644,-3.0818596709882304,0.0
0.5156365196385256,0.018964174974365904,-0.5155097456081317,-1.2182383332164288,1.4798084141023187,-3.179426606181705,0.0
0.512257255739767,0.24170949696846386,-0.42342224092435965,-1.1726277841738266,1.2261485295404477,-2.903547652019875,0.0
0.45143074217209955,0.3334281605295104,-0.3027559148946772,-1.2700429739123065,1.1967858996722145,-3.1340076401791204,0.0
0.37708693639940716,0.28538504649442314,-0.20431756411095825,-1.1557350167212581,3.197518958654189,-4.54620441394377,0.0
0.2452958809578068,0.49502770333209173,-0.15986154413828327,-1.2852464536309516,4.2863808482945425,-5.568133775210611,0.0
0.2993641033379467,0.8182267889372544,-0.20749300105708132,-1.6658974948595,3.576785538230043,-5.809527654929663,0.0
0.4176381031845124,1.1414258745424168,-0.21384386105317768,-0.9592154593970418,1.6910557879302768,-4.8145136498638665,0.0
0.4581892699696169,1.07591255981001,-0.16303698108440634,-0.1055660967616731,1.383564508124751,-3.4569876470025713,0.0
0.44129295047582356,1.2287770118204637,0.28152326033079195,-1.0014474329717968,3.100459156578198,-0.9639848678679706,0.0
0.4075003114882356,1.5912840251032656,0.09099744655174972,-1.0521258452161695,2.4251201817065615,-0.35923827529998664,0.0
0.6034971443962612,1.6174894121580334,0.056067709625144596,-0.04024727953388653,0.2653399488241191,0.18410848675388664,0.0
0.6981162969515147,1.3030254555711265,0.1164008865361354,-0.3189784301233538,-1.2590668478821478,0.42550248444715427,0.0
0.4311551587795473,1.1326907455241613,0.03383969963880713,-0.0498198642400088,-0.1677579663073209,1.0857613221103704,0.0
0.2655714643503593,1.3204956371553822,0.10052372959781954,0.48849726065876437,2.3435574712869744,1.7796639241625327,0.0
0.38722472809568337,1.2768200685163589,0.04654141963099996,0.2824051461000929,2.5743798255816337,1.3128567266064437,0.0
0.6879785052552397,1.0890151768851377,-0.10905466416951194,-0.20072885191787274,0.542653100583443,1.6795736948424662,0.0
0.6271519916875702,1.0584423017734983,0.10052372959781954,-0.5273229466417014,-0.9735974409976835,2.849535545558551,0.0
0.6271519916875702,1.023501862152731,0.12592716958220523,-0.7097651428121102,-2.0037343096538427,2.7023440994388235,0.0
-0.025044521112919466,0.595481457685266,-0.7346143946292336,0.02732390703097169,-9.12660434147408,2.6745880281843455,0.0
0.02902358296222512,0.7963890428438709,0.4148913341449663,0.6343384057386078,1.5295616817834032,2.2515176279027864,0.0
0.10336727042992194,1.3204956371553822,0.39583874026052746,-0.5695549202164565,-0.6889436118752785,2.0202167605520653,0.0
0.3939832558932007,0.8706374865945339,0.02113797617257688,0.26720163890978094,1.3142361803928746,2.507210229051876,0.0
0.2926055755404294,0.7876539138256149,0.10687458959391596,0.11854500511617609,1.9471628036987805,1.1395913779602929,0.0
0.4987402001447307,0.3945739107527893,-0.07412493071694423,-0.9057215859105741,1.3786707232160305,-0.3213890275391377,0.0
0.5866008249024673,0.350898380339894,-0.4551765548009912,-0.3724723036098214,0.13728651057594674,-2.1246947495452435,0.0
0.3804662002981655,0.6522596816255453,-0.6139480685995513,0.37306318490287843,1.3403362604605968,-4.9036694952100035,0.0
-0.07911262518806378,0.538703233744987,-0.12493181415975298,-0.29589161222500987,0.1707272182666934,-6.8802408120693235,0.0
-0.0926296807830987,-1.9377006059510122,-0.42977311481660563,-1.3128380067694803,-6.912177016209786,-2.303847811843118,0.0
1.0225249214023806,2.87534523850566,0.3386809863995101,-0.11288630869676537,1.0091917134576185,4.0237027770602625,0.0
0.6913577691539978,1.748516041622847,0.18943578343931902,0.9553015917140804,-0.6391903441941942,4.406400799592422,0.0
-0.5251745133842538,0.7789187848073592,0.110050026540039,1.4181642330757966,-2.223137938606942,8.215715503957233,0.0
0.03578211075974244,0.23734193245933588,-0.23607186409144035,1.0431441143314375,-1.9645841895522593,8.799435028459044,0.0
1.5395513514725039,0.9492534184020681,-0.09635294417731911,-0.9654094961069837,-1.0510819442706099,3.1237322489233064,0.0
1.1543159768439815,0.20676905734769646,-0.17891412412657254,-0.6275535426789425,-0.8202595103918597,1.9756388378789973,0.0
1.2252805187179139,0.03643439627795774,-0.27735247491029164,0.106720059657878,0.8631945397989664,0.42297919032056136,0.0
1.0123873663160958,0.38147125545153365,-0.2741770379641684,-0.02954850758375967,1.7342841151785215,-0.12793740794926584,0.0
0.6609446306751601,0.44698460841006854,-0.08682665070913707,0.045342889199211624,2.6543113804771017,-0.3928820602061884,0.0
0.4345344226783057,0.4906601388229638,-0.1979667041148618,0.106720059657878,2.4854765969671475,-0.41054499598880567,0.0
0.27570925604663554,0.5605410180644986,0.03701512963685535,0.2204648888873407,2.1347569899133765,0.07476625761912517,0.0
0.444672214374582,0.525600578443731,-0.07094950071889601,-0.05995554256813338,0.9969573307699077,0.4759681412892011,0.0
0.5021194640434894,0.32032548611519057,-0.13763353415194582,-0.3195415306132728,1.381933273016541,0.6618499195338052,0.0
0.3365360062242936,0.4513521346930683,0.05924313962319282,-1.1337743860669187,0.7343254541526548,0.5752172452107298,0.0
0.2385373531602892,0.47755748352170796,0.11957630958610878,-0.5678656599541997,1.0042979285488978,1.5635028215713687,0.0
0.2385373531602892,0.47755748352170796,0.11957630958610878,-0.5633609109781814,0.6576565286417883,1.036136811184117,0.0
0.6744616862701946,0.1194179487392459,0.30692670031517755,0.010994198860821904,0.4708779201892518,1.0882846162369633,0.0
0.6744616862701946,0.30722283081393487,0.09417286960172311,0.12417595507203251,0.1617553157434138,0.06467312727657855,0.0
0.6744616862701946,0.30722283081393487,0.09417286960172311,0.04590598968913066,-0.11229533595545611,0.03439374137825244,0.0
0.46832682505590223,0.3421632704347024,0.04971684962904818,0.04083815395902671,-0.4369148828375269,0.2867219640367216,0.0
0.36356988080437225,0.35963347113202193,0.03383969963880713,-0.06840194346420941,-0.08456402077952373,0.5743761198121918,0.0
0.36356988080437225,0.35963347113202193,0.03383969963880713,0.14106874999626784,0.2612618013655261,0.8981973341032011,0.0
0.46494756115714325,0.2810174819852952,0.0655939996192892,-0.08191618009038938,0.04919879949141975,0.7232497756944846,0.0
0.7150126164453096,0.38583881996066155,0.02113797617257688,-0.07178050176226482,0.04919879949141975,0.6820361904775261,0.0
0.7150126164453096,0.38583881996066155,0.02113797617257688,-0.4788969088853377,-0.37084906511411586,0.5197050206327526,0.0
0.5933593526999842,0.2242392771580802,0.1164008865361354,0.001984714644618617,0.0712207276705754,0.5693295725935168,0.0
0.6372897833838489,0.20676905734769646,0.1164008865361354,0.155709170432494,-0.03807328300292718,1.6677984316770615,0.0
0.6372897833838489,0.20676905734769646,0.1164008865361354,-0.12471126681778484,0.057355068839107785,0.9680081159731757,0.0
0.4852231445496955,0.29412015639961503,-0.02649347640367432,-0.25816436015460636,0.49534676514876425,0.5651241097388694,0.0
0.4987402001447307,0.19803394744250463,0.024313409644662498,-0.1607492356613351,0.5703844157593754,0.7770797905098965,0.0
0.6677031584726768,0.09758016919800024,-0.004265463811808799,-0.32911411531939505,0.5858813482475969,0.4204559167112239,0.0
0.562946214221149,0.16746105321780105,0.07512028961343385,-0.4687612374251298,-0.3936866351733729,0.22027552988148416,0.0
0.4987402001447307,0.17619616312299294,0.14497974957049445,-0.2649214836186339,-0.45567428554216843,0.8124057441441529,0.0
0.6508068389788825,0.1412557235022255,0.20531294037763498,0.15401988269857037,-0.025838880419193633,1.6080807442444367,0.0
0.562946214221149,0.23734193245933588,0.12275174653223181,0.04309051471120248,-0.025838880419193633,1.2388403998128004,0.0
0.5156365196385256,0.23734193245933588,-0.02649347640367432,-0.19903957791978255,-0.28276137446964356,1.8553624196842309,0.0
0.525774311334801,0.09758016919800024,-0.010616325544923928,-0.28237737903278826,-0.2925489044950394,2.2952545072463377,0.0
0.694737033052756,0.07574239443502061,0.03701512963685535,-0.3127844071492454,-0.5478401435412565,1.8217185527090083,0.0
0.5223950474360424,0.09321261424540432,0.02113797617257688,-0.3972483955062557,-0.4157085478864798,1.8705020203057452,0.0
0.562946214221149,-0.033446488936409606,0.06876942961733742,-0.10162444312463623,-0.4703555606842396,2.676270114843379,0.0
0.4852231445496955,0.03206684072807856,0.06241856962124102,0.06786662034347003,-0.4768805807011701,2.0235812621462177,0.0
0.4750853528534195,-0.06401937838284712,0.04971684962904818,0.06279878461336602,-0.5037962783229976,1.0874434908384252,0.0
0.48184388065093714,-0.2299864761380244,-0.08682665070913707,-0.321230804611363,-0.3953179100736283,0.9974464380247298,0.0
0.353432089108096,-0.13390025762438196,0.04654141963099996,0.01606204832675923,-0.01197322283122743,0.7266141541851049,0.0
0.5325328391323179,-0.13390025762438196,0.07194485961538565,0.20244592045493418,0.16338657074764645,0.6231595874089285,0.0
-0.021665257214160537,-0.3697482346210941,-0.15351068414218688,-0.11908033424634266,-0.5437620159786861,3.397087744820504,0.0
-1.5119175310606345,-0.8676495183300936,0.13227802957830165,0.6410955566743021,-1.4450297989885341,9.33184762709948,0.0
0.8535621996844273,0.3115903762099987,-0.3726153609555882,-1.4964064313913938,0.06714259264699661,3.2465321253827093,0.0
0.6339105194850903,-0.11643003781399823,0.11322544959001236,-0.3009594479551138,-0.38960850761080285,3.569512132206158,0.0
0.46494756115714325,-0.723520195337896,0.08782200960562668,0.29254081756030054,-0.3186489447707164,3.3550329521359847,0.0
0.5697047420186658,-0.8108713326159428,0.18308492344322258,0.17879600206667134,-2.6554200969121187,3.1708336298610105,0.0
0.7657015749266889,-0.9244277804965008,-0.2265455810453705,-0.6309321181467896,-2.006996779870263,1.310333432479851,0.0
0.7589430471291716,-0.9855735307197799,-0.20749300105708132,-0.1095077486817308,-0.2060924290627542,0.4044751291394058,0.0
0.7657015749266889,-0.976838401701524,-0.2678261779680722,0.21596013991132246,1.14377016177471,0.22616319224006945,0.0
0.5866008249024673,-0.8327090787093264,-0.05824777898968447,0.20075663272101055,0.6127970458694243,0.19420161709643327,0.0
0.5832215610037081,-0.8938549053848618,-0.21384386105317768,-0.272241693836747,0.23842425120229171,0.11850314946537903,0.0
0.444672214374582,-1.0117788413222912,-0.29005419490248424,-0.4051316924784543,0.4733248126436122,-0.08924707582438936,0.0
0.23177906197276335,-0.8545469012549662,-0.05507234899163626,-0.19903957791978255,0.6348189585825312,-0.6241829275569091,0.0
0.16081452009882932,-0.8327090787093264,-0.08047579071304065,-0.06277101067814485,0.47740294020618224,-0.9252945767776044,0.0
0.45143074217209955,-0.8108713326159428,-0.02014261553906855,0.16302938065060707,-0.4842212182722059,0.035234836000907495,0.0
0.4176381031845124,-0.8414442077275821,-0.1027038041734155,0.2666385521556953,0.2694180763866894,-0.8302509357107234,0.0
0.46832682505590223,-0.8239740261433269,-0.04872148812703049,0.02732390703097169,0.46027477260975097,-1.0800559052771104,0.0
0.30612263113546456,-0.7584606349586636,-0.16938784108050273,-0.34037597402360753,0.2221117210559879,-1.1608009069829728,0.0
0.4987402001447307,-0.723520195337896,-0.08365122071108884,-0.31334750763916436,0.2253742310644532,-0.5173639412556021,0.0
0.6778409501689528,-0.7191526308287681,-0.07730036071499242,-0.14273025005913678,0.34282451178511336,-0.6182952139051854,0.0
0.6744616862701946,-0.7191526308287681,-0.04872148812703049,-0.03011160120576196,0.5165530603077659,-0.6519389988113871,0.0
0.6677031584726768,-0.7584606349586636,-0.08047579071304065,-0.15511830287527054,0.5100280402908354,-0.8310920611092615,0.0
0.6271519916875702,-0.5924935658730824,-0.10905466416951194,-0.3184153433692682,0.5654906706427002,-0.6182952139051854,0.0
0.562946214221149,-0.5662882170444428,-0.042370627696679396,-0.2739309815706706,0.3664776795024527,-0.40297515464353817,0.0
0.5021194640434894,-0.5662882170444428,-0.05189691899358805,-0.3983745964860934,-0.13513288611869054,-0.16074008797418468,0.0
0.5054987279422475,-0.6580068806054893,-0.045546058128982284,-0.33418195104949894,-0.07477650070213915,-0.08335942372443174,0.0
0.5866008249024673,-0.6449041870781053,-0.004265463811808799,-0.1720110977995059,-0.18733302635811272,-0.1220497558493082,0.0
0.5021194640434894,-0.5968611303822103,0.0020853961842876322,-0.047567489751999634,-0.39205540006516293,0.08149501203570858,0.0
0.4987402001447307,-0.561920690761443,-0.08047579071304065,-0.285192840274883,-0.16938922131155354,0.2614891356156981,0.0
0.535912103031076,-0.6449041870781053,-0.10905466416951194,-0.38542343631212417,-0.011157595329111113,0.11093330299079751,0.0
0.6339105194850903,-0.6885797557171287,-0.04872148812703049,-0.27674644281276534,-0.09435154085690825,-0.019436273437159406,0.0
0.5494291586261122,-0.6143313501925941,-0.007440895546875699,-0.17876821782957505,-0.34556464239254386,0.04196358785283398,0.0
0.34329453402181065,-0.5750233460626987,0.11322544959001236,0.2756480226360652,-0.21424870408391739,0.17737973490196016,0.0
0.45143074217209955,-0.5226126866315475,-0.14715982414609047,0.41079040950161516,0.6307408310199609,0.29176853177265183,0.0
0.6271519916875702,-0.5968611303822103,-0.1566861210883099,0.20244592045493418,0.22292733861009287,0.1555112875362137,0.0
0.6508068389788825,-0.6318015700029779,0.0655939996192892,0.6292705974801706,0.705778481630572,0.26485351410631824,0.0
0.6034971443962612,-0.5750233460626987,-0.20431756411095825,0.2435517205215181,1.2840580523466727,0.2497138211571552,0.0
0.5156365196385256,-0.5357153419328033,-0.1820895610726956,-0.34206526175753116,1.0442637059966318,0.3077493193444699,0.0
0.48184388065093714,-0.6143313501925941,-0.02649347640367432,-0.5098670374917138,0.49453110780261383,0.28167539630079136,0.0
0.4987402001447307,-0.6667420096237452,0.1513306095665909,-0.3814817740901913,-0.3790053600313017,0.03691702524621759,0.0
0.4041210475894767,-0.7147851427718965,0.2021375034315118,0.16190320714243586,-1.5641113148174042,-0.26924122248629095,0.0
0.556187686423629,-0.7409904533744079,0.03701512963685535,0.38094645440341024,-1.9417465797009568,-0.44502986525903476,0.0
0.5730837693074332,-0.6055962211743383,-0.04872148812703049,0.28184205934600726,-1.4996768515783392,-0.3138191861938698,0.0
0.5730837693074332,-0.6055962211743383,-0.04872148812703049,0.07856539229359674,-0.5168463183568588,-0.09513474844160227,0.0
0.6034971443962612,-0.548817997234059,-0.26147531797197565,-0.019412829255635103,1.3705144680908898,0.10504564479977972,0.0
0.4717060889546606,-0.62743400549385,-0.042370627696679396,0.26438617766768613,1.1054356990192769,0.14962363030694228,0.0
0.4717060889546606,-0.62743400549385,-0.042370627696679396,0.20188280622918175,-0.1432891611398538,0.10168126887381648,0.0
0.45143074217209955,-0.5706557815535707,-0.001090033813760593,0.017188235570763818,-0.3855303800482325,-0.13971273266643633,0.0
0.48184388065093714,-0.47020202720039644,-0.08047579071304065,-0.18496224423764193,-1.0690257692131915,-0.27849323255961367,0.0
0.5291535752335592,-0.40032114795886153,-0.10587923417146373,-0.5093039507376282,-1.3455232636263654,-0.471944893183996,0.0
0.5291535752335592,-0.40032114795886153,-0.10587923417146373,-0.8646157858439901,-1.1726103525538403,-0.31718356468449005,0.0
0.8805963108744954,-0.6449041870781053,-0.2837033210102383,-0.6585236712853186,0.8884789625205385,0.13280174811246914,0.0
0.8299073523931161,-0.7628281994677916,-0.34403651181737865,-0.5160610742016556,3.3443318692430837,0.16139894733014207,0.0
0.8299073523931161,-0.7628281994677916,-0.34403651181737865,-0.42033522714043287,2.8851335756035796,0.08990595056828822,0.0
0.4041210475894767,-0.5400829064419314,0.13227802957830165,-0.27787263005676993,1.075257491388984,0.11093330299079751,0.0
0.48860240844845443,-0.48330468250165237,0.06241856962124102,1.014426332741404,-0.3716647224602663,1.2632321336111687,0.0
0.48860240844845443,-0.48330468250165237,0.06241856962124102,0.009868025352650711,-1.2101292375472137,-0.02195955730512452,0.0
0.20812421468145192,-0.6318015700029779,0.14497974957049445,-0.2103014434919117,-0.6718154442788473,-1.1473433930204922,0.0
0.5156365196385256,-0.4876722470107802,-0.023318046405626108,0.2717063878857993,-1.2851669279498703,0.32120681278969526,0.0
0.5156365196385256,-0.4876722470107802,-0.023318046405626108,-0.026733039473748207,-1.1677166472292102,-0.06064987917137334,0.0
0.444672214374582,-0.5837584368548265,-0.1027038041734155,-0.6281166019613613,1.6943184173148784,0.37251355399576963,0.0
0.6913577691539978,-0.4046886742418613,-0.6901583885527085,-0.3088427586631459,2.176353843301139,0.11934424376745197,0.0
0.5730837693074332,-0.5444504709510593,0.21483922342370468,-0.12752673299619474,-0.4540430504339585,0.026823900032984762,0.0
0.41087957538699427,-0.5881260013639544,0.05924313962319282,-0.12696363980343722,-0.021760747882617677,0.042804682475489006,0.0
0.5595669503223882,-0.5750233460626987,0.05924313962319282,-0.18496224423764193,0.016573722333824106,0.11934424376745197,0.0
0.5156365196385256,-0.5750233460626987,-0.023318046405626108,-0.09599351033857165,0.05246130724603873,0.09411142111690651,0.0
0.535912103031076,-0.5881260013639544,-0.039195197481503845,-0.06558647535419795,0.19927416094474212,0.08654157464232498,0.0
0.525774311334801,-0.5400829064419314,-0.039195197481503845,-0.15230283476525905,0.07448323519203787,0.0167307645611243,0.0
0.5190157835372843,-0.5793909105718268,-0.039195197481503845,-0.12640054661067973,0.08263950523919546,-0.07158409900726123,0.0
0.5223950474360424,-0.5662882170444428,-0.02649347640367432,-0.09148876479651166,0.12015834297951523,-0.023641746550434616,0.0
0.6237727277888121,-0.6449041870781053,-0.06142320898773267,-0.34488072299962585,-0.266448824427317,-0.22802759623482174,0.0
0.5156365196385256,-0.5313477774236754,-0.042370627696679396,-0.31447369488316873,-0.4369148828375269,-0.1489647632570141,0.0
0.49536093624597255,-0.4658344626912685,-0.042370627696679396,-0.5160610742016556,-0.5951464789759352,-0.0858826973337692,0.0
0.353432089108096,-0.44399667837175677,-0.06142320898773267,-0.5256336589077779,-0.9597317436176718,0.009160923215856586,0.0
0.6845992413564784,-0.5226126866315475,-0.023318046405626108,-0.43779110881875377,-0.882247160760655,0.055421096686000766,0.0
0.6237727277888121,-0.5357153419328033,-0.12175638416170478,-0.5971464733549854,-0.8545158455847226,-0.2852219895408538,0.0
0.6440483111813656,-0.6230664409847217,-0.188440421068792,-0.4034424322161975,-0.8806159256524451,-0.24989603590659765,0.0
0.7792186305217247,-0.43089402307050095,-0.1566861210883099,0.22947438683937738,1.6690339150092155,0.033552646755597416,0.0
0.6170141999912958,-0.3566455793198385,-0.09000208070718528,-0.09993516397560852,0.6976222265054315,0.28840415328203167,0.0
0.28922631164167045,-0.5750233460626987,-0.010616325544923928,0.5177781015312167,0.7563474066578072,0.6593266254072125,0.0
0.4987402001447307,-0.5750233460626987,-0.010616325544923928,-0.1382255045170768,0.18214599334831066,0.506247506670272,0.0
0.5325328391323179,-0.6492717515872332,-0.13763353415194582,0.22947438683937738,-0.15144543616101705,0.4162504538565763,0.0
0.7386674637366186,-0.6143313501925941,-0.41707139482441263,-0.6129131222427162,2.0083347967214253,-0.6410047789754992,0.0
0.1709523117951056,-0.34791045030158235,0.32597926640731717,-0.15737067392932136,-0.968703656088963,-0.08672380221505192,0.0
0.36356988080437225,-0.43962911386262893,-0.13763353415194582,-0.2998332607111092,0.08182387773707914,-0.08756488657907928,0.0
0.5832215610037081,-0.548817997234059,0.04336598963295174,0.19399950925698312,-0.5608901835751177,0.09327032777657993,0.0
0.6845992413564784,-0.5357153419328033,-0.013791755542972128,0.22891130008529179,-1.3218700760130029,0.4011107506487855,0.0
0.41425883928575297,-0.4570993336730124,-0.21384386105317768,-0.2930761509829151,-0.10984845344910714,0.29260961613667924,0.0
0.6102556721937785,-0.5226126866315475,-0.0645986389857809,-0.09711969758257623,1.9398221263356996,0.09495251573956154,0.0
0.48860240844845443,-0.4876722470107802,0.03701512963685535,-0.013218806281526581,-0.07885462826470944,0.14289487845501578,0.0
0.6034971443962612,-0.5226126866315475,-0.08682665070913707,-0.15680758030731906,0.3615839343857776,0.15887566346217696,0.0
0.4548100060708585,-0.48330468250165237,-0.08682665070913707,-0.1956610161877688,0.12423648049009686,0.10588673878127054,0.0
0.38722472809568337,-0.5182451221224196,0.024313409644662498,-0.008714057305508243,-0.7117811421424906,0.06214984853792724,0.0
0.4717060889546606,-0.5575531262523151,-0.02014261553906855,-0.14273025005913678,-0.9939880788105349,-0.04971565933548549,0.0
1.1475574490464642,-0.6230664409847217,-0.1566861210883099,-0.24577631420638935,0.39094648466991994,-0.24232619456132978,0.0
0.6643238945739187,-0.4745695534833962,-0.16938784108050273,-0.15511830287527054,0.9578072106683241,0.11597986736061555,0.0
0.5528084225248708,-0.47020202720039644,0.00526082618233583,-0.26041673464261555,0.3950246122324901,0.24046179056657746,0.0
0.562946214221149,-0.5531855617431869,-0.042370627696679396,-0.241271565230371,0.8599319899984555,0.29765618387260945,0.0
0.7724601027242078,-0.6798447031511292,-0.023318046405626108,-0.014908080279616763,1.4349489313299548,0.04616906096610918,0.0
0.7724601027242078,-0.6798447031511292,-0.023318046405626108,-0.05601389408203402,0.35424327691871915,0.12523190163788764,0.0
0.4750853528534195,-0.5226126866315475,0.09734830654784614,0.09095345197764725,0.34853389435191634,0.06383203778323733,0.0
0.4987402001447307,-0.5400829064419314,0.09734830654784614,-0.05995554256813338,0.47984983266054265,0.17653864027930513,0.0
0.48860240844845443,-0.5182451221224196,0.06876942961733742,-0.03912109228988194,1.0899387665310554,0.05037452895007054,0.0
0.43791368657706436,-0.45273180739001256,0.07512028961343385,-0.0492567706180065,0.49779361781107917,0.21859334063617408,0.0
0.5967386165987423,-0.48330468250165237,-0.042370627696679396,-0.4681981506710442,0.46598417507257645,0.18663177062185177,0.0
0.7420467276353794,-0.3697482346210941,-0.042370627696679396,-0.45918865271900755,1.5148804862254228,0.26233023023835317,0.0
0.6136349360925372,-0.5444504709510593,0.08782200960562668,-0.21424309197801106,1.5866556268275687,0.10252236221414307,0.0
0.48860240844845443,-0.5531855617431869,0.06241856962124102,-0.22944661290415624,1.4993835537372013,0.024300616165019665,0.0
0.4987402001447307,-0.5444504709510593,0.20848834953145873,-0.16638016844739967,1.5442430365095652,0.24466726367985264,0.0
0.5663254781199076,-0.5095099931041638,0.18943578343931902,-0.0498198642400088,1.3329956626816069,0.1336428427351242,0.0
0.4987402001447307,-0.5007749023120358,0.21483922342370468,0.07068209532139809,1.5564773396131852,-0.010184242846581652,0.0
0.5054987279422475,-0.5007749023120358,0.17673406344712614,0.10221531068185973,1.242461039790729,0.004114355479926353,0.0
0.4311551587795473,-0.5226126866315475,0.21166378647758174,0.02732390703097169,0.43988409500485404,0.04112249835949275,0.0
0.4311551587795473,-0.5007749023120358,0.22436550646977463,-0.065023385166154,-0.10495469838442052,-0.012707526714546748,0.0
0.4311551587795473,-0.5095099931041638,0.2021375034315118,-0.25028106318240767,-0.19956742894184626,0.009160923215856586,0.0
0.5156365196385256,-0.505142466821164,0.22436550646977463,-0.18158368250562817,-0.12779224854765495,0.14878253568428723,0.0
0.620393463890054,-0.5095099931041638,0.22119006952365144,-0.0768483409263271,0.4455934974676798,0.14205378383236075,0.0
0.6102556721937785,-0.5138775576132917,0.21801466036982767,0.10559387241387357,1.0834137465141245,0.20345364768701105,0.0
0.5088779918410056,-0.5138775576132917,0.22436550646977463,0.11291408263198661,0.7123035016475027,0.2530781996477754,0.0
0.4548100060708585,-0.5400829064419314,0.23071638036202055,0.041401240713112304,0.18622413085889225,0.27242336571021364,0.0
0.4075003114882356,-0.5226126866315475,0.22119006952365144,-0.02954850758375967,-0.02094512038050136,0.159716758084832,0.0
0.5494291586261122,-0.5007749023120358,0.27834782338466896,-0.1410409709101091,0.06306445762341781,0.17990301364061145,0.0
0.5967386165987423,-0.48330468250165237,0.271996977284722,-0.036868717801872765,0.5157374029616155,0.12607299626054266,0.0
0.6102556721937785,-0.4745695534833962,0.27834782338466896,-0.05376151959402484,0.49208425514029885,0.08149501203570858,0.0
0.5021194640434894,-0.46146689818214065,0.271996977284722,-0.15793376755132363,-0.13757977857305087,0.287563048400749,0.0
0.48184388065093714,-0.4745695534833962,0.28469869727691494,-0.28969758925090133,-0.5078744058855679,0.3834477738316575,0.0
0.5291535752335592,-0.5095099931041638,0.34503186029175603,-0.2103014434919117,-0.3382240048215081,0.295132910263272,0.0
0.5156365196385256,-0.5444504709510593,0.37361073722226484,-0.08698401925445166,-1.0673945341049815,0.2892452376460591,0.0
0.44129295047582356,-0.49203977329377996,0.23389178951584433,-0.12752673299619474,-2.3120411672214285,0.33634651599748594,0.0
0.4345344226783057,-0.4964073378029079,0.17355862650100315,-0.2103014434919117,-3.1700808617353045,0.2783110178101712,0.0
0.620393463890054,-0.5138775576132917,0.07512028961343385,-0.25140725042641227,-1.8846527938249729,0.025982805410329726,0.0
0.48184388065093714,-0.5226126866315475,0.21166378647758174,-0.2345144486342602,0.22863672117689585,-0.05055675395814055,0.0
0.4581892699696169,-0.5444504709510593,0.15450604651271388,-0.17144800761146195,-0.47606496314706515,0.10925111470723378,0.0
0.46494756115714325,-0.548817997234059,0.12910260652832822,-0.11570177508979766,-0.38960850761080285,0.12102643173043358,0.0
0.5697047420186658,-0.5706557815535707,0.04654141963099996,0.005363276376632371,-0.15715481872782,0.20261255306435602,0.0
0.6271519916875702,-0.5444504709510593,0.0020853961842876322,-0.07121740814026252,0.03859564872544647,0.20093036381904594,0.0
0.620393463890054,-0.5662882170444428,0.0020853961842876322,-0.14385643730314138,0.6919128240426058,0.12186752571192438,0.0
0.5291535752335592,-0.5444504709510593,0.06876942961733742,-0.15230283476525905,0.9773822707191158,0.07728954148709032,0.0
0.5223950474360424,-0.5357153419328033,0.1354534665244247,-0.0734697826282717,0.5948532209268427,0.12439080829756105,0.0
0.512257255739767,-0.5095099931041638,0.0655939996192892,-0.16638016844739967,0.5491781206003736,0.09495251573956154,0.0
0.5156365196385256,-0.5575531262523151,0.10687458959391596,-0.2395822912322808,0.6348189585825312,0.07224297631581698,0.0
0.5325328391323179,-0.5575531262523151,0.16403232955878372,-0.17707894039752653,0.552440630608839,0.159716758084832,0.0
0.4750853528534195,-0.5750233460626987,0.1957866434354156,-0.03630562417987048,0.6560252537415329,0.19167833322846817,0.0
0.5088779918410056,-0.5750233460626987,0.24341810035421352,0.003673988642708798,0.44722477236793484,0.19420161709643327,0.0
0.512257255739767,-0.5226126866315475,0.1354534665244247,-0.0774114345483294,0.028808124917557652,0.28335758554610146,0.0
0.512257255739767,-0.5226126866315475,0.1354534665244247,-0.21536927922201562,-0.42386484280366565,0.2682178925969384,0.0
0.512257255739767,-0.5138775576132917,0.12910260652832822,-0.1956610161877688,-0.6269559615064834,0.32204791767097796,0.0
0.57984229710495,-0.49203977329377996,0.12910260652832822,-0.1556813964972728,-0.32843647479611227,0.29849728875389214,0.0
0.5899800888012254,-0.4964073378029079,0.14180432652052108,-0.1556813964972728,-0.3210958372250768,0.29176853177265183,0.0
0.5899800888012254,-0.4964073378029079,0.14180432652052108,-0.285755940764802,-0.950759831146381,0.23373303358533715,0.0
0.4581892699696169,-0.548817997234059,0.16720776650490676,-0.2333882613902556,-1.4915205964531988,0.2295275707306896,0.0
0.4311551587795473,-0.5750233460626987,0.1513306095665909,-0.12752673299619474,-1.8879152640413928,0.2749466495781787,0.0
0.4480514782733409,-0.548817997234059,0.12910260652832822,0.2610076021998391,-0.3635084275430804,0.3969052877941382,0.0
0.6305312555863316,-0.46146689818214065,-0.023318046405626108,-0.031237788449766535,-0.6612122966993462,0.24046179056657746,0.0
0.4987402001447307,-0.5400829064419314,0.02113797617257688,0.019440610058772987,-0.8186282752836497,0.19840708508039465,0.0
0.46494756115714325,-0.5313477774236754,0.02113797617257688,-0.2840666530308784,-0.9735974409976835,0.12943737218650592,0.0
0.4987402001447307,-0.5575531262523151,0.02113797617257688,-0.23620372950026705,-0.7713219000569252,0.1664455099367585,0.0
0.6034971443962612,-0.5881260013639544,-0.042370627696679396,-0.1399147836661045,-0.23463938168881424,0.20008927432570472,0.0
0.5392913669298346,-0.5968611303822103,-0.023318046405626108,-0.1359731317460468,-0.15144543616101705,0.17233316716602992,0.0
0.5291535752335592,-0.5793909105718268,-0.023318046405626108,-0.1342838517385295,-0.21343308652981244,0.1555112875362137,0.0
0.5223950474360424,-0.5575531262523151,-0.04872148812703049,-0.1387885981390791,-0.12697663099354997,0.15214691161025048,0.0
0.5291535752335592,-0.5881260013639544,-0.04872148812703049,-0.15793376755132363,-0.09190466829857065,0.188313954737848,0.0
0.5494291586261122,-0.5968611303822103,-0.042370627696679396,-0.15511830287527054,-0.03399515046635121,0.16139894733014207,0.0
0.5494291586261122,-0.5968611303822103,-0.042370627696679396,-0.12921601257446722,-0.004632580286186188,0.13111956014948753,5.0
0.5223950474360424,-0.5968611303822103,-0.04872148812703049,-0.10049825759761082,-0.05764833310570765,0.12943737218650592,5.0
0.5291535752335592,-0.5881260013639544,-0.05507234899163626,-0.08416855457839856,-0.07967025576682576,0.1782208295246152,5.0
0.5291535752335592,-0.5881260013639544,-0.05507234899163626,-0.07966380560238022,-0.051123313088777045,0.1361661240384324,5.0
0.5291535752335592,-0.6099637856834662,-0.05824777898968447,-0.05939244894613108,-0.027470135423426283,0.14878253568428723,5.0
0.5223950474360424,-0.6318015700029779,-0.0677740707208478,-0.02335448460965115,0.004339317263087742,0.14037159458705067,5.0
0.5223950474360424,-0.6318015700029779,-0.0677740707208478,-0.06164482343414026,-0.034810777968467536,0.13953049996439565,5.0
0.5156365196385256,-0.5837584368548265,-0.07094950071889601,-0.07403287625027397,-0.04459830301985778,0.14289487845501578,5.0
0.525774311334801,-0.6055962211743383,-0.05824777898968447,-0.09148876479651166,-0.017682610372036046,0.1151387732989792,5.0
0.525774311334801,-0.6055962211743383,-0.05824777898968447,-0.11570177508979766,0.0173893473489376,0.15046472492959734,5.0
0.5223950474360424,-0.6055962211743383,-0.05824777898968447,-0.1365362253680491,0.05898632259983902,0.12186752571192438,5.0
0.5190157835372843,-0.5750233460626987,-0.05507234899163626,-0.17651584677552423,0.04104252998829403,0.1227086196934152,5.0
0.512257255739767,-0.5531855617431869,-0.05507234899163626,-0.2260680511721425,0.06877384640772784,0.08990595056828822,5.0
0.5426706308285955,-0.5575531262523151,-0.0645986389857809,-0.2761833560586797,0.148705285657564,0.038599214491527645,5.0
0.5426706308285955,-0.5706557815535707,-0.05824777898968447,-0.3319295765614899,0.13891776558017938,0.008319828593201566,5.0
0.535912103031076,-0.5575531262523151,-0.05824777898968447,-0.3189784301233538,0.051645680365673116,0.018412953806434377,5.0
0.5156365196385256,-0.5968611303822103,0.01161168617843224,-0.2868821280088066,-0.09842967836748992,-0.0076609589786164976,5.0
0.5156365196385256,-0.5706557815535707,-0.029668906835977206,-0.3127844071492454,-0.11066408095122346,-0.009343148223926593,5.0
0.5223950474360424,-0.5444504709510593,-0.07094950071889601,-0.32798792807539046,-0.0356264004965782,0.01168420708382172,5.0
0.5392913669298346,-0.6230664409847217,-0.09317751070523349,-0.2885714020068968,0.12423648049009686,0.07392516299647015,5.0
0.562946214221149,-0.6798447031511292,-0.0677740707208478,-0.1962241098097711,0.13728651057594674,0.08317719871636173,5.0
0.5494291586261122,-0.7322553243561521,-0.0645986389857809,-0.11682796147531266,0.15523030567449458,0.02345952154236461,5.0
0.5156365196385256,-0.7191526308287681,-0.09000208070718528,-0.0424996540218957,0.12668336299644584,0.035234836000907495,5.0
0.5190157835372843,-0.7104175782627686,-0.12175638416170478,-0.01434499352553118,0.2221117210559879,0.0915881398135983,5.0
0.5426706308285955,-0.6667420096237452,-0.10905466416951194,0.018877509568853996,0.23923988865241938,0.029347178771636062,5.0
0.525774311334801,-0.6492717515872332,-0.07412493071694423,0.08644870300162899,0.1079239403957817,0.03187046263960116,5.0
0.5223950474360424,-0.7191526308287681,-0.08682665070913707,0.11516645711999564,0.05817069634122411,-0.0009322122560038602,5.0
0.5291535752335592,-0.7540930704495357,-0.08365122071108884,0.17992217557484258,0.02391436487886537,-0.04887456471283045,5.0
0.5291535752335592,-0.7497255823926641,-0.07412493071694423,0.31675385017431595,0.05653944195874217,0.007478733970546526,5.0
0.5426706308285955,-0.6798447031511292,-0.10905466416951194,0.31956931141641076,0.1527834231681456,0.012525301706476758,5.0
0.5528084225248708,-0.5750233460626987,-0.08682665070913707,0.2857837215679399,0.1739897282751587,-0.01691298956919431,5.0
0.556187686423629,-0.5400829064419314,-0.0677740707208478,0.2401731450536709,0.17562097333138005,-0.015230810582511864,5.0
0.5494291586261122,-0.5226126866315475,-0.05189691899358805,0.17879600206667134,0.16257094324553015,-0.05055675395814055,5.0
0.5528084225248708,-0.5138775576132917,-0.0645986389857809,0.09939984943976492,0.26452431137399146,-0.0564444163167258,5.0
0.5460498947273541,-0.4483642428808847,-0.05824777898968447,0.03745959222701295,0.30449002913365736,-0.04971565933548549,5.0
0.5291535752335592,-0.43089402307050095,-0.029668906835977206,-0.10443990951766852,0.2620774388156539,-0.009343148223926593,5.0
0.4919816723472139,-0.3784833636393502,-0.029668906835977206,-0.2255049575501402,0.14952091315968027,0.024300616165019665,5.0
0.4987402001447307,-0.3697482346210941,0.02113797617257688,-0.30659038417513673,0.11363332793659031,0.0915881398135983,5.0
0.5054987279422475,-0.35227801481071025,0.017962546174528676,-0.4282185241126315,0.06714259264699661,0.10925111470723378,5.0
0.5190157835372843,-0.3566455793198385,0.017962546174528676,-0.5160610742016556,0.05246130724603873,0.14289487845501578,5.0
0.5054987279422475,-0.3784833636393502,-0.023318046405626108,-0.5656132854661906,-0.03154826796000225,0.14962363030694228,5.0
0.5291535752335592,-0.44399667837175677,-0.042370627696679396,-0.5627978242240957,-0.05683270560359133,0.13027846680916094,5.0
0.5663254781199076,-0.5226126866315475,-0.039195197481503845,-0.5650501987121049,0.1878553858631249,-0.015230810582511864,5.0
0.6677031584726768,-0.6099637856834662,-0.039195197481503845,-0.4760814476432429,0.3232494517343216,-0.24064402583327524,5.0
0.620393463890054,-0.7802984575043035,-0.039195197481503845,-0.44398514552869583,0.23516174119382646,-0.4921311230932061,5.0
0.556187686423629,-0.7802984575043035,-0.16621240413437974,-0.5425264538320133,0.770213024453728,-0.505588637055687,5.0
0.4750853528534195,-0.6754771386420013,-0.10905466416951194,-0.4681981506710442,0.7171972865562232,-0.3440985926094513,5.0
0.444672214374582,-0.5531855617431869,-0.10905466416951194,-0.3674044678797176,0.437437242342539,-0.25494262415978325,5.0
0.4750853528534195,-0.5007749023120358,-0.05824777898968447,-0.3550163944598337,0.48719047023157835,-0.052238943203450586,5.0
0.4750853528534195,-0.48330468250165237,-0.013791755542972128,-0.3296772020734806,0.5035030202739047,0.03187046263960116,5.0
0.525774311334801,-0.38721845443147784,0.017962546174528676,-0.32517246683329565,0.45374975259282024,0.07392516299647015,5.0
0.512257255739767,-0.43962911386262893,0.05924313962319282,-0.21255381111200417,0.18948664086735756,0.12943737218650592,5.0
0.5054987279422475,-0.4876722470107802,0.030664269640758902,-0.17989440507357965,-0.04786081302832308,0.10756892674425216,5.0
0.5325328391323179,-0.4876722470107802,0.01478711617648047,-0.07853762179233398,-0.10984845344910714,0.19840708508039465,5.0
0.5528084225248708,-0.47020202720039644,-0.004265463811808799,-0.05150914510601568,-0.09598279586114093,0.1899961439831581,5.0
0.5460498947273541,-0.47020202720039644,-0.013791755542972128,-0.1095077486817308,-0.05357019559512604,0.1529880062329055,5.0
0.5392913669298346,-0.4483642428808847,0.0020853961842876322,-0.1866515251036488,0.057355068839107785,0.19420161709643327,5.0
0.5291535752335592,-0.5444504709510593,0.06876942961733742,-0.08698401925445166,-0.16286420129462292,0.16812769918206855,5.0
0.562946214221149,-0.5750233460626987,0.04336598963295174,-0.04644130250799504,-0.1498141811567844,0.08654157464232498,5.0
0.6102556721937785,-0.5357153419328033,-0.05824777898968447,-0.04081037315588882,0.18540850335677592,0.055421096686000766,5.0
0.512257255739767,-0.46146689818214065,-0.023318046405626108,-0.032927069315773425,0.1478896581554476,0.07644844686443526,5.0
0.4750853528534195,-0.45273180739001256,-0.013791755542972128,-0.04644130250799504,-0.010341967826994796,0.1277551842235243,5.0
0.48184388065093714,-0.4570993336730124,0.03701512963685535,-0.03574253055786819,-0.12045161097661937,0.21270568853621646,5.0
0.5426706308285955,-0.4876722470107802,0.01478711617648047,-0.09655660396057394,-0.08456402077952373,0.20345364768701105,5.0
0.5697047420186658,-0.4658344626912685,-0.013791755542972128,-0.09880897673160392,0.003523689760971407,0.16476332069144842,5.0
0.535912103031076,-0.4483642428808847,-0.029668906835977206,-0.15117664923823365,0.0010768072546224294,0.14289487845501578,5.0
0.5156365196385256,-0.43962911386262893,-0.013791755542972128,-0.14273025005913678,-0.02094512038050136,0.159716758084832,5.0
0.5088779918410056,-0.45273180739001256,-0.02649347640367432,-0.15511830287527054,-0.04133579301139248,0.1975659904577396,5.0
0.5460498947273541,-0.505142466821164,0.01478711617648047,-0.10838156315470539,-0.008710712822762146,0.1782208295246152,5.0
0.556187686423629,-0.5269802129145472,-0.010616325544923928,-0.1365362253680491,0.005154944765204059,0.17990301364061145,5.0
0.5595669503223882,-0.47893711799252403,-0.07730036071499242,-0.18214677612763047,0.027992498658942745,0.14205378383236075,5.0
0.562946214221149,-0.505142466821164,-0.042370627696679396,-0.17144800761146195,0.03533314120398401,0.14373597051301393,5.0
0.5528084225248708,-0.5575531262523151,-0.05824777898968447,-0.1393516917610814,0.07040510016845908,0.14289487845501578,5.0
0.5460498947273541,-0.5226126866315475,-0.045546058128982284,-0.12020652084648005,0.11852709294928825,0.13196065477214258,5.0
0.5392913669298346,-0.47893711799252403,-0.04872148812703049,-0.12640054661067973,0.17235847327092604,0.10168126887381648,5.0
0.5291535752335592,-0.43089402307050095,-0.04872148812703049,-0.1680694458794482,0.15033654066179664,0.10672783276276135,5.0
0.5190157835372843,-0.3915860189406058,0.0020853961842876322,-0.24352393971838016,0.15115216816391291,0.12018533774894277,5.0
0.5021194640434894,-0.3610131438289664,0.008436256180384035,-0.29814398671301906,0.05572381507837655,0.14289487845501578,5.0
0.512257255739767,-0.3653806701119662,0.008436256180384035,-0.3679675546338032,0.011679959808128988,0.15382910085556056,5.0
0.5088779918410056,-0.3784833636393502,0.04019055963490355,-0.4163935649185002,-0.02828576292554261,0.18410848675388664,5.0
0.5223950474360424,-0.4046886742418613,0.017962546174528676,-0.48114928337334684,-0.09679842336325727,0.16476332069144842,5.0
0.5223950474360424,-0.4046886742418613,0.017962546174528676,-0.5239443711738543,-0.07151399069367384,0.1555112875362137,5.0
0.5392913669298346,-0.3915860189406058,-0.029668906835977206,-0.5892632038544534,-0.038888910505043485,0.16139894733014207,5.0
0.5460498947273541,-0.4177913677692453,-0.029668906835977206,-0.6557082100432238,-0.07069836319155752,0.14710034643897715,5.0
0.5460498947273541,-0.4177913677692453,-0.029668906835977206,-0.7046973345536732,-0.09761405086537359,0.13448393735777922,5.0
0.525774311334801,-0.46146689818214065,-0.03284433705115276,-0.7367936366682203,-0.1261609935434223,0.14373597051301393,5.0
0.5291535752335592,-0.5007749023120358,-0.03284433705115276,-0.7103282570378626,-0.16286420129462292,0.10672783276276135,5.0
0.5291535752335592,-0.5007749023120358,-0.03284433705115276,-0.6996294713519023,-0.12452973853918965,0.10504564479977972,5.0
0.5460498947273541,-0.5313477774236754,-0.029668906835977206,-0.6033405100649274,-0.0813015107710584,0.13027846680916094,5.0
0.525774311334801,-0.5400829064419314,-0.03284433705115276,-0.5402740793440041,-0.15633920117371503,0.145418159758324,5.0
0.525774311334801,-0.5400829064419314,-0.03284433705115276,-0.4941004435473163,-0.1538923087193547,0.145418159758324,5.0
0.5325328391323179,-0.5400829064419314,-0.04872148812703049,-0.4873433200832888,-0.1131109634575724,0.159716758084832,5.0
0.525774311334801,-0.5313477774236754,-0.05189691899358805,-0.44567440579095247,-0.1538923087193547,0.21943443525882914,5.0
0.5223950474360424,-0.5793909105718268,-0.05189691899358805,-0.2660476708626385,-0.14247354358574882,0.27326446033286866,5.0
0.5392913669298346,-0.6186988764755939,-0.07094950071889601,-0.26041673464261555,-0.17836111388682177,0.16139894733014207,5.0
0.57984229710495,-0.5313477774236754,-0.09952837417536729,-0.23789301036627394,-0.02665450792130995,0.145418159758324,5.0
0.5392913669298346,-0.5182451221224196,-0.10587923417146373,-0.2333882613902556,-0.0739608732000228,0.12943737218650592,5.0
0.5088779918410056,-0.5750233460626987,-0.08365122071108884,-0.2255049575501402,-0.1196359735264917,0.13027846680916094,5.0
0.5291535752335592,-0.6055962211743383,-0.08047579071304065,-0.1646908875813928,-0.13431726856458556,0.14205378383236075,5.0
0.5392913669298346,-0.7104175782627686,-0.08365122071108884,-0.007024783307418061,-0.06417334317462692,0.23625631745330225,5.0
0.562946214221149,-0.6492717515872332,-0.13763353415194582,-0.0008307465974761487,0.08182387773707914,0.14710034643897715,5.0
0.5460498947273541,-0.5750233460626987,-0.1281072441578012,-0.05714007445812192,0.043489410629390886,0.13700721866108742,5.0
0.5426706308285955,-0.6055962211743383,-0.1027038041734155,0.02056679730277757,0.043489410629390886,0.09495251573956154,5.0
0.5325328391323179,-0.62743400549385,-0.05824777898968447,0.05604166114933851,0.10303018035708943,0.09831689166552479,5.0
0.5190157835372843,-0.62743400549385,-0.05824777898968447,0.09433199997382766,0.0173893473489376,0.19504271171908832,5.0
0.5088779918410056,-0.6449041870781053,-0.042370627696679396,0.18611621228478445,0.0002611797525061129,0.2370974120759573,5.0
0.5460498947273541,-0.5881260013639544,-0.03284433705115276,0.21483396640315128,-0.06906710818732487,0.26653570335162835,5.0
0.556187686423629,-0.5924935658730824,-0.0645986389857809,0.25425047873581164,-0.03154826796000225,0.26653570335162835,5.0
0.5156365196385256,-0.561920690761443,-0.1312826741558494,0.25875522771182985,0.10303018035708943,0.22195771912679424,5.0
0.5021194640434894,-0.5313477774236754,-0.11223009416756015,0.20244592045493418,-0.030732640457885915,0.23457412820799217,5.0
0.5325328391323179,-0.4964073378029079,-0.09000208070718528,0.18780547254704125,-0.02828576292554261,0.2614891356156981,5.0
0.562946214221149,-0.49203977329377996,-0.10905466416951194,0.12023429285009966,0.03614876870610033,0.19420161709643327,5.0
0.5291535752335592,-0.5138775576132917,-0.07730036071499242,0.11404025614015781,-0.0674358531830922,0.17317426178868497,5.0
0.5190157835372843,-0.49203977329377996,-0.07094950071889601,0.12642832956004152,-0.0592795881099403,0.18242629750857656,5.0
0.535912103031076,-0.47893711799252403,-0.05824777898968447,0.12811758982229837,-0.015235727865687079,0.19420161709643327,5.0
0.5223950474360424,-0.4964073378029079,-0.05824777898968447,0.10784624690188258,-0.06498897067674324,0.20850021542294128,5.0
0.535912103031076,-0.4876722470107802,-0.07094950071889601,0.07462374380749752,-0.10087656087383885,0.17569754565665008,5.0
0.5595669503223882,-0.4745695534833962,-0.09317751070523349,-0.016597361145623626,-0.06662022568097589,0.12691408960086925,5.0
0.5528084225248708,-0.47020202720039644,-0.12493181415975298,-0.06614956897620024,0.09324265530569917,0.036075930623562534,5.0
0.5460498947273541,-0.5531855617431869,-0.07730036071499242,-0.02954850758375967,0.04593629158136309,0.13784831328374247,5.0
0.5392913669298346,-0.6099637856834662,-0.12493181415975298,-0.06671266259820254,0.1323927455632488,0.07140188169316194,5.0
0.5291535752335592,-0.6186988764755939,-0.1027038041734155,-0.08191618009038938,0.1307614955330218,0.0032732608572713334,5.0
0.5223950474360424,-0.62743400549385,-0.11858095416365656,-0.06333410430014713,0.22863672117689585,-0.05812660556203588,5.0
0.48184388065093714,-0.6055962211743383,-0.10587923417146373,-0.1320314789674995,0.214771073536941,-0.13214287080391338,5.0
0.5054987279422475,-0.6536393160963612,-0.1027038041734155,-0.06220791705614254,0.2066147985157777,-0.08251833936040434,5.0
0.5223950474360424,-0.6580068806054893,-0.1027038041734155,-0.005898596063413477,0.22048046605175523,0.009160923215856586,5.0
0.5392913669298346,-0.6099637856834662,-0.07094950071889601,0.03182865600699002,0.1707272182666934,0.04953343432741551,5.0
0.5392913669298346,-0.5968611303822103,-0.09317751070523349,0.03013938200889987,0.1715428457688097,0.04785125021141926,5.0
0.5528084225248708,-0.5662882170444428,-0.11223009416756015,0.022256071300867753,0.19601165093627684,0.06635531652188861,5.0
0.5156365196385256,-0.5226126866315475,-0.11223009416756015,0.01606204832675923,0.24494927121922233,0.035234836000907495,5.0
0.5021194640434894,-0.5007749023120358,-0.09000208070718528,0.00029544064652843615,0.09405828280781549,0.00579654472523645,5.0
0.48860240844845443,-0.5095099931041638,-0.05189691899358805,-0.028985413961757377,0.047567545575250836,0.010843112461166662,5.0
0.49536093624597255,-0.5226126866315475,-0.1027038041734155,-0.034053256559778,0.02391436487886537,0.12018533774894277,5.0
0.5392913669298346,-0.5269802129145472,-0.09635294417731911,-0.034053256559778,0.08427075775642526,0.16980988842737862,5.0
0.5832215610037081,-0.5095099931041638,-0.08365122071108884,-0.0272961330957505,0.09405828280781549,0.13700721866108742,5.0
0.5697047420186658,-0.5138775576132917,-0.08682665070913707,-0.025606852229743637,0.046751918617166384,0.13027846680916094,5.0
0.5156365196385256,-0.5226126866315475,-0.07412493071694423,-0.0346163501817803,0.0002611797525061129,0.15382910085556056,5.0
0.5325328391323179,-0.5837584368548265,-0.07730036071499242,-0.05319842597202256,0.043489410629390886,0.1664455099367585,5.0
0.5223950474360424,-0.5837584368548265,-0.06142320898773267,-0.0424996540218957,0.051645680365673116,0.16224004195279712,5.0
0.5190157835372843,-0.5531855617431869,-0.05824777898968447,-0.019412829255635103,0.04185815686865965,0.12354971367490601,5.0
0.5325328391323179,-0.5226126866315475,-0.07094950071889601,-0.026733039473748207,-0.0193138653762687,0.18242629750857656,5.0
0.5494291586261122,-0.5007749023120358,-0.07730036071499242,-0.03743181142387507,-0.03399515046635121,0.19336052247377825,5.0
0.556187686423629,-0.5313477774236754,-0.0677740707208478,-0.05488770683802944,-0.027470135423426283,0.23205084434002707,5.0
0.5325328391323179,-0.5662882170444428,-0.0645986389857809,-0.05094605148401338,0.02391436487886537,0.19504271171908832,5.0
0.5223950474360424,-0.5531855617431869,-0.05824777898968447,-0.04869367699600422,0.013311212325358795,0.1925194278511232,5.0
0.5156365196385256,-0.5095099931041638,-0.042370627696679396,-0.025043765475658026,-0.034810777968467536,0.18915504936050304,5.0
0.5460498947273541,-0.5138775576132917,-0.042370627696679396,-0.04024727953388653,-0.0331795229642349,0.17906192414727023,5.0
0.5528084225248708,-0.5313477774236754,-0.0645986389857809,-0.06671266259820254,0.0059705722673203745,0.17906192414727023,5.0
0.5528084225248708,-0.5313477774236754,-0.0645986389857809,-0.09148876479651166,0.03696439496471524,0.15887566346217696,5.0
0.5392913669298346,-0.5357153419328033,-0.07094950071889601,-0.0734697826282717,0.030439379921790306,0.1546701954782156,5.0
0.535912103031076,-0.5400829064419314,-0.05824777898968447,-0.09655660396057394,0.04919879949141975,0.145418159758324,5.0
0.535912103031076,-0.5400829064419314,-0.05824777898968447,-0.1055660967616731,0.03778002246683156,0.1580345688395219,5.0
0.5325328391323179,-0.5444504709510593,-0.05507234899163626,-0.08360546095639626,0.016573722333824106,0.1529880062329055,5.0
0.5392913669298346,-0.5313477774236754,-0.07730036071499242,-0.08304236733439396,-0.018498237874152362,0.16812769918206855,5.0
0.5392913669298346,-0.5313477774236754,-0.07730036071499242,-0.10443990951766852,0.04185815686865965,0.13280174811246914,5.0
0.5392913669298346,-0.548817997234059,-0.07094950071889601,-0.12414817351771613,0.07285198018780521,0.13111956014948753,5.0
0.525774311334801,-0.5662882170444428,-0.07730036071499242,-0.12640054661067973,0.08671764026277426,0.1126154911140702,5.0
0.5325328391323179,-0.5575531262523151,-0.0677740707208478,-0.15680758030731906,0.05898632259983902,0.11682096150239742,5.0
0.5325328391323179,-0.5575531262523151,-0.0677740707208478,-0.15061355561623135,0.05490818819801094,0.12102643173043358,5.0
0.5325328391323179,-0.5313477774236754,-0.08047579071304065,-0.15849686117332593,0.04919879949141975,0.12186752571192438,5.0
0.525774311334801,-0.5706557815535707,-0.0645986389857809,-0.1630016067153859,0.059801950101955346,0.15046472492959734,5.0
0.525774311334801,-0.5706557815535707,-0.0645986389857809,-0.15511830287527054,0.07693011521138401,0.12354971367490601,5.0
0.5223950474360424,-0.5706557815535707,-0.06142320898773267,-0.14779808922319906,0.050014426449504205,0.11597986736061555,5.0
0.5291535752335592,-0.5793909105718268,-0.07094950071889601,-0.15511830287527054,0.09242702780358285,0.10925111470723378,5.0
0.5528084225248708,-0.5968611303822103,-0.09317751070523349,-0.1562444901192751,0.10221455285497308,0.07224297631581698,5.0
0.5426706308285955,-0.5881260013639544,-0.07094950071889601,-0.14273025005913678,0.08345513274131179,0.10672783276276135,5.0
0.5325328391323179,-0.5662882170444428,-0.07412493071694423,-0.14273025005913678,0.09813641534439145,0.0974757983251982,5.0
0.5325328391323179,-0.5793909105718268,-0.07094950071889601,-0.1393516917610814,0.07856137021561667,0.12859627884617933,5.0
0.5291535752335592,-0.5750233460626987,-0.0645986389857809,-0.1376624108950745,0.06714259264699661,0.09327032777657993,5.0
0.5291535752335592,-0.5750233460626987,-0.09000208070718528,-0.14836118284520136,0.08019262273284648,0.09495251573956154,5.0
0.5325328391323179,-0.5750233460626987,-0.0645986389857809,-0.14836118284520136,0.06143320386268658,0.1126154911140702,5.0
0.5223950474360424,-0.5706557815535707,-0.0677740707208478,-0.1562444901192751,0.05653944195874217,0.10588673878127054,5.0
0.5325328391323179,-0.5706557815535707,-0.08047579071304065,-0.15962304841733052,0.060617576360570254,0.10084017425116144,5.0
0.5392913669298346,-0.5750233460626987,-0.08682665070913707,-0.1691956331234528,0.050014426449504205,0.09495251573956154,5.0
0.5291535752335592,-0.5881260013639544,-0.09952837417536729,-0.15173974286023595,0.09568953781204814,0.08570048001966994,5.0
0.535912103031076,-0.5837584368548265,-0.07730036071499242,-0.1393516917610814,0.06795822014911293,0.12102643173043358,5.0
0.5325328391323179,-0.5750233460626987,-0.07094950071889601,-0.1387885981390791,0.046751918617166384,0.11093330299079751,5.0
0.5291535752335592,-0.5837584368548265,-0.08047579071304065,-0.11851724105358516,0.03207063368252154,0.12859627884617933,5.0
0.5291535752335592,-0.5837584368548265,-0.07094950071889601,-0.11851724105358516,0.050830053485307496,0.11682096150239742,5.0
0.535912103031076,-0.5793909105718268,-0.08047579071304065,-0.11007084230373308,0.06306445762341781,0.10504564479977972,5.0
0.525774311334801,-0.5968611303822103,-0.08365122071108884,-0.1050030031396708,0.04593629158136309,0.09579361036221658,5.0
0.525774311334801,-0.5793909105718268,-0.08047579071304065,-0.09768279120457853,0.05246130724603873,0.08822376388763506,5.0
0.525774311334801,-0.561920690761443,-0.05507234899163626,-0.08979948393050478,0.04104252998829403,0.0999990796285064,5.0
0.5291535752335592,-0.5662882170444428,-0.05507234899163626,-0.1095077486817308,0.04104252998829403,0.10336345683679811,5.0
0.5325328391323179,-0.5531855617431869,-0.05824777898968447,-0.11513868146779538,0.005154944765204059,0.10504564479977972,5.0
0.525774311334801,-0.5662882170444428,-0.07094950071889601,-0.11063393592573538,0.046751918617166384,0.1227086196934152,5.0
0.5291535752335592,-0.5575531262523151,-0.0677740707208478,-0.12358508027130305,0.06143320386268658,0.08485938796167182,5.0
0.525774311334801,-0.5662882170444428,-0.0645986389857809,-0.11570177508979766,0.05246130724603873,0.09495251573956154,5.0
0.5325328391323179,-0.6186988764755939,-0.08682665070913707,-0.11007084230373308,0.05490818819801094,0.10925111470723378,5.0
0.5325328391323179,-0.5662882170444428,-0.09317751070523349,-0.11851724105358516,0.053276934437279704,0.0890648585102901,5.0
0.5325328391323179,-0.5662882170444428,-0.07094950071889601,-0.11739105466807016,0.04185815686865965,0.12354971367490601,5.0
0.5460498947273541,-0.5837584368548265,-0.0645986389857809,-0.11007084230373308,0.03288625994113645,0.10756892674425216,5.0
0.5325328391323179,-0.5793909105718268,-0.0645986389857809,-0.09543041843354853,0.06632696514488028,0.11597986736061555,5.0
0.5291535752335592,-0.5793909105718268,-0.09635294417731911,-0.1072553759107008,0.06388008512553414,0.08570048001966994,5.0
0.5291535752335592,-0.5837584368548265,-0.07412493071694423,-0.10049825759761082,0.050014426449504205,0.11093330299079751,5.0
0.5291535752335592,-0.5662882170444428,-0.0645986389857809,-0.1095077486817308,0.0394112762275628,0.12102643173043358,5.0
0.5291535752335592,-0.5662882170444428,-0.0645986389857809,-0.09036257755250707,0.01902060235317026,0.12439080829756105,5.0
0.525774311334801,-0.5357153419328033,-0.0645986389857809,-0.09486732481154624,0.04022690310792842,0.14037159458705067,5.0
0.5291535752335592,-0.5531855617431869,-0.07412493071694423,-0.10106135121961311,0.05817069634122411,0.08738266926498002,5.0
0.525774311334801,-0.561920690761443,-0.06142320898773267,-0.09599351033857165,0.05572381507837655,0.11345658517570653,5.0
0.525774311334801,-0.561920690761443,-0.06142320898773267,-0.10162444312463623,0.05490818819801094,0.09495251573956154,5.0
0.5392913669298346,-0.5575531262523151,-0.07730036071499242,-0.1072553759107008,0.025545617396095188,0.11934424376745197,5.0
0.5392913669298346,-0.561920690761443,-0.07094950071889601,-0.09261495204051624,0.04430503782063185,0.1277551842235243,5.0
0.5392913669298346,-0.561920690761443,-0.07094950071889601,-0.11626486785331037,0.06469571138414905,0.09411142111690651,5.0
0.5223950474360424,-0.548817997234059,-0.07094950071889601,-0.11908033424634266,0.06632696514488028,0.09495251573956154,5.0
0.5291535752335592,-0.5444504709510593,-0.08365122071108884,-0.14441953092514367,0.030439379921790306,0.10336345683679811,5.0
0.5223950474360424,-0.548817997234059,-0.10587923417146373,-0.15061355561623135,0.0394112762275628,0.10588673878127054,5.0
0.535912103031076,-0.5531855617431869,-0.09000208070718528,-0.15061355561623135,0.020651854870400062,0.0999990796285064,5.0
0.535912103031076,-0.5575531262523151,-0.08047579071304065,-0.15680758030731906,0.07285198018780521,0.11597986736061555,5.0
0.5460498947273541,-0.5750233460626987,-0.07730036071499242,-0.14441953092514367,0.06714259264699661,0.09495251573956154,5.0
0.5460498947273541,-0.5662882170444428,-0.0677740707208478,-0.13315766535301451,0.04430503782063185,0.13448393735777922,5.0
0.5223950474360424,-0.5837584368548265,-0.07412493071694423,-0.12245889377847685,0.04185815686865965,0.12523190163788764,5.0
0.535912103031076,-0.5662882170444428,-0.09000208070718528,-0.13034219895998223,0.03859564872544647,0.10672783276276135,5.0
0.5392913669298346,-0.5662882170444428,-0.08682665070913707,-0.12358508027130305,0.07611449019627052,0.10925111470723378,5.0
0.535912103031076,-0.5531855617431869,-0.08047579071304065,-0.12245889377847685,0.04593629158136309,0.07308407093847202,5.0
0.5291535752335592,-0.5662882170444428,-0.0677740707208478,-0.11570177508979766,0.04593629158136309,0.1151387732989792,5.0
0.5325328391323179,-0.5226126866315475,-0.0645986389857809,-0.13034219895998223,0.0394112762275628,0.07728954148709032,5.0
0.535912103031076,-0.561920690761443,-0.09317751070523349,-0.13090529258198452,0.04104252998829403,0.11682096150239742,5.0
0.5223950474360424,-0.5531855617431869,-0.09317751070523349,-0.1342838517385295,0.06469571138414905,0.11682096150239742,5.0
0.5223950474360424,-0.5662882170444428,-0.08682665070913707,-0.13146838534549724,0.04512066470099747,0.12439080829756105,5.0
0.525774311334801,-0.5706557815535707,-0.09317751070523349,-0.12865291938170972,0.05653944195874217,0.12018533774894277,5.0
0.5223950474360424,-0.5968611303822103,-0.0645986389857809,-0.12640054661067973,0.014126839827475134,0.11766205548388822,5.0
0.5325328391323179,-0.5750233460626987,-0.08047579071304065,-0.12583745320329984,0.03614876870610033,0.12102643173043358,5.0
0.5291535752335592,-0.5750233460626987,-0.09317751070523349,-0.1393516917610814,0.057355068839107785,0.12943737218650592,5.0
0.5291535752335592,-0.5662882170444428,-0.08047579071304065,-0.13090529258198452,0.05490818819801094,0.1126154911140702,5.0
0.5325328391323179,-0.5706557815535707,-0.08365122071108884,-0.12583745320329984,0.06958947266634274,0.0999990796285064,5.0
0.535912103031076,-0.5662882170444428,-0.10905466416951194,-0.11851724105358516,0.060617576360570254,0.12186752571192438,5.0
0.5291535752335592,-0.561920690761443,-0.09952837417536729,-0.12358508027130305,0.04919879949141975,0.11093330299079751,5.0
0.5291535752335592,-0.5662882170444428,-0.11540552416560834,-0.11626486785331037,0.05246130724603873,0.10588673878127054,5.0
0.5291535752335592,-0.5793909105718268,-0.09317751070523349,-0.1061291903836754,0.06224883136480291,0.10168126887381648,5.0
0.525774311334801,-0.5575531262523151,-0.08682665070913707,-0.12133270723199505,0.03451751370186768,0.12186752571192438,5.0
0.525774311334801,-0.5662882170444428,-0.08047579071304065,-0.12189580053206375,0.025545617396095188,0.12102643173043358,5.0
0.535912103031076,-0.5662882170444428,-0.09000208070718528,-0.11007084230373308,0.04512066470099747,0.12186752571192438,5.0
0.5392913669298346,-0.5662882170444428,-0.0677740707208478,-0.11344940146027808,0.047567545575250836,0.10420455017712468,5.0
0.5291535752335592,-0.5837584368548265,-0.0677740707208478,-0.10049825759761082,0.033701887443252775,0.09831689166552479,5.0
0.5291535752335592,-0.5793909105718268,-0.0645986389857809,-0.1061291903836754,0.018204974851053917,0.1227086196934152,5.0
0.5291535752335592,-0.561920690761443,-0.07094950071889601,-0.09993516397560852,0.04430503782063185,0.0999990796285064,5.0
0.5291535752335592,-0.5706557815535707,-0.09317751070523349,-0.09655660396057394,0.07693011521138401,0.11093330299079751,5.0
0.5392913669298346,-0.561920690761443,-0.08365122071108884,-0.10443990951766852,0.04185815686865965,0.1100922090093067,5.0
0.5291535752335592,-0.5793909105718268,-0.0645986389857809,-0.1359731317460468,0.02391436487886537,0.11850314946537903,5.0
0.525774311334801,-0.5662882170444428,-0.07094950071889601,-0.1382255045170768,0.009233077301780015,0.13111956014948753,5.0
0.5291535752335592,-0.5662882170444428,-0.09000208070718528,-0.13090529258198452,0.02962375241967398,0.1100922090093067,5.0
0.535912103031076,-0.5750233460626987,-0.0645986389857809,-0.11626486785331037,0.030439379921790306,0.10336345683679811,5.0
0.5291535752335592,-0.5662882170444428,-0.09000208070718528,-0.10162444312463623,0.04185815686865965,0.10504564479977972,5.0
0.5291535752335592,-0.561920690761443,-0.09317751070523349,-0.11344940146027808,0.043489410629390886,0.10925111470723378,5.0
0.5325328391323179,-0.5662882170444428,-0.09317751070523349,-0.09430423118954395,0.043489410629390886,0.1227086196934152,5.0
0.5392913669298346,-0.5706557815535707,-0.09635294417731911,-0.09543041843354853,0.01902060235317026,0.13027846680916094,5.0
0.5223950474360424,-0.5706557815535707,-0.08682665070913707,-0.09543041843354853,0.04512066470099747,0.11597986736061555,5.0
0.525774311334801,-0.5662882170444428,-0.09317751070523349,-0.09599351033857165,0.046751918617166384,0.09663470370254316,5.0
0.5223950474360424,-0.5706557815535707,-0.1027038041734155,-0.09768279120457853,0.03533314120398401,0.11850314946537903,5.0
0.5291535752335592,-0.5662882170444428,-0.09000208070718528,-0.09599351033857165,0.03451751370186768,0.1151387732989792,5.0
0.535912103031076,-0.5531855617431869,-0.10905466416951194,-0.10162444312463623,0.0394112762275628,0.1361661240384324,5.0
0.5291535752335592,-0.5531855617431869,-0.07730036071499242,-0.11401249508228037,0.050014426449504205,0.09915798628817983,5.0
0.5291535752335592,-0.5706557815535707,-0.08682665070913707,-0.10894465591821809,0.03533314120398401,0.12859627884617933,5.0
0.535912103031076,-0.5750233460626987,-0.07730036071499242,-0.11513868146779538,0.03207063368252154,0.12607299626054266,5.0
0.5392913669298346,-0.5793909105718268,-0.08682665070913707,-0.10049825759761082,0.05653944195874217,0.11934424376745197,5.0
0.5325328391323179,-0.5750233460626987,-0.1027038041734155,-0.11457558870428267,0.04512066470099747,0.10336345683679811,5.0
0.525774311334801,-0.5837584368548265,-0.09317751070523349,-0.11288630869676537,0.05246130724603873,0.09915798628817983,5.0
0.5291535752335592,-0.5662882170444428,-0.09000208070718528,-0.10387681589566622,0.07366760768992153,0.10841002072574296,5.0
0.5223950474360424,-0.5662882170444428,-0.07094950071889601,-0.11007084230373308,0.04022690310792842,0.08570048001966994,5.0
0.5223950474360424,-0.5662882170444428,-0.07094950071889601,-0.1320314789674995,0.05246130724603873,0.10841002072574296,5.0
0.5392913669298346,-0.5750233460626987,-0.08047579071304065,-0.12471126681778484,0.042673783749025265,0.12102643173043358,5.0
0.535912103031076,-0.5706557815535707,-0.08682665070913707,-0.11851724105358516,0.06632696514488028,0.1100922090093067,5.0
0.535912103031076,-0.5706557815535707,-0.08682665070913707,-0.12245889377847685,0.043489410629390886,0.12607299626054266,5.0
0.5190157835372843,-0.561920690761443,-0.10905466416951194,-0.14329334368113908,0.0394112762275628,0.10336345683679811,5.0
0.525774311334801,-0.5750233460626987,-0.09952837417536729,-0.1342838517385295,0.04185815686865965,0.0915881398135983,5.0
0.5291535752335592,-0.5793909105718268,-0.08365122071108884,-0.15849686117332593,0.060617576360570254,0.11850314946537903,5.0
0.5291535752335592,-0.5793909105718268,-0.08365122071108884,-0.14385643730314138,0.0712207276705754,0.07897172816774346,5.0
0.5460498947273541,-0.5837584368548265,-0.09317751070523349,-0.15342902200926364,0.08182387773707914,0.0798128227903985,5.0
0.535912103031076,-0.5662882170444428,-0.08047579071304065,-0.16187541947138134,0.1168958379450556,0.07897172816774346,5.0
0.535912103031076,-0.5662882170444428,-0.08047579071304065,-0.16187541947138134,0.10710831289366537,0.09327032777657993,5.0
0.535912103031076,-0.5750233460626987,-0.08047579071304065,-0.15680758030731906,0.10466143038731639,0.10420455017712468,5.0
0.5291535752335592,-0.5750233460626987,-0.07094950071889601,-0.17595275315352196,0.10303018035708943,0.10336345683679811,5.0
0.5291535752335592,-0.5750233460626987,-0.07094950071889601,-0.18327296337163507,0.06551133888626537,0.1277551842235243,5.0
0.5392913669298346,-0.561920690761443,-0.08365122071108884,-0.18552533785964423,0.06224883136480291,0.11345658517570653,5.0
0.5392913669298346,-0.5750233460626987,-0.08682665070913707,-0.20579669451589336,0.09161140030146651,0.0999990796285064,5.0
0.5291535752335592,-0.5662882170444428,-0.10905466416951194,-0.22043712182003627,0.10466143038731639,0.07644844686443526,5.0
0.5392913669298346,-0.5750233460626987,-0.10905466416951194,-0.21536927922201562,0.09895204284650781,0.0915881398135983,5.0
0.5426706308285955,-0.5793909105718268,-0.10905466416951194,-0.2345144486342602,0.11118645040424699,0.1151387732989792,5.0
0.5392913669298346,-0.5924935658730824,-0.12175638416170478,-0.21987402819803398,0.12015834297951523,0.11682096150239742,5.0
0.535912103031076,-0.5793909105718268,-0.10905466416951194,-0.1950979225657665,0.11037082290213067,0.1151387732989792,5.0
0.5223950474360424,-0.5837584368548265,-0.08682665070913707,-0.18214677612763047,0.07856137021561667,0.10084017425116144,5.0
0.5223950474360424,-0.5837584368548265,-0.08682665070913707,-0.18327296337163507,0.047567545575250836,0.09495251573956154,5.0
0.5291535752335592,-0.5793909105718268,-0.09952837417536729,-0.18946699321366028,0.0712207276705754,0.08485938796167182,5.0
0.5291535752335592,-0.5924935658730824,-0.11223009416756015,-0.1956610161877688,0.09568953781204814,0.09327032777657993,5.0
0.535912103031076,-0.6012286566652101,-0.1027038041734155,-0.19397173532176193,0.06388008512553414,0.10336345683679811,5.0
0.5223950474360424,-0.5837584368548265,-0.08682665070913707,-0.1967872034317734,0.06306445762341781,0.11597986736061555,5.0
0.5291535752335592,-0.5750233460626987,-0.08682665070913707,-0.19960267154178485,0.051645680365673116,0.10420455017712468,5.0
0.5223950474360424,-0.5793909105718268,-0.07730036071499242,-0.188903899591658,0.0712207276705754,0.10672783276276135,5.0
0.535912103031076,-0.5793909105718268,-0.09952837417536729,-0.17876821782957505,0.047567545575250836,0.10504564479977972,5.0
0.5325328391323179,-0.5837584368548265,-0.08047579071304065,-0.18045749869558195,0.03288625994113645,0.1227086196934152,5.0
0.5291535752335592,-0.5837584368548265,-0.07094950071889601,-0.1720110977995059,0.042673783749025265,0.1277551842235243,5.0
0.5223950474360424,-0.5706557815535707,-0.09635294417731911,-0.1680694458794482,0.012495587310245332,0.1386894079063975,5.0
0.5392913669298346,-0.5968611303822103,-0.10905466416951194,-0.17370037866551277,0.03288625994113645,0.12523190163788764,5.0
0.5325328391323179,-0.5881260013639544,-0.10905466416951194,-0.1646908875813928,0.027992498658942745,0.13280174811246914,5.0
0.5223950474360424,-0.5924935658730824,-0.1027038041734155,-0.17707894039752653,0.050014426449504205,0.12691408960086925,5.0
0.5291535752335592,-0.5837584368548265,-0.1027038041734155,-0.1720110977995059,0.027176872400327838,0.12607299626054266,5.0
0.525774311334801,-0.5662882170444428,-0.08365122071108884,-0.17820512420757278,0.05246130724603873,0.1151387732989792,5.0
0.5223950474360424,-0.5662882170444428,-0.08682665070913707,-0.1680694458794482,0.043489410629390886,0.1151387732989792,5.0
0.5223950474360424,-0.5662882170444428,-0.10905466416951194,-0.16750635225744592,0.04022690310792842,0.1353250306981058,5.0
0.535912103031076,-0.5750233460626987,-0.09952837417536729,-0.16243851309338364,0.043489410629390886,0.1227086196934152,5.0
0.5291535752335592,-0.5881260013639544,-0.09635294417731911,-0.15849686117332593,0.03614876870610033,0.13953049996439565,5.0
0.525774311334801,-0.5662882170444428,-0.10905466416951194,-0.17032182036745738,0.06551133888626537,0.1386894079063975,5.0
0.5392913669298346,-0.5750233460626987,-0.10587923417146373,-0.1691956331234528,0.06143320386268658,0.1151387732989792,5.0
0.5291535752335592,-0.5662882170444428,-0.09317751070523349,-0.15286592838726135,0.07285198018780521,0.11177439697228832,5.0
0.5392913669298346,-0.5837584368548265,-0.07730036071499242,-0.15680758030731906,0.05490818819801094,0.11682096150239742,5.0
0.5291535752335592,-0.5793909105718268,-0.09317751070523349,-0.14329334368113908,0.018204974851053917,0.12354971367490601,5.0
0.5291535752335592,-0.5881260013639544,-0.08047579071304065,-0.1337207589750168,0.02391436487886537,0.1277551842235243,5.0
0.5291535752335592,-0.5837584368548265,-0.09000208070718528,-0.1320314789674995,0.047567545575250836,0.10252236221414307,5.0
0.5392913669298346,-0.5750233460626987,-0.08682665070913707,-0.14441953092514367,0.07856137021561667,0.12439080829756105,5.0
0.535912103031076,-0.5793909105718268,-0.10587923417146373,-0.14160406453211138,0.04430503782063185,0.12018533774894277,5.0
0.5291535752335592,-0.5575531262523151,-0.09000208070718528,-0.14554571645216907,0.04104252998829403,0.08654157464232498,5.0
0.5223950474360424,-0.5662882170444428,-0.08365122071108884,-0.14329334368113908,0.06224883136480291,0.09411142111690651,5.0
0.5325328391323179,-0.561920690761443,-0.09635294417731911,-0.1410409709101091,0.03778002246683156,0.11177439697228832,5.0
0.5325328391323179,-0.5750233460626987,-0.11223009416756015,-0.15061355561623135,0.08345513274131179,0.1126154911140702,5.0
0.5291535752335592,-0.5837584368548265,-0.1027038041734155,-0.13034219895998223,0.06551133888626537,0.08822376388763506,5.0
0.5291535752335592,-0.5837584368548265,-0.11223009416756015,-0.11401249508228037,0.05572381507837655,0.10084017425116144,5.0
0.535912103031076,-0.5837584368548265,-0.11223009416756015,-0.11232321507476309,0.03288625994113645,0.11682096150239742,5.0
0.5325328391323179,-0.5706557815535707,-0.09952837417536729,-0.10838156315470539,0.03696439496471524,0.12018533774894277,5.0
0.5325328391323179,-0.5750233460626987,-0.1027038041734155,-0.12189580053206375,0.07611449019627052,0.10504564479977972,5.0
0.5291535752335592,-0.5531855617431869,-0.11223009416756015,-0.1320314789674995,0.027992498658942745,0.0798128227903985,5.0
0.5223950474360424,-0.5706557815535707,-0.12175638416170478,-0.09711969758257623,0.07611449019627052,0.09495251573956154,5.0
0.5291535752335592,-0.5750233460626987,-0.09000208070718528,-0.10443990951766852,0.05409256131764532,0.10420455017712468,5.0
0.535912103031076,-0.5750233460626987,-0.1281072441578012,-0.1055660967616731,0.05490818819801094,0.10336345683679811,5.0
0.5223950474360424,-0.5837584368548265,-0.12493181415975298,-0.1342838517385295,0.05490818819801094,0.07560735224178022,5.0
0.5426706308285955,-0.5837584368548265,-0.1281072441578012,-0.12865291938170972,0.08019262273284648,0.09831689166552479,5.0
0.5291535752335592,-0.5662882170444428,-0.11858095416365656,-0.11513868146779538,0.07774574271350032,0.08149501203570858,5.0
0.5392913669298346,-0.5662882170444428,-0.09952837417536729,-0.11007084230373308,0.06306445762341781,0.10336345683679811,5.0
0.5325328391323179,-0.5750233460626987,-0.09635294417731911,-0.11457558870428267,0.06469571138414905,0.0798128227903985,5.0
0.5291535752335592,-0.5706557815535707,-0.09317751070523349,-0.10838156315470539,0.06958947266634274,0.0974757983251982,5.0
0.5392913669298346,-0.561920690761443,-0.09000208070718528,-0.1095077486817308,0.053276934437279704,0.09495251573956154,5.0
0.5426706308285955,-0.5837584368548265,-0.09000208070718528,-0.1061291903836754,0.06306445762341781,0.09495251573956154,5.0
0.5291535752335592,-0.5837584368548265,-0.11223009416756015,-0.12358508027130305,0.07937699771773299,0.08570048001966994,5.0
0.5392913669298346,-0.5750233460626987,-0.1312826741558494,-0.11401249508228037,0.11200207293235766,0.11093330299079751,5.0
0.5392913669298346,-0.5968611303822103,-0.09952837417536729,-0.11063393592573538,0.09242702780358285,0.09663470370254316,5.0
0.535912103031076,-0.5531855617431869,-0.08682665070913707,-0.1033137239906431,0.08916452028212038,0.0974757983251982,5.0
0.5291535752335592,-0.5662882170444428,-0.11223009416756015,-0.1061291903836754,0.09079577279935021,0.09242923443625334,5.0
0.525774311334801,-0.5750233460626987,-0.1027038041734155,-0.11344940146027808,0.09242702780358285,0.09663470370254316,5.0
0.5291535752335592,-0.561920690761443,-0.11858095416365656,-0.09599351033857165,0.08671764026277426,0.0974757983251982,5.0
0.5392913669298346,-0.5662882170444428,-0.10905466416951194,-0.09486732481154624,0.06795822014911293,0.0915881398135983,5.0
0.5392913669298346,-0.5837584368548265,-0.09317751070523349,-0.09655660396057394,0.07611449019627052,0.09327032777657993,5.0
0.535912103031076,-0.5662882170444428,-0.10905466416951194,-0.09317804566251854,0.07040510016845908,0.08485938796167182,5.0
0.5392913669298346,-0.561920690761443,-0.10587923417146373,-0.09993516397560852,0.09324265530569917,0.08822376388763506,5.0
0.5291535752335592,-0.5706557815535707,-0.08047579071304065,-0.09937207035360623,0.05246130724603873,0.09074704519094326,5.0
0.5325328391323179,-0.5750233460626987,-0.09317751070523349,-0.08247927371239168,0.02636124489821151,0.11345658517570653,5.0
0.535912103031076,-0.5837584368548265,-0.07730036071499242,-0.09036257755250707,0.07693011521138401,0.08990595056828822,5.0
0.5392913669298346,-0.5881260013639544,-0.09000208070718528,-0.10781846953270309,0.08753326776489057,0.09327032777657993,5.0
0.5223950474360424,-0.5750233460626987,-0.09635294417731911,-0.11232321507476309,0.05817069634122411,0.07560735224178022,5.0
0.5291535752335592,-0.5575531262523151,-0.10905466416951194,-0.13034219895998223,0.05246130724603873,0.10084017425116144,5.0
0.525774311334801,-0.5531855617431869,-0.0645986389857809,-0.1342838517385295,0.05898632259983902,0.07140188169316194,5.0
0.5460498947273541,-0.5662882170444428,-0.1027038041734155,-0.1337207589750168,0.07366760768992153,0.09579361036221658,5.0
0.535912103031076,-0.561920690761443,-0.11858095416365656,-0.12245889377847685,0.10058329785074042,0.09495251573956154,5.0
0.5223950474360424,-0.548817997234059,-0.1027038041734155,-0.11344940146027808,0.07856137021561667,0.07813063354508841,5.0
0.5190157835372843,-0.5662882170444428,-0.09000208070718528,-0.10669228228869851,0.06143320386268658,0.0890648585102901,5.0
0.5291535752335592,-0.5706557815535707,-0.10587923417146373,-0.11288630869676537,0.05653944195874217,0.10252236221414307,5.0
0.525774311334801,-0.5662882170444428,-0.10905466416951194,-0.11513868146779538,0.08427075775642526,0.0840182933390168,5.0
0.5190157835372843,-0.548817997234059,-0.09952837417536729,-0.12865291938170972,0.09895204284650781,0.0840182933390168,5.0
0.5156365196385256,-0.5444504709510593,-0.09317751070523349,-0.11232321507476309,0.06714259264699661,0.055421096686000766,5.0
0.5156365196385256,-0.5138775576132917,-0.08682665070913707,-0.11682796147531266,0.014942467329591456,0.052897812818035655,5.0
0.5392913669298346,-0.548817997234059,-0.09635294417731911,-0.12640054661067973,0.0850863852585416,0.07308407093847202,5.0
0.5392913669298346,-0.5313477774236754,-0.09635294417731911,-0.14610881007417137,0.05898632259983902,0.08149501203570858,5.0
0.5426706308285955,-0.5357153419328033,-0.09952837417536729,-0.1382255045170768,0.07774574271350032,0.0999990796285064,5.0
0.5291535752335592,-0.5531855617431869,-0.09317751070523349,-0.12527436001054235,0.08671764026277426,0.09663470370254316,5.0
0.5291535752335592,-0.5531855617431869,-0.09317751070523349,-0.14441953092514367,0.10384580785920575,0.0915881398135983,5.0
0.5392913669298346,-0.5662882170444428,-0.08365122071108884,-0.1399147836661045,0.08671764026277426,0.0999990796285064,5.0
0.5325328391323179,-0.5662882170444428,-0.08682665070913707,-0.14498262283016677,0.09242702780358285,0.08990595056828822,5.0
0.5291535752335592,-0.5575531262523151,-0.09317751070523349,-0.15173974286023595,0.0850863852585416,0.10084017425116144,5.0
0.5291535752335592,-0.5531855617431869,-0.08047579071304065,-0.14498262283016677,0.12097397048163155,0.0915881398135983,5.0
0.5223950474360424,-0.5750233460626987,-0.0645986389857809,-0.14836118284520136,0.09242702780358285,0.1126154911140702,5.0
0.525774311334801,-0.561920690761443,-0.0677740707208478,-0.15286592838726135,0.11852709294928825,0.1227086196934152,5.0
0.5291535752335592,-0.561920690761443,-0.07094950071889601,-0.1370993181315618,0.08345513274131179,0.10588673878127054,5.0
0.5392913669298346,-0.5662882170444428,-0.08047579071304065,-0.1354100381240445,0.09568953781204814,0.1100922090093067,5.0
0.5392913669298346,-0.5662882170444428,-0.08047579071304065,-0.13146838534549724,0.1079239403957817,0.10925111470723378,5.0
0.5392913669298346,-0.5531855617431869,-0.06142320898773267,-0.12640054661067973,0.10547705788943273,0.10168126887381648,5.0
0.5223950474360424,-0.5531855617431869,-0.0677740707208478,-0.1376624108950745,0.12913024052878913,0.10672783276276135,5.0
0.5223950474360424,-0.5531855617431869,-0.0677740707208478,-0.14441953092514367,0.10303018035708943,0.10672783276276135,5.0
0.5223950474360424,-0.5662882170444428,-0.08682665070913707,-0.13034219895998223,0.11526458294082295,0.10504564479977972,5.0
0.5392913669298346,-0.5662882170444428,-0.10905466416951194,-0.1393516917610814,0.11118645040424699,0.09915798628817983,5.0
0.5392913669298346,-0.5662882170444428,-0.10905466416951194,-0.14216715815411368,0.13728651057594674,0.08149501203570858,5.0
0.525774311334801,-0.5575531262523151,-0.09000208070718528,-0.12414817351771613,0.16501782575187912,0.10672783276276135,5.0
0.5190157835372843,-0.5706557815535707,-0.07730036071499242,-0.10443990951766852,0.1323927455632488,0.10420455017712468,5.0
0.5291535752335592,-0.5706557815535707,-0.09317751070523349,-0.11119702868924809,0.1739897282751587,0.14457706513566895,5.0
0.5291535752335592,-0.5706557815535707,-0.10905466416951194,-0.10218753674663852,0.13402400056748143,0.11177439697228832,5.0
0.525774311334801,-0.5837584368548265,-0.09952837417536729,-0.08698401925445166,0.11281770043447398,0.12607299626054266,5.0
0.5291535752335592,-0.561920690761443,-0.05824777898968447,-0.0768483409263271,0.06469571138414905,0.13111956014948753,5.0
0.5325328391323179,-0.548817997234059,-0.08047579071304065,-0.08529473838844479,0.06714259264699661,0.14878253568428723,5.0
0.5291535752335592,-0.5575531262523151,-0.0645986389857809,-0.09824588482658084,0.025545617396095188,0.11766205548388822,5.0
0.5223950474360424,-0.5313477774236754,-0.08047579071304065,-0.1055660967616731,0.025545617396095188,0.09327032777657993,5.0
0.5325328391323179,-0.5444504709510593,-0.09635294417731911,-0.09486732481154624,0.042673783749025265,0.1386894079063975,5.0
0.5291535752335592,-0.5750233460626987,-0.08047579071304065,-0.0807899928463848,0.023098737376749046,0.10672783276276135,5.0
0.5325328391323179,-0.5531855617431869,-0.07412493071694423,-0.07797452817033168,0.03125500618040521,0.10336345683679811,5.0
0.5426706308285955,-0.548817997234059,-0.08047579071304065,-0.07459596643831792,0.07366760768992153,0.11682096150239742,5.0
0.5291535752335592,-0.5531855617431869,-0.06142320898773267,-0.08360546095639626,0.03778002246683156,0.09831689166552479,5.0
0.5223950474360424,-0.5444504709510593,-0.05824777898968447,-0.0847316447664425,0.01902060235317026,0.12354971367490601,5.0
0.535912103031076,-0.5400829064419314,-0.07094950071889601,-0.07797452817033168,0.04430503782063185,0.08822376388763506,5.0
0.535912103031076,-0.5357153419328033,-0.08682665070913707,-0.08360546095639626,0.06632696514488028,0.10925111470723378,5.0
0.525774311334801,-0.5313477774236754,-0.05824777898968447,-0.09599351033857165,0.03288625994113645,0.10588673878127054,5.0
0.535912103031076,-0.548817997234059,-0.08047579071304065,-0.09655660396057394,0.02391436487886537,0.08822376388763506,5.0
0.535912103031076,-0.548817997234059,-0.08682665070913707,-0.10781846953270309,0.030439379921790306,0.09495251573956154,5.0
0.5291535752335592,-0.5531855617431869,-0.09317751070523349,-0.09599351033857165,0.03207063368252154,0.11682096150239742,5.0
0.5291535752335592,-0.5531855617431869,-0.08682665070913707,-0.09543041843354853,0.008417452286666521,0.1126154911140702,5.0
0.5392913669298346,-0.548817997234059,-0.07730036071499242,-0.10443990951766852,0.012495587310245332,0.13196065477214258,5.0
0.535912103031076,-0.5662882170444428,-0.07412493071694423,-0.11232321507476309,0.009233077301780015,0.145418159758324,5.0
0.5325328391323179,-0.561920690761443,-0.07094950071889601,-0.10218753674663852,0.023098737376749046,0.12439080829756105,5.0
0.5392913669298346,-0.548817997234059,-0.09000208070718528,-0.11176012231125038,0.0002611797525061129,0.13784831328374247,5.0
0.5392913669298346,-0.548817997234059,-0.09000208070718528,-0.11626486785331037,0.03288625994113645,0.11345658517570653,5.0
0.5392913669298346,-0.5531855617431869,-0.07730036071499242,-0.1072553759107008,0.027992498658942745,0.12018533774894277,5.0
0.5392913669298346,-0.5444504709510593,-0.10587923417146373,-0.09261495204051624,0.042673783749025265,0.10672783276276135,5.0
0.5392913669298346,-0.5444504709510593,-0.10587923417146373,-0.11457558870428267,0.06632696514488028,0.1100922090093067,5.0
0.5392913669298346,-0.561920690761443,-0.08365122071108884,-0.12414817351771613,0.06388008512553414,0.14037159458705067,5.0
0.5291535752335592,-0.5750233460626987,-0.08047579071304065,-0.12471126681778484,0.05898632259983902,0.1386894079063975,5.0
0.5291535752335592,-0.5750233460626987,-0.08047579071304065,-0.10387681589566622,0.057355068839107785,0.12018533774894277,5.0
0.5291535752335592,-0.5531855617431869,-0.07094950071889601,-0.11007084230373308,0.059801950101955346,0.14373597051301393,5.0
0.5426706308285955,-0.5444504709510593,-0.08047579071304065,-0.10838156315470539,0.07203635517269172,0.1361661240384324,5.0
0.5426706308285955,-0.5444504709510593,-0.08047579071304065,-0.10275063036864081,0.08834889278000407,0.13280174811246914,5.0
0.5392913669298346,-0.5400829064419314,-0.08047579071304065,-0.11119702868924809,0.07937699771773299,0.1227086196934152,5.0
0.5291535752335592,-0.5706557815535707,-0.07094950071889601,-0.12358508027130305,0.08590201276065791,0.1529880062329055,5.0
0.5291535752335592,-0.5706557815535707,-0.07094950071889601,-0.08811020649845624,0.059801950101955346,0.09495251573956154,5.0
0.5325328391323179,-0.5531855617431869,-0.08047579071304065,-0.09599351033857165,0.0712207276705754,0.12354971367490601,5.0
0.535912103031076,-0.5444504709510593,-0.09952837417536729,-0.1095077486817308,0.09242702780358285,0.1353250306981058,5.0
0.5325328391323179,-0.5400829064419314,-0.09317751070523349,-0.08642092563244938,0.03451751370186768,0.14289487845501578,5.0
0.5291535752335592,-0.5531855617431869,-0.08682665070913707,-0.06783884984220712,0.014126839827475134,0.14121268920970573,5.0
0.5426706308285955,-0.5662882170444428,-0.07094950071889601,-0.08698401925445166,0.059801950101955346,0.11766205548388822,5.0
0.5392913669298346,-0.561920690761443,-0.06142320898773267,-0.09486732481154624,0.06632696514488028,0.10841002072574296,5.0
0.5426706308285955,-0.561920690761443,-0.0645986389857809,-0.1033137239906431,0.016573722333824106,0.09915798628817983,5.0
0.5291535752335592,-0.5531855617431869,-0.07730036071499242,-0.10894465591821809,0.04430503782063185,0.12102643173043358,5.0
0.535912103031076,-0.548817997234059,-0.08047579071304065,-0.10218753674663852,0.050014426449504205,0.1227086196934152,5.0
0.5392913669298346,-0.561920690761443,-0.08047579071304065,-0.09655660396057394,0.03207063368252154,0.11093330299079751,5.0
0.5392913669298346,-0.5750233460626987,-0.09952837417536729,-0.10218753674663852,0.07611449019627052,0.11850314946537903,5.0
0.5392913669298346,-0.5750233460626987,-0.08047579071304065,-0.08698401925445166,0.0752988626941542,0.12186752571192438,5.0
0.5392913669298346,-0.5750233460626987,-0.07730036071499242,-0.08867330012045854,0.06958947266634274,0.12859627884617933,5.0
0.525774311334801,-0.5837584368548265,-0.0645986389857809,-0.08642092563244938,0.021467482372516385,0.1227086196934152,5.0
0.5223950474360424,-0.5662882170444428,-0.0645986389857809,-0.09993516397560852,0.021467482372516385,0.1100922090093067,5.0
0.5291535752335592,-0.5662882170444428,-0.11223009416756015,-0.09993516397560852,0.0002611797525061129,0.12439080829756105,5.0
0.5291535752335592,-0.5575531262523151,-0.1027038041734155,-0.09880897673160392,0.028808124917557652,0.13700721866108742,5.0
0.5325328391323179,-0.5750233460626987,-0.08682665070913707,-0.09824588482658084,0.03533314120398401,0.12186752571192438,5.0
0.5392913669298346,-0.5531855617431869,-0.07094950071889601,-0.10218753674663852,0.043489410629390886,0.13196065477214258,5.0
0.535912103031076,-0.5575531262523151,-0.07412493071694423,-0.11063393592573538,0.03778002246683156,0.09915798628817983,5.0
0.5325328391323179,-0.5837584368548265,-0.08682665070913707,-0.10669228228869851,0.021467482372516385,0.12691408960086925,5.0
0.525774311334801,-0.5750233460626987,-0.08365122071108884,-0.10387681589566622,0.02636124489821151,0.11093330299079751,5.0
0.5325328391323179,-0.5662882170444428,-0.09952837417536729,-0.10387681589566622,0.06224883136480291,0.11766205548388822,5.0
0.535912103031076,-0.561920690761443,-0.08682665070913707,-0.10049825759761082,0.043489410629390886,0.0999990796285064,5.0
0.5291535752335592,-0.5750233460626987,-0.1027038041734155,-0.10894465591821809,0.018204974851053917,0.12102643173043358,5.0
0.5392913669298346,-0.5662882170444428,-0.10905466416951194,-0.11344940146027808,0.03451751370186768,0.0974757983251982,5.0
0.5426706308285955,-0.5750233460626987,-0.09635294417731911,-0.12752673299619474,0.06388008512553414,0.0999990796285064,5.0
0.5392913669298346,-0.5750233460626987,-0.08047579071304065,-0.12245889377847685,0.046751918617166384,0.10252236221414307,5.0
0.5392913669298346,-0.5968611303822103,-0.05189691899358805,-0.11007084230373308,0.05246130724603873,0.12018533774894277,5.0
0.5392913669298346,-0.5793909105718268,-0.0677740707208478,-0.11344940146027808,0.043489410629390886,0.09495251573956154,5.0
0.535912103031076,-0.5837584368548265,-0.06142320898773267,-0.11570177508979766,0.05246130724603873,0.09242923443625334,5.0
0.535912103031076,-0.5750233460626987,-0.07094950071889601,-0.11232321507476309,0.03859564872544647,0.10504564479977972,5.0
0.535912103031076,-0.5750233460626987,-0.07094950071889601,-0.12471126681778484,0.07366760768992153,0.10420455017712468,5.0
0.535912103031076,-0.5750233460626987,-0.09317751070523349,-0.12696363980343722,0.08427075775642526,0.09915798628817983,5.0
0.5291535752335592,-0.5662882170444428,-0.0645986389857809,-0.1325945725895018,0.07366760768992153,0.08570048001966994,5.0
0.5291535752335592,-0.5662882170444428,-0.0645986389857809,-0.13090529258198452,0.05409256131764532,0.10252236221414307,5.0
0.535912103031076,-0.5662882170444428,-0.07094950071889601,-0.14610881007417137,0.030439379921790306,0.09663470370254316,5.0
0.5291535752335592,-0.5706557815535707,-0.08047579071304065,-0.1404778772881068,0.06388008512553414,0.07140188169316194,5.0
0.5291535752335592,-0.5706557815535707,-0.08047579071304065,-0.1404778772881068,0.11608021044293927,0.057944375424652056,5.0
0.5291535752335592,-0.5750233460626987,-0.09000208070718528,-0.15230283476525905,0.11200207293235766,0.05626219130865582,5.0
0.5156365196385256,-0.5706557815535707,-0.07412493071694423,-0.12921601257446722,0.03125500618040521,0.055421096686000766,5.0
0.5190157835372843,-0.561920690761443,-0.09000208070718528,-0.12076961403923756,0.010048704803896332,0.06467312727657855,5.0
0.5190157835372843,-0.561920690761443,-0.09000208070718528,-0.09543041843354853,0.0394112762275628,0.06130875391527222,5.0
0.5392913669298346,-0.5750233460626987,-0.09952837417536729,-0.11176012231125038,0.00678619728243387,0.057944375424652056,5.0
0.5392913669298346,-0.5750233460626987,-0.09952837417536729,-0.12583745320329984,-0.014420105337576407,0.035234836000907495,5.0
0.5528084225248708,-0.5750233460626987,-0.11540552416560834,-0.1050030031396708,0.06224883136480291,0.019254048429089416,5.0
0.5426706308285955,-0.5575531262523151,-0.11540552416560834,-0.11682796147531266,0.09242702780358285,0.04616906096610918,5.0
0.5223950474360424,-0.5444504709510593,-0.09952837417536729,-0.1072553759107008,0.09895204284650781,0.07224297631581698,5.0
0.5156365196385256,-0.5357153419328033,-0.10587923417146373,-0.13090529258198452,0.09079577279935021,0.09074704519094326,5.0
0.5223950474360424,-0.5444504709510593,-0.07094950071889601,-0.12471126681778484,0.04430503782063185,0.12186752571192438,5.0
0.5426706308285955,-0.5662882170444428,-0.07412493071694423,-0.1348469453605318,0.050830053485307496,0.10925111470723378,5.0
0.5291535752335592,-0.5750233460626987,-0.08365122071108884,-0.1393516917610814,0.09324265530569917,0.08485938796167182,5.0
0.5325328391323179,-0.5575531262523151,-0.1027038041734155,-0.1359731317460468,0.08590201276065791,0.10168126887381648,5.0
0.5392913669298346,-0.561920690761443,-0.09952837417536729,-0.1354100381240445,0.11037082290213067,0.0974757983251982,5.0
0.5325328391323179,-0.5662882170444428,-0.09317751070523349,-0.11119702868924809,0.08834889278000407,0.0840182933390168,5.0
0.5460498947273541,-0.5531855617431869,-0.09317751070523349,-0.10443990951766852,0.11118645040424699,0.07644844686443526,5.0
0.535912103031076,-0.5531855617431869,-0.0677740707208478,-0.11119702868924809,0.07937699771773299,0.07560735224178022,5.0
0.5325328391323179,-0.5531855617431869,-0.0677740707208478,-0.09655660396057394,0.007601824784550209,0.09579361036221658,5.0
0.5291535752335592,-0.5400829064419314,-0.05824777898968447,-0.08585783201044708,0.04512066470099747,0.10756892674425216,5.0
0.5291535752335592,-0.548817997234059,-0.09000208070718528,-0.08698401925445166,0.059801950101955346,0.11093330299079751,5.0
0.512257255739767,-0.561920690761443,-0.08682665070913707,-0.09768279120457853,0.057355068839107785,0.11345658517570653,5.0
0.512257255739767,-0.561920690761443,-0.08682665070913707,-0.09768279120457853,0.08019262273284648,0.10588673878127054,5.0
0.512257255739767,-0.561920690761443,-0.08682665070913707,-0.09768279120457853,0.08019262273284648,0.10588673878127054,5.0
0.512257255739767,-0.561920690761443,-0.08682665070913707,-0.1370993181315618,0.12668336299644584,0.12102643173043358,5.0
0.5392913669298346,-0.5444504709510593,-0.09317751070523349,-0.13146838534549724,0.1168958379450556,0.1151387732989792,5.0
0.5392913669298346,-0.5444504709510593,-0.09317751070523349,-0.12752673299619474,0.09079577279935021,0.07644844686443526,5.0
0.5392913669298346,-0.5444504709510593,-0.07094950071889601,-0.12583745320329984,0.09813641534439145,0.09327032777657993,5.0
0.5392913669298346,-0.561920690761443,-0.07730036071499242,-0.11795414786082765,0.08753326776489057,0.06887860038985374,5.0
0.535912103031076,-0.5444504709510593,-0.0645986389857809,-0.11119702868924809,0.059801950101955346,0.07224297631581698,5.0
0.535912103031076,-0.5313477774236754,-0.08047579071304065,-0.12020652084648005,0.042673783749025265,0.13196065477214258,5.0
0.525774311334801,-0.5400829064419314,-0.07730036071499242,-0.11401249508228037,0.0059705722673203745,0.12186752571192438,5.0
0.5291535752335592,-0.5662882170444428,-0.06142320898773267,-0.1095077486817308,-0.0030013252819535274,0.12943737218650592,5.0
0.535912103031076,-0.561920690761443,-0.08365122071108884,-0.1095077486817308,0.01902060235317026,0.13027846680916094,5.0
0.5392913669298346,-0.5662882170444428,-0.08682665070913707,-0.1061291903836754,0.06388008512553414,0.13196065477214258,5.0
0.5460498947273541,-0.5750233460626987,-0.08682665070913707,-0.1033137239906431,0.06632696514488028,0.10168126887381648,5.0
0.5426706308285955,-0.561920690761443,-0.08047579071304065,-0.09711969758257623,0.07774574271350032,0.10841002072574296,5.0
0.535912103031076,-0.5444504709510593,-0.09317751070523349,-0.09768279120457853,0.08182387773707914,0.0840182933390168,5.0
0.5426706308285955,-0.5444504709510593,-0.08682665070913707,-0.09374113928452082,0.06388008512553414,0.09242923443625334,5.0
0.525774311334801,-0.5531855617431869,-0.05507234899163626,-0.1061291903836754,0.05490818819801094,0.09327032777657993,5.0
0.5291535752335592,-0.5531855617431869,-0.0645986389857809,-0.09599351033857165,0.014126839827475134,0.12943737218650592,5.0
0.535912103031076,-0.548817997234059,-0.0677740707208478,-0.09486732481154624,0.04022690310792842,0.12354971367490601,5.0
0.5392913669298346,-0.5662882170444428,-0.039195197481503845,-0.09036257755250707,0.03533314120398401,0.12102643173043358,5.0
0.535912103031076,-0.5662882170444428,-0.05507234899163626,-0.08585783201044708,0.02962375241967398,0.12523190163788764,5.0
0.5426706308285955,-0.5531855617431869,-0.07412493071694423,-0.08416855457839856,0.02391436487886537,0.1227086196934152,5.0
0.5325328391323179,-0.5531855617431869,-0.05824777898968447,-0.10162444312463623,0.051645680365673116,0.10504564479977972,5.0
0.5460498947273541,-0.5706557815535707,-0.05824777898968447,-0.09430423118954395,0.050014426449504205,0.1100922090093067,5.0
0.5291535752335592,-0.5662882170444428,-0.08682665070913707,-0.08585783201044708,0.0394112762275628,0.1126154911140702,5.0
0.5223950474360424,-0.5531855617431869,-0.05507234899163626,-0.08360546095639626,0.07937699771773299,0.09074704519094326,5.0
0.5223950474360424,-0.5531855617431869,-0.05824777898968447,-0.0807899928463848,0.047567545575250836,0.12354971367490601,5.0
0.5291535752335592,-0.5444504709510593,-0.07412493071694423,-0.06952812727425563,0.06551133888626537,0.12354971367490601,5.0
0.512257255739767,-0.5531855617431869,-0.08365122071108884,-0.07797452817033168,0.02391436487886537,0.15046472492959734,5.0
0.5291535752335592,-0.5444504709510593,-0.08682665070913707,-0.08135308646838708,0.04022690310792842,0.11766205548388822,5.0
0.5392913669298346,-0.5444504709510593,-0.08047579071304065,-0.07966380560238022,0.04512066470099747,0.13196065477214258,5.0
0.5460498947273541,-0.5444504709510593,-0.08365122071108884,-0.08247927371239168,0.06306445762341781,0.13027846680916094,5.0
0.5494291586261122,-0.5444504709510593,-0.08047579071304065,-0.0807899928463848,0.07203635517269172,0.11850314946537903,5.0
0.5426706308285955,-0.5531855617431869,-0.08365122071108884,-0.08529473838844479,0.06632696514488028,0.11093330299079751,5.0
0.5426706308285955,-0.5357153419328033,-0.1027038041734155,-0.08191618009038938,0.04104252998829403,0.1126154911140702,5.0
0.5426706308285955,-0.5444504709510593,-0.08047579071304065,-0.09486732481154624,0.05246130724603873,0.14710034643897715,5.0
0.5392913669298346,-0.5531855617431869,-0.07094950071889601,-0.09768279120457853,0.02962375241967398,0.11766205548388822,5.0
0.5392913669298346,-0.548817997234059,-0.07412493071694423,-0.09486732481154624,0.06143320386268658,0.12523190163788764,5.0
0.5325328391323179,-0.5575531262523151,-0.07730036071499242,-0.09824588482658084,0.0712207276705754,0.11934424376745197,5.0
0.5291535752335592,-0.5444504709510593,-0.07094950071889601,-0.09486732481154624,0.02391436487886537,0.11177439697228832,5.0
0.535912103031076,-0.5531855617431869,-0.07094950071889601,-0.08416855457839856,0.020651854870400062,0.11934424376745197,5.0
0.5291535752335592,-0.5575531262523151,-0.09317751070523349,-0.09148876479651166,0.019836229855286575,0.10841002072574296,5.0
0.535912103031076,-0.5750233460626987,-0.0645986389857809,-0.09937207035360623,0.028808124917557652,0.12354971367490601,5.0
0.5325328391323179,-0.5706557815535707,-0.08047579071304065,-0.09486732481154624,0.050830053485307496,0.08738266926498002,5.0
0.535912103031076,-0.5662882170444428,-0.08682665070913707,-0.09768279120457853,0.07856137021561667,0.07897172816774346,5.0
0.535912103031076,-0.561920690761443,-0.09317751070523349,-0.10106135121961311,0.05653944195874217,0.1151387732989792,5.0
0.535912103031076,-0.5706557815535707,-0.08047579071304065,-0.1072553759107008,0.051645680365673116,0.10336345683679811,5.0
0.5223950474360424,-0.5531855617431869,-0.07412493071694423,-0.1050030031396708,0.025545617396095188,0.1100922090093067,5.0
0.5223950474360424,-0.5269802129145472,-0.07412493071694423,-0.11795414786082765,0.051645680365673116,0.10756892674425216,5.0
0.5325328391323179,-0.5400829064419314,-0.09635294417731911,-0.1354100381240445,0.059801950101955346,0.09074704519094326,5.0
0.5426706308285955,-0.5444504709510593,-0.06142320898773267,-0.1556813964972728,0.06143320386268658,0.1361661240384324,5.0
0.5392913669298346,-0.548817997234059,-0.07094950071889601,-0.14948737008920596,0.051645680365673116,0.12018533774894277,5.0
0.5392913669298346,-0.5662882170444428,-0.08365122071108884,-0.1556813964972728,0.07774574271350032,0.0915881398135983,5.0
0.5494291586261122,-0.5793909105718268,-0.09317751070523349,-0.15342902200926364,0.09242702780358285,0.0999990796285064,5.0
0.5291535752335592,-0.5837584368548265,-0.08047579071304065,-0.1393516917610814,0.08345513274131179,0.09074704519094326,5.0
0.5223950474360424,-0.5881260013639544,-0.05824777898968447,-0.11908033424634266,0.0394112762275628,0.0999990796285064,5.0
0.5223950474360424,-0.5968611303822103,-0.07412493071694423,-0.08135308646838708,0.03207063368252154,0.12523190163788764,5.0
0.5291535752335592,-0.5750233460626987,-0.09317751070523349,-0.0802268992243825,0.050830053485307496,0.11345658517570653,5.0
0.5291535752335592,-0.5662882170444428,-0.08682665070913707,-0.0734697826282717,0.06306445762341781,0.14457706513566895,5.0
0.5223950474360424,-0.5750233460626987,-0.08047579071304065,-0.07121740814026252,0.050830053485307496,0.1227086196934152,5.0
0.5223950474360424,-0.5750233460626987,-0.08047579071304065,-0.07065431451826024,0.030439379921790306,0.12018533774894277,5.0
0.5291535752335592,-0.548817997234059,-0.07730036071499242,-0.06389719792214942,0.021467482372516385,0.14037159458705067,5.0
0.5325328391323179,-0.561920690761443,-0.09317751070523349,-0.05714007445812192,0.007601824784550209,0.1126154911140702,5.0
0.5325328391323179,-0.561920690761443,-0.09317751070523349,-0.039684185911884225,0.03778002246683156,0.10420455017712468,5.0
0.5325328391323179,-0.5575531262523151,-0.08682665070913707,-0.04531512213190716,0.042673783749025265,0.10420455017712468,5.0
0.5325328391323179,-0.5575531262523151,-0.05507234899163626,-0.039684185911884225,0.05817069634122411,0.10841002072574296,5.0
0.5325328391323179,-0.5575531262523151,-0.05507234899163626,-0.04475202850990487,0.019836229855286575,0.11345658517570653,5.0
0.5223950474360424,-0.5444504709510593,-0.04872148812703049,-0.0492567706180065,0.0173893473489376,0.09074704519094326,5.0
0.5291535752335592,-0.548817997234059,-0.07094950071889601,-0.06727575622020482,0.02962375241967398,0.07392516299647015,5.0
0.5291535752335592,-0.5357153419328033,-0.08047579071304065,-0.0847316447664425,0.05572381507837655,0.0798128227903985,5.0
0.5291535752335592,-0.5357153419328033,-0.08365122071108884,-0.09205185841851395,0.06224883136480291,0.09915798628817983,5.0
0.5426706308285955,-0.5269802129145472,-0.09635294417731911,-0.09036257755250707,0.06958947266634274,0.08990595056828822,5.0
0.5392913669298346,-0.5400829064419314,-0.08682665070913707,-0.1061291903836754,0.08345513274131179,0.08990595056828822,5.0
