acc_x,acc_y,acc_z,gyro_x,gyro_y,gyro_z,activity
-0.9078570546079884,0.9481832538539162,2.1915296025639384,-0.09097418778175254,-0.4857614158559868,0.07421012991085597,0.0
-0.9361669070543832,0.918666692472431,2.1811962930780715,-0.0714474075897115,-0.47867791180883934,-0.019979925645836276,0.0
-0.9432443701659821,0.9235861265453859,2.1846407295733608,-0.07958356627871428,-0.5542353523087091,-0.1270591368345978,0.0
-0.9326281754985842,0.9629415130165372,2.205307348545095,-0.13979114839207837,-0.26459854185708437,-0.09334901423384048,0.0
-0.9397056386101826,0.9235861265453859,2.22252953102154,-0.19728667829823907,-0.24334799131746332,-0.1369738858893968,0.0
-0.9326281754985842,0.8645530468386587,2.229418404012118,-0.16962373610936726,-0.25830208528224685,-0.22918097954234967,0.0
-0.9326281754985842,0.7809228398234015,2.22252953102154,-0.06927776350846916,-0.33307243991162777,-0.39574866692073557,0.0
-0.8830860576052085,0.810439379676765,2.2776402737729047,-0.0573447276772923,-0.1858928730697961,-0.4096292914118949,0.0
-0.8972409838284058,0.9235861265453859,2.32930682120224,-0.033478656014938594,-0.23311625898289737,-0.4304502523341933,0.0
-0.8406214028234317,1.1006853656655666,2.4533062938593853,-0.04595410286642604,-0.7179430696617652,-0.5028278599703276,0.0
-0.8300052081560335,1.1449601862096728,2.4326396748876515,-0.3681460239986091,-0.882437949681668,-0.3759191688111376,0.0
-0.8158502819328363,1.1302019270470514,2.349973440173974,-0.6393513753781573,-0.6502562190795318,-0.2579337397084871,0.0
-0.8830860576052085,1.0564105881777033,2.1743074200874934,-0.6507420001890236,-0.6038199190369193,-0.4334246891434126,0.0
-0.8795473260494092,1.0268940267962183,2.1260855503267067,-0.3334317583926677,-0.5888658250721357,-0.49886196034840824,0.0
-0.858314936714613,0.9973775084709763,2.0813078758879495,-0.19077774936234007,-0.6423856675600745,-0.4899386982918686,0.0
-0.858314936714613,1.0022968994876882,2.0847523123832383,-0.11972195366515952,-0.9091978709256374,-0.3739362431857369,0.0
-0.8653923998262117,1.017055201706552,2.0124192665687985,-0.21193176923096885,-0.6801644070090987,-0.3650129811291976,0.0
-0.890163520716807,0.9235861265453859,1.9366419048456995,-0.2113893582106583,-0.5085860613402275,-0.5890861404687399,0.0
-0.8760085944936097,0.913747301455719,1.9125308493786766,-0.13219739927621146,-0.32677598333679025,-0.6812932462144727,0.0
-0.8406214028234317,0.913747301455719,1.9125308493786766,-0.0014764256635821202,-0.3000160620928209,-0.7348328669248276,0.0
-0.8158502819328363,0.9039084333098102,1.9331974683504107,0.1813159624836209,-0.31733129847453434,-0.8597586324586173,0.0
-0.7769243587068586,0.9531026879268707,1.9883083316884052,0.29196773123910796,-0.46923322694658337,-0.9093323535470529,0.0
-0.7167660461460853,1.017055201706552,1.9779750222025378,0.263219980240927,-0.17329995992012123,-0.7675514783417663,0.0
-0.7167660461460853,1.0859271065029454,1.9917527681836944,0.0115414255925599,0.667276416847985,-0.6684040845360133,0.0
-0.6813787305880917,1.1105242338114758,2.11575224084084,-0.03402106703524917,0.7286668492535598,-0.5871032148433393,0.0
-0.6459915389179136,1.1843155726808239,2.1984184755545164,-0.06927776350846916,0.3005080709518706,-0.47010924855338904,0.0
-0.6778399990322925,1.2630263886793691,2.146752169298441,-0.01666393423227849,-0.08514962546966634,-0.3392346335867201,0.0
-0.6778399990322925,1.2630263886793691,2.146752169298441,0.03215303113305008,-0.008805147097031474,-0.05666446691664351,0.0
-0.7203047777018848,1.2039932659163994,2.1536408011157593,0.0489677661470222,0.7625102361464976,0.11585204873225756,0.0
-0.7379983115930658,1.1843155726808239,2.205307348545095,0.025644098889323088,0.7845478725566075,0.10593730572384838,0.0
-0.7521532378162634,1.1892350067537782,2.225973967516829,-0.12134918672609127,0.6861657865724969,0.12477531381199193,0.0
-0.7733856271510594,1.1990738748996879,2.22252953102154,-0.277021038742991,0.842789999878406,0.02860231449072968,0.0
-0.7875405533742567,1.2039932659163994,2.1846407295733608,-0.3545857683378126,0.7310280300686687,-0.04179235542722462,0.0
-0.822927745044435,1.179396181664112,2.1880851660686496,-0.29546301343355086,0.6515353138090704,0.25267549801583133,0.0
-0.822927745044435,1.179396181664112,2.1880851660686496,-0.36489157110805764,1.2552076367430018,0.17137460413759809,0.0
-0.9078570546079884,1.223670959151975,2.0813078758879495,-0.37519738710961487,1.751840389895592,-0.1161529249670985,0.0
-0.7663081640394607,1.0564105881777033,2.095085621869105,0.41401015126808555,-0.7982228333936734,0.36966945221300196,0.0
-0.7663081640394607,1.0564105881777033,2.095085621869105,0.6499587929431017,0.18795898647301035,0.18822966543797676,0.0
-0.858314936714613,1.1695573135182025,2.1984184755545164,0.4991686219159432,0.441391181218865,-0.4165696278430339,0.0
-0.8689311313820112,1.287623472931657,2.1743074200874934,0.18782489472734787,0.6098212986003175,-0.290652399496544,0.0
-0.8653923998262117,1.2531875205334602,2.1639741106016266,0.05710392483602494,0.4728734640930519,-0.23909572859714856,0.0
-0.8653923998262117,1.2531875205334602,2.1639741106016266,0.1476864924556765,0.3752784447803408,0.03554263580589407,0.0
-1.2015712162441654,1.076088281413279,2.2707514007823266,0.7839341892623519,-0.2496444478923008,0.0028239850874217593,0.0
-0.7663081640394607,1.4844004052874133,1.9125308493786766,0.3087824794843921,0.7900572432609559,0.0295937893962096,0.0
-0.7663081640394607,1.4844004052874133,1.9125308493786766,-0.3903848692156871,2.0753206256383336,-1.049130206384702,0.0
-0.7875405533742567,1.2531875205334602,2.0399747585311108,-1.0146995632694658,1.1709925972513648,0.7811312840387876,0.0
-1.1343354405717931,1.046571720031794,1.9779750222025378,-1.1573535359136853,-0.6675714938594239,1.6496627207857568,0.0
-0.7627694324836614,1.2433486523875508,2.3603067496598413,-0.5617866457833358,0.03684413187201912,0.5273138533492893,0.0
-0.9644766356129627,1.2728651707127927,2.4670840398405414,-0.08283802909274977,0.6397294481317056,0.852517428862222,0.0
-1.1095643816251053,1.2531875205334602,2.3534178766692637,0.09778473151235087,0.6987586997221716,0.9467075086044734,0.0
-0.9255507123869853,1.2187515681352632,2.2535294594791413,0.12599007810587726,0.8349194483589487,0.741472287819592,0.0
-0.9078570546079884,1.1843155726808239,2.246640586488563,0.0912757992686239,0.27532226385161057,0.910022949194497,0.0
-0.9149345177195873,1.0810076724299909,2.22252953102154,0.22416641324118905,-0.9335966113544979,1.3601521934989824,0.0
-0.9503218332775806,1.125282492974097,2.2535294594791413,0.2843739901860718,-1.0477197619793441,1.3145444204035845,0.0
-0.9644766356129627,1.164637879445248,2.229418404012118,0.24043873061919457,-0.4778908643365294,0.9040740755760583,0.0
-0.8476987420472148,1.1449601862096728,2.225973967516829,0.15853471286188825,-0.231542144839188,0.6611628809396183,0.0
-0.8406214028234317,1.1203630589011426,2.22252953102154,0.10375123288879923,-0.42673216426552046,0.6988389031622948,0.0
-0.8760085944936097,1.1056047997385212,2.232862840507407,0.1693829332681,-0.8407239344729153,0.976451683212193,0.0
-0.9078570546079884,1.1006853656655666,2.2535294594791413,0.24098113502384916,-0.8588262183269384,1.1311217200959383,0.0
-0.9432443701659821,1.1941544408267328,2.1639741106016266,0.0012356228223147968,0.05888171548463285,1.0111533169967686,0.0
-0.9184732492753865,1.2581069546064148,2.0985300583643944,-0.2531549803119493,1.0025625182680913,0.41230283687029884,0.0
-0.7804630902626579,1.2138321340623086,2.046863631521689,-0.34427996556756746,0.8852911009576476,0.33100196717762476,0.0
-0.8052340872654383,1.06624941326737,2.122641113831418,-0.3193290718645926,0.08328046851289594,0.5501177882681063,0.0
-0.7663081640394607,1.0121357676335976,2.1088633678502617,-0.30631122060845056,-0.37636055006500035,0.46286804495699396,0.0
-0.7309208484814674,0.9973775084709763,2.15019660579373,-0.16094516474613993,-0.8604003132715583,0.6016744349819426,0.0
-0.858314936714613,1.0318134608691731,2.129529986821996,-0.24447640398697992,-0.45113094309255997,0.5778790372504253,0.0
-0.7556919693720626,1.159718488428536,2.1019744948596837,-0.29871746632410234,0.5413473621475952,0.04843179899595059,0.0
-0.7910791610422407,1.0908465405759005,2.129529986821996,-0.18047194659209495,0.769593778591824,-0.24306162821906818,0.0
-0.8123115503770367,0.9924580743980218,2.1743074200874934,-0.14901212974192007,0.4689381883333233,-0.22025771748581013,0.0
-0.8264664766002343,0.9235861265453859,2.170862983592204,-0.24339158194635876,-0.627431573595291,0.27052203422168986,0.0
-0.8618536682704123,0.9727803811624465,2.236307277002696,-0.21627105077779749,-0.9713752740071647,0.5025269928050713,0.0
-0.7840018218184575,1.0908465405759005,2.3189735117163726,-0.16962373610936726,-0.28899728228594496,0.18228082809787696,0.0
-0.7556919693720626,1.1203630589011426,2.36719562265042,-0.1826415906733373,0.5185227550615333,-0.1280506117400777,0.0
-0.8123115503770367,1.06624941326737,2.2604183324697193,-0.23742506733859833,0.30837864167041734,-0.005107808110027609,0.0
-0.8441601343792309,1.0416522859588397,2.2087517850403837,-0.30305675448658703,-0.019823936503452193,0.09007371781735218,0.0
-0.8618536682704123,1.007216333560643,2.1949740390592276,-0.4191326466764921,-0.3409429914310849,0.2774623464672695,0.0
-0.8052340872654383,1.0022968994876882,2.1639741106016266,-0.4077420218656258,-0.4456215339900326,0.20012736430373554,0.0
-0.8158502819328363,0.9826192062521129,2.1880851660686496,-0.2840723886226846,-0.15047533363496993,-0.01601402602391668,0.0
-0.7627694324836614,1.0564105881777033,2.1260855503267067,-0.3307196966754589,0.5177356691910445,-0.4096292914118949,0.0
-0.7627694324836614,1.0318134608691731,2.1398632963078628,-0.3594674609049517,0.4421782670893538,-0.40764636578649427,0.0
-0.822927745044435,0.9235861265453859,2.129529986821996,-0.2526125626759827,-0.5227530694345222,0.0028239850874217593,0.0
-0.8370826712676323,0.9285055606183403,2.1811962930780715,-0.09260142084268429,-1.1083231469126091,-0.015022551118436794,0.0
-0.7981566241538395,1.017055201706552,2.1639741106016266,-0.0540902615554288,-0.9477636194487925,-0.12011882458901812,0.0
-0.7733856271510594,1.021974592723264,2.1743074200874934,-0.11809472225814176,-0.525114250249631,-0.37294473200191824,0.0
-0.7061498514786873,1.0514911541047487,2.129529986821996,-0.2878692591492027,-0.42122279356117204,-0.5682651795464415,0.0
-0.7167660461460853,1.0514911541047487,2.1260855503267067,-0.49995182916186526,-0.6305798402808888,-0.4324332263307123,0.0
-0.7203047777018848,1.1006853656655666,2.0778634393926603,-0.8161772224549757,-0.43696389660008667,-0.480023973422629,0.0
-0.7981566241538395,1.140040752136718,2.015863703064088,-0.9685946331587219,0.16119906522904096,-0.7586282646563451,0.0
-1.3820461539264859,1.2482680864605054,1.97108614921196,-0.5791437719706505,-0.8438721243621548,1.4156747882058567,0.0
-1.226342275190853,1.351576029767581,1.9056419763880985,-0.749460713266366,-0.8202604698037831,1.11030075917364,0.0
-0.7309208484814674,1.1203630589011426,2.129529986821996,-0.322583537986456,0.15254144703818429,0.19913588939825563,0.0
-0.5893719579129395,0.9481832538539162,2.298306892744639,-0.4012330896218988,-0.5542353523087091,0.20607620164383528,0.0
-0.5433685715753633,0.9235861265453859,2.332751257697529,-0.46794959881050857,-0.5306236209539794,0.17335755394855787,0.0
-0.6353753442505157,0.9235861265453859,2.2156406580309618,-0.45764378280895146,0.4689381883333233,-0.030886137513335552,0.0
-0.8689311313820112,0.9973775084709763,2.15019660579373,-0.35567059037843374,0.532689763155828,0.06925275878455074,0.0
-0.7061498514786873,0.6628566804099476,1.9814194586978273,-0.3968938014594141,0.30837864167041734,-0.17663284583025388,0.0
-0.575217031689742,0.530032240978505,2.029641449045244,-0.43486255964984305,-0.20635633773892795,-0.21430886805293076,0.0
-0.6212204180273181,0.5743070554678268,2.070974566402082,-0.42021745548580136,-0.19140226297323387,-0.2331468791642692,0.0
-0.7415370431488654,0.7169703475718413,2.15019660579373,-0.3204138939052138,0.11082744862863467,-0.16275222133909448,0.0
-0.8016953557096388,0.7809228398234015,2.1329744233172847,-0.31987148950055916,0.24856234260764115,-0.22025771748581013,0.0
-0.7379983115930658,0.692373220263311,2.1088633678502617,-0.322583537986456,0.36032437001464673,-0.3332857841538409,0.0
-0.7026111199228877,0.697292643572205,2.122641113831418,-0.36651881078464554,0.2674516931330639,-0.49886196034840824,0.0
-0.6884561936996905,0.6825343736455233,2.1088633678502617,-0.40340273370314106,-0.20320810945150947,-0.46416037493495066,0.0
-0.7769243587068586,0.9088278673827647,2.1674185470969154,-0.254782206757225,-0.34251712477388374,-0.30155861136404344,0.0
-0.8724698629378106,0.913747301455719,2.1880851660686496,0.0034052669035571355,-0.8525297617521012,-0.059638891633083176,0.0
-0.7061498514786873,0.810439379676765,2.0985300583643944,0.08910615518738152,-0.9635047224877071,-0.42350996427417265,0.0
-0.6247591495831176,0.795681120514144,2.0778634393926603,-0.011782228433827223,-0.5809952735526782,-0.6069326645818188,0.0
-0.5681395685781435,0.7022120668810989,2.00553051416485,-0.32149871594583496,-0.1551976568670085,-0.759619679097927,0.0
-0.4973650613499718,0.5546293595412359,1.9366419048456995,-0.6767776762386837,0.3272679921958401,-1.1601752990562133,0.0
-0.5221361822405671,0.6628566804099476,2.050308068016978,-0.7239674151587365,0.5295415348684093,-1.5012424730568248,0.0
-0.5433685715753633,0.7563257340429926,2.22252953102154,-0.5672107427551295,0.4949110237068038,-1.6935883870498922,0.0
-0.6318366126947164,0.7612451465878258,2.2535294594791413,-0.42943843621542527,0.3855101771149068,-1.7015202830359681,0.0
-0.6389140758063149,0.7268091941896292,2.22252953102154,-0.3502464801753278,-0.39918519554924103,-1.6192278537883569,0.0
-0.6389140758063149,0.7268091941896292,2.22252953102154,-0.41262371443276497,-0.7022019666228506,-1.845284083866655,0.0
-0.5433685715753633,0.5989041720122964,2.0089748300735097,-0.5959584937533106,-0.5077990138679176,-2.2488139471496877,0.0
-1.2404972014140503,0.5989041720122964,1.871197732021838,-0.958288817157165,0.5429214954903939,-3.0499251870662607,0.0
-1.293578050863225,0.6825343736455233,1.68519852303612,-1.4681548322350022,-2.064596846046539,-0.7050886439459899,0.0
-1.0458673375085321,0.5349516649601528,1.3958664603649908,-3.0433154296372273,-1.498703224163453,-0.20241119337273122,0.0
-0.8476987420472148,0.36769126034819144,1.6576431516604377,-3.977888936219797,-1.2374003915022387,-0.18159023245043293,0.0
-0.8123115503770367,0.3135775931862977,1.8401978035642368,-3.5520966359057535,-1.357819998701922,-0.48597279866994886,0.0
-0.8123115503770367,0.3135775931862977,1.8401978035642368,-2.38320167439951,-0.7793335404655191,-1.3188111871907606,0.0
-0.8087728188212375,0.3824495302748732,2.1984184755545164,-2.1553891781821855,-0.811602832413837,-1.2979902262684622,0.0
-0.7486145062604639,0.43164376874584265,2.205307348545095,-1.8858110400166002,-0.6171998412607251,-1.46554932808843,0.0
-0.571678300133943,0.3234164398040855,2.1949740390592276,-1.1855588825072116,-1.1232772408773926,-1.3227770384415614,0.0
-0.4796715274587905,0.30865818064146444,2.050308068016978,-0.9664250155401037,-1.78755291034641,-1.3416150737384591,0.0
-0.4796715274587905,0.30865818064146444,2.050308068016978,-2.614268649970011,-1.8387115720192402,-0.45027975044379126,0.0
-0.6212204180273181,0.3234164398040855,1.7471982593646926,-2.939714891679625,-2.530534325399075,-0.1568033719062151,0.0
-0.34873870766984516,0.151236613228738,2.0089748300735097,-2.704851058813918,-1.8505174760947838,-0.6584893596667737,0.0
-0.19303489087812004,0.05776758112381411,2.1191966773361286,-2.271465043909465,-1.3633295229989861,-1.0887892026038979,0.0
-0.19303489087812004,0.05776758112381411,2.1191966773361286,-2.296958289091847,-1.1712876358646251,-1.0818488178016405,0.0
-0.4478229434565962,-0.05045975319997344,2.1811962930780715,-1.9037105706085693,-1.098878500448532,-0.596026476899879,0.0
0.03344355702959215,-0.12917052614227575,1.9951972046789834,-1.1562686741791282,-0.348026533876411,-0.9757610875647489,0.0
0.2422282232704919,-0.3849805812610022,1.8884199144982832,-1.1833892648885935,1.0694623597761936,-2.9021955349847723,0.0
0.16437637681853717,-0.43417483587806277,1.7093095785031436,-1.493105699475353,1.4141930692621982,-2.5452648592387197,0.0
0.11837286659314564,-0.655548852486107,1.7816425037309531,-1.7529203995814109,2.1390722004608382,-2.155615378591255,0.0
-0.033792218642780265,-0.640790550267243,1.6748652135502529,-2.265498463145145,1.1977525184953344,-0.930153314469351,0.0
-0.2107284247693014,-0.2816726379539266,1.4750883791700087,-2.065348935579315,2.361022121932051,0.35578880353628345,0.0
-0.055024607977576266,-0.38006114718804773,1.247756052827452,-2.2595320940818175,0.2973598426644519,1.5287028065027688,0.0
0.1466827190395404,-0.36530284496918375,1.1926451894894576,-2.4689024700641498,-2.137793144129479,2.56578500136688,0.0
0.20330217615669968,-0.48828843845559217,1.1547565086279081,-2.956529666387534,-4.516278021749874,4.170981724524772,0.0
0.005133704583197383,-0.6309517682338193,1.144423199142041,-3.81625057124905,-6.8388818760672185,5.1882344696504035,0.0
-0.026714879418996904,-0.7736150118995607,1.1926451894894576,-4.896190257737479,-10.353876973454867,5.830709724690194,0.0
-0.2001123539897188,-1.1081358399605892,1.1616452610318562,-5.928397721513329,-12.755972430484624,3.362930196548178,0.0
-0.2001123539897188,-1.1081358399605892,1.1616452610318562,-6.276082729052149,-11.222000203744715,1.024042478675228,0.0
-0.31335151599966704,-1.1868466129028923,0.8688688221587532,-6.353647855586331,-10.233456598291605,-1.5498246829614417,0.0
-0.2531932034388937,-1.3295098565686334,0.9136463760108804,-6.390531672654331,-10.042201720231374,-2.0316812209835207,0.0
-0.2531932034388937,-1.3295098565686334,0.9136463760108804,-4.953143328866561,-4.566649674348574,1.1896186548697953,0.0
-0.1222603836499484,-1.4475761020945728,0.9067575633136172,-2.599623387030225,1.50785283201427,3.1884308066681895,0.0
-0.1222603836499484,-1.4475761020945728,0.9067575633136172,-1.485511984884941,-0.5219660219622122,2.3883109811931984,0.0
-0.20718969321350217,-1.0933775377417256,0.4865371851414224,-0.6995589258604161,-3.7410273915452503,-0.03782645580530503,0.0
-0.23549954565989692,-0.8080509642977575,0.4107597329783511,-0.30251435008193245,-5.173469918384492,-2.6166509556910356,0.0
-0.27442546888587427,-0.4095776655132899,0.4762039058022126,-0.7548848102381597,-5.6685287301851774,-3.453455050349292,0.0
-0.1965736224339193,-0.3161085903521233,0.5795367594876238,-1.9151011424941884,-4.386413537697038,-3.747922940070688,0.0
0.008672436138996622,-0.11441226697965487,0.6243143736330663,-3.074232877641899,0.04392764071893881,-2.4362026921926083,0.0
0.45809035262299014,-0.07997627152521558,0.545092484974706,-2.988531870276266,2.1894438530595375,-1.0411984071408629,0.0
0.9216631953301837,-0.2915115060998356,0.40387089013443034,-1.8776749474841574,0.41227011755796567,-1.3019560775192636,0.0
0.9216631953301837,-0.9113589076048331,0.39353761079522076,-0.28949648559447844,-2.1307096016841522,-2.249805555075743,0.0
0.8933533428837886,-1.0441833692371507,0.37975989496072204,0.5040502880204586,-1.9426030671058778,-2.181393701948173,0.0
0.9499730477765782,-0.9359559918571203,0.2350938485518288,-0.3193290718645926,-1.1673523601048965,-1.3079049511377017,0.0
0.9428955846649775,-0.8424869166959541,0.2350938485518288,-1.3829964145123925,-0.26853381761681305,-1.346572436173079,0.0
0.6633362873080912,-0.7539373617202276,-0.14034893054825265,-1.7719047919079371,-0.02533333600643488,-1.987064862329705,0.0
0.34838992216884196,-0.8769229552066362,-0.09212692512750732,-1.2587843504021727,0.6129695268877363,-2.190317012375831,0.0
0.30946387505504946,-1.073699801449907,-0.09212692512750732,-0.68816830104955,1.1898819669758771,-1.652938073131351,0.0
0.6597975557522925,-1.2016049151217558,-0.2884593983791061,-1.1920678412135628,-0.20478222359521855,-4.413202275142648,0.0
1.2401482920252314,-0.9999084625805594,-0.2367929413897433,-2.5068712547172023,-2.0213087358931663,-1.9067554554497312,0.0
0.6597975557522925,-0.6457099843401974,-0.026682767376974323,-0.8297375178097085,0.431159448884299,-2.3449869525173397,0.0
0.21745710237989666,-0.9703920303678025,-0.25057065722424177,-0.38604558105320236,-1.583705272729221,-3.4157793667244447,0.0
0.20684090771249866,-0.6309517682338193,-0.2712372460493187,-1.0407352922443738,-0.8013711000792711,-3.712230085329002,0.0
0.2422282232704919,-0.37514171311509287,-0.25745953021482,-0.8074986461300063,-0.01274043245630485,-0.7080630323840909,0.0
0.995976310226338,-0.3259474584980326,-0.853345747593551,1.6577578732711271,1.5849843290605805,2.8205937981268416,0.0
0.47578401040198803,0.4267243400549184,-0.5089028818777421,-0.03185142956966285,2.5404709423240215,2.3506349105994033,0.0
1.4701653476009282,-0.3948193632944259,-0.5881247403894451,-0.8140076048363576,-0.3118219277701857,2.966340427840693,0.0
0.8615050066572252,-0.48828843845559217,-0.2884593983791061,-0.42130229075773434,2.5223686584699982,0.278453833465529,0.0
0.8615050066572252,-0.48828843845559217,-0.2884593983791061,0.2735257697798601,2.0375418861893095,-0.1706839963973745,0.0
0.8615050066572252,-0.48828843845559217,-0.2884593983791061,0.051679814632919166,0.8986710231814534,-0.15878632171717486,0.0
0.8615050066572252,-0.48828843845559217,-0.2884593983791061,0.007744555066041813,0.49569810957729266,-1.4268818430530528,0.0
0.6314879510815277,-0.46861078827625935,-0.20234865180349648,-0.33722862891918587,-0.18982814882952473,-2.205189196421927,0.0
0.4439354263997943,-0.07997627152521558,-0.13001563613571426,-1.1410812449983039,0.7971407857062823,-6.106640301166591,0.0
-0.6636851966969104,1.125282492974097,-0.1162379203012156,-0.27810586078361216,-2.721001887199741,-14.921837796604693,0.0
-0.5256749137963667,1.3466565956946264,-0.2126819462160348,0.5311708258046758,-1.7348202305253178,-16.546864356470014,0.0
0.2563831494936891,0.41196607012823666,0.011205954936229142,-0.36163711821750616,0.533476810628138,-17.023763338572998,0.0
1.1127542037920866,-0.8572452189148179,-0.15757106780471156,-0.07578668913654017,-2.109459127940889,-7.610706559779974,0.0
1.9089673171931556,-1.0343445010912413,-0.054238199045971644,0.33861506575450623,0.8317712584697089,5.005802990299864,0.0
1.820499028298173,0.1610754598465255,-0.3056815205622364,1.0350703130434404,0.3658337599180848,9.58046551958704,0.0
2.135445641213051,0.8350365069852953,-0.7017909035607232,0.30552800013121667,0.9482555899096636,12.724430328627365,0.0
2.025745210758903,0.6087430186300842,-0.7534573304034289,1.0090345840685324,-1.0831373206132595,11.56638783251132,0.0
1.013669968005336,0.116800660830541,-0.6363467307368615,1.330684180183933,-2.3652524363050396,7.1434217739788,0.0
-0.27442546888587427,-0.2669144218475483,-0.45379198839309004,0.5002534307252524,-2.6753525962312605,3.1795074962405314,0.0
-0.5539847662427614,-0.34562519478985104,-0.3194592363967351,-0.997342410619527,-1.9851041681851196,0.9050655867598769,0.0
-0.9821702933919594,-0.301350374245745,-0.2299040985458225,-2.1098266789387194,-0.9406800770034665,-3.278955660469305,0.0
-0.6884561936996905,0.1758337405372681,-0.2712372460493187,-2.7498711801153535,-1.0461456670347242,-7.137773235443316,0.0
-0.4053582886748196,0.2545445134795707,-0.2781260888932392,-3.4164938940594207,-1.6073169272875927,-9.150466060103989,0.0
-0.01963741630739814,0.3234164398040855,-0.7672350160912701,-0.2108469471903477,-1.8300540114256518,-5.576201456497658,0.0
0.366083579947839,0.31849702725925233,-0.5640137452157368,0.9748627625611817,0.26666464566075393,-0.3273369347209614,0.0
0.6845686766428883,-0.05045975319997344,-0.15757106780471156,0.7806797099091765,3.596700860784861,4.762891747292306,0.0
0.8438113488782273,-0.37514171311509287,-0.2712372460493187,1.7060322622247448,5.868933369688938,7.48845489597245,0.0
0.6279492195257285,-0.17344534668638176,-0.7121241527532755,0.9314698809363349,1.169418502306745,6.0914672015841225,0.0
0.30946387505504946,1.2285903932249298,-0.6949020305701452,-0.3632643314314699,-2.8516533803267077,1.1440108817743975,0.0
0.7801141808738398,0.9531026879268707,-0.6811242845889891,0.1813159624836209,-0.8493815718628612,1.0121447314383505,0.0
0.7093397975334846,0.9629415130165372,-0.6363467307368615,-0.441371465430946,-0.4771037784660408,1.618927034994219,0.0
0.7411883815356779,0.5447905129234482,-0.49856957239187494,-0.1446728440603064,0.18087548242586302,1.8053240753688478,0.0
0.2953089488318514,0.32833587387704016,-0.30223711421360483,-0.29871746632410234,-0.3842311015844578,0.05735506785467859,0.0
-0.06917953420077351,-0.2373978174098205,-0.2987926777183159,-0.47554333986354475,-1.2791144835073491,-3.502037453738384,0.0
0.2599218810494892,-0.5128856088203655,-0.43312539956801344,-0.3404830950410493,-2.3676136171201483,-4.4508783457364425,0.0
0.34131245905724317,-0.33578632664394165,-0.7293463352297207,-0.07849874423809311,-2.7973463751719225,-4.471699209916505,0.0
0.7871916439854383,0.013492760579708397,-0.9050122347295715,-0.2520701582713281,-2.6808622741210386,-4.249609218057956,0.0
0.6774912135312904,0.13647835406611677,-0.8843456157578375,0.09995437559359326,-0.6699326746745327,-3.5099691562399853,0.0
0.6774912135312904,0.13647835406611677,-0.8843456157578375,-0.2629183654462278,1.4842411774558981,-1.7768722307390852,0.0
0.41562557395339894,0.5251128173332342,-0.7982348842555567,-0.4950701365947258,2.4397277907193393,-0.6931909450802313,0.0
0.41562557395339894,0.5251128173332342,-0.7982348842555567,-0.6876259231075195,3.2322938492965707,0.34488259166878416,0.0
0.4616290841787888,0.5890653253945086,-0.75001289390814,-0.8357040456487809,3.0701601500917763,1.1687976939474969,0.0
0.5713295146329395,0.43164376874584265,-0.5330138770514503,-0.8682486804047921,2.9528887327813322,1.133104645721339,0.0
0.6173330248583319,0.2988193340236766,-0.33668138872652287,-0.505375926133659,2.9906673186376413,1.2451412495766694,0.0
0.6173330248583319,0.2988193340236766,-0.33668138872652287,-0.502663877647762,1.303218108526592,1.044863439597526,0.0
0.6137942933025327,0.34801356711261583,-0.24023737788503227,-0.12623088177410152,0.8018630705401417,1.037923054795269,0.0
0.29884768038765147,-0.6063545978690463,-0.016349476732768167,0.3440391627263,0.8176042503754142,-0.6763358837798527,0.0
0.366083579947839,0.2545445134795707,-0.21612638271132403,0.6900971422895249,0.9458944090945547,-0.5325721313202839,0.0
0.3943934323942332,-0.06029857828963975,-0.35045910456102125,0.8208181121808477,1.6660511786629777,-0.9519656898332312,0.0
0.4510128895113922,0.7464868874252049,-0.14723778846550192,0.513813673154737,0.4783828731955792,-0.7764747887694242,0.0
0.6456426295290939,0.7022120668810989,-0.33668138872652287,0.02238963276745958,-0.47159440776169215,-0.3550982078888393,0.0
0.3342349959456447,0.45132146198141826,0.14209426666896288,0.05927356891726733,-3.96455148475744,-0.20637709299465076,0.0
0.48286147351358594,0.2643833600973586,-0.033571625294223674,0.4405882581850242,-4.874388653459683,-0.13399946117295708,0.0
0.4687065472903901,0.2643833600973586,-0.3056815205622364,0.30661280894052584,-3.0972149563562916,-0.18357318226139274,0.0
0.5005551312925838,0.8251976603675074,-0.8292347524198428,-0.1994563223794814,-2.0968662147912145,0.7434552618161109,0.0
0.3342349959456447,0.7710839932056137,-0.8051237572461345,-0.5563625223489178,1.7219322019660253,0.48368900587929237,0.0
0.45809035262299014,0.2053502803906316,-0.6707910353964369,-0.3708580989471301,2.2972705471095463,0.4460129836566153,0.0
0.37669977461523674,0.33817472049482794,-0.4675697042275888,-0.38930006040637793,1.630633620029062,0.584819373681564,0.0
0.48993893662518384,0.2840610533329342,-0.5330138770514503,-0.5856527306770015,2.641214247521419,-0.7179778056244489,0.0
0.3200800697224472,0.45132146198141826,-0.2850149618838172,-0.3974362058640687,2.0375418861893095,-0.14093977341853675,0.0
0.36254484839203893,0.4464020386725244,-0.22301522555524456,-0.35078889781129435,1.7880449576036388,-0.24008721559540808,0.0
0.2917704650516829,0.3135775931862977,-0.3056815205622364,-0.6577933368374053,2.185508500503451,-1.6469891995129124,0.0
0.7482658446472757,0.480838004525797,-0.6053468625725754,-0.913811179648257,2.5672309403643485,-1.3713593450884152,0.0
0.5076325944041817,0.4857574278346909,-0.2987926777183159,-0.8969964049403487,2.2209260591373665,-0.03782645580530503,0.0
0.2139183708240977,-0.2128007331575333,0.0697612528853467,-0.19403221217637556,1.580261967430363,0.7999692709645669,0.0
0.40500962706163146,0.07252584028643527,-0.12312677821846492,-0.14684248731459174,1.5472055896115564,1.186644218060576,0.0
0.7694979862064426,0.505435122415774,-0.25745953021482,-0.2103045361700371,0.8467253524344923,0.7989778081518666,0.0
0.7942691070970357,0.7317286067344624,-0.19890423038153626,-0.35675541241905495,0.6916751956750244,0.43114084798163727,0.0
0.6456426295290939,0.3726106836570854,-0.08179363071496894,-0.24610363704791163,0.5161615742464245,0.21995683822777434,0.0
0.48286147351358594,0.279141640788101,-0.016349476732768167,0.16450124070096064,0.173791968779171,-0.10326376328863945,0.0
0.48286147351358594,0.26930279417031316,-0.026682767376974323,0.37387174899641423,-0.40548165212407855,-0.048732679765583924,0.0
0.4510128895113922,0.3135775931862977,-0.10590464096200596,0.472048084131726,-0.3645547227858145,-0.1369738858893968,0.0
0.45455162106719144,0.33817472049482794,-0.1369044940529636,0.45631817115837503,-0.16306822758555523,-0.18555613207235253,0.0
0.34838992216884196,0.4168854934371306,-0.22645966205053353,0.21657264572552887,-0.25830208528224685,-0.24405309103176853,0.0
0.4403966948439942,0.5251128173332342,-0.2126819462160348,0.044086060348571,0.1423097099038459,0.4817060318827732,0.0
0.6031780986351333,0.530032240978505,-0.1644599257219609,0.24911730694416384,0.5153745267741145,0.4509703460912354,0.0
0.5961006355235353,0.392288376892661,-0.06112705696322098,0.014253474078456816,-0.23390332565429675,0.046448850696588245,0.0
0.6031780986351333,0.5103545463974218,-0.329792545882602,-0.0822956180724392,0.04864998075018067,-0.2162918178638905,0.0
0.41562557395339894,0.47591858121690306,-0.19545979388624724,-0.40014825434996565,0.28083165375504854,-0.07946837764990151,0.0
0.3979321639500327,0.33817472049482794,-0.15757106780471156,-0.5183937906211131,0.45319704689622975,0.15848544245913904,0.0
0.31654133816664765,0.47591858121690306,-0.09901578304475664,-0.36109468735022754,0.36111143668604617,0.5292968273458083,0.0
0.31654133816664765,0.47591858121690306,-0.09901578304475664,-0.5476839724865725,0.0864286950004,0.5788705000631256,0.0
0.5500971252981429,0.4464020386725244,-0.1162379203012156,-0.6811169644011684,-0.2677467701445031,0.4549362457131546,0.0
0.5359421990749466,0.3775301069659793,-0.14034893054825265,-0.3529585418925368,-0.1032519285227791,-0.03980940561626483,0.0
0.5359421990749466,0.3775301069659793,-0.14034893054825265,-0.20596524800755242,-0.07019556030351702,-0.2847035500636648,0.0
0.5890231724119368,0.32833587387704016,-0.2126819462160348,-0.0405299992789762,0.42250184989253187,-0.17266694620833428,0.0
0.6244104879699298,0.36277183703929755,-0.2057930882987857,0.0609007953625431,0.8569570847690583,0.05239769710627273,0.0
0.6244104879699298,0.36277183703929755,-0.2057930882987857,-0.14630007629428116,1.0962222810201632,0.30522361963514744,0.0
0.6350266826373275,0.38736895358376705,-0.21612638271132403,-0.22223756538555797,1.5291033057575332,0.34289964185782434,0.0
0.47224527884618933,0.4660797319081001,-0.12657121471375393,-0.2922085473116874,1.5676690542806886,0.8475600180564836,0.0
0.47224527884618933,0.4660797319081001,-0.12657121471375393,-0.1826415906733373,0.6594058653285275,3.9697125968462816,0.0
0.7765754493180411,0.43164376874584265,-0.08179363071496894,-0.010697406393206054,0.13443914398507154,4.146194815609435,0.0
0.45809035262299014,0.2545445134795707,-0.06801591488047029,0.008829377106663008,-0.330711259096519,3.1210105614666754,0.0
0.45809035262299014,0.2545445134795707,-0.06801591488047029,0.06957937168751245,-0.11820600328847311,1.6605689568388158,0.0
0.15376018215113915,0.1659948939194804,-0.07490477279771963,0.013711069673802239,0.002213642309389174,1.3621352158666196,0.0
0.15022145059533992,0.21026971446358622,-0.09212692512750732,-0.039987588258665614,-0.0072310329533221305,1.366101067117421,0.0
0.15022145059533992,0.21026971446358622,-0.09212692512750732,0.29034049156252023,0.12578152099444256,1.3105784724105467,0.0
0.23868949171469236,0.008573326506753838,0.028428101613518546,0.3207154822372889,-0.25672795193944803,1.9302498409026372,0.0
0.3200800697224472,-0.0012654985829128693,-0.02323833841834967,0.1574499040525791,-0.6282186594657798,2.379387670765541,0.0
0.2846930019400842,-0.1340899602152306,0.0008726680603551519,0.5653427002372746,-0.8273439354527516,4.778755539264461,0.0
0.20330217615669968,0.09712296759496561,-0.17134878363921022,-0.3111929131755898,-1.4223587361912733,5.3339809058797805,0.0
0.716417260645082,0.12172009490349585,-0.3332369522312336,-0.36434916670340306,-1.0130892892159173,3.292535514537444,0.0
0.8190402279876314,-0.26199498777459346,-0.22301522555524456,-0.213016584655934,-0.8422980294175348,2.4487909383346924,0.0
0.8615050066572252,-0.43417483587806277,-0.33668138872652287,-0.24773087010884345,-0.21973629836091263,1.2441497383928506,0.0
0.8615050066572252,-0.6752265887779253,-0.367681256890809,-0.24718845908853282,0.7727419684810639,0.7880715720988083,0.0
0.5677907830771403,-0.48828843845559217,-0.2953482412230269,-0.5292420110273246,0.8986710231814534,0.594734098550804,0.0
0.5359421990749466,-0.5276438249267434,-0.19890423038153626,-0.11104338395584616,-0.059176770897096304,1.02503389311681,0.0
0.3908547008384342,-0.6653877206320158,-0.14723778846550192,0.31312176764687677,0.4476876377937025,0.557058076328127,0.0
0.1572989137069384,-0.3948193632944259,0.08698339956263612,0.33047886737156745,-0.7895652728000849,1.3423056693859035,0.0
0.38731596928263445,-0.4095776655132899,-0.1644599257219609,-0.3155322013380744,-0.422009841033482,1.044863439597526,0.0
0.9039695375511858,-0.5669992113978947,-0.44690311540251193,-0.7261370857026027,0.668063464320295,0.19516998977633607,0.0
0.5854844408561347,-0.4194165336591988,-0.25745953021482,-0.9778156403509698,0.574403739966402,0.1783149284759574,0.0
0.40500962706163146,-0.49320787252854703,-0.10934906238396627,-0.62145179186094,0.4083348034000583,0.11486057382677767,0.0
0.41562557395339894,-0.5817575136167586,-0.09901578304475664,-0.31987148950055916,0.5602367318721073,-0.10822112572325933,0.0
0.3731610430594372,-0.5719186454708494,-0.07490477279771963,0.0028628492675905446,-0.061537932513115616,0.1743490288540378,0.0
0.4510128895113922,-0.49320787252854703,-0.15757106780471156,-0.1549786468305515,-0.37872173088010913,0.11981794533098225,0.0
0.6456426295290939,-0.7539373617202276,-0.22645966205053353,-0.29600541783820544,-0.030842735509417577,0.08908224442346972,0.0
0.37669977461523674,-0.5325632589996981,-0.2057930882987857,-0.16636926998750376,-0.0922331487159031,0.07421012991085597,0.0
0.2528444179378902,-0.4144970995862443,-0.04734934112872233,0.01642311815969913,-1.1130455085428266,0.6334015835861809,0.0
0.2563831494936891,-0.5424021271456076,-0.10590464096200596,0.4606574593208596,-0.45978854208432735,0.07916750141506056,0.0
0.2811542703842852,-0.6063545978690463,-0.12657121471375393,0.6005993834791824,0.27532226385161057,-0.20042824356177139,0.0
0.366083579947839,-0.5374826930726527,-0.3194592363967351,0.22742086613174045,1.5527151139086204,-1.3624360346607574,0.0
0.47932274195778724,-0.4981273066015015,-0.39179225206451745,-0.0014764256635821202,2.4452371614236874,-1.9146871579513336,0.0
0.09714047725834964,-0.44893305198444095,-0.13346007263100326,0.0912757992686239,2.242963695547476,-0.204394143183691,0.0
0.2917704650516829,-0.2669144218475483,0.04220581909666253,-0.03890276621804444,1.6778570827385213,1.216388489410532,0.0
0.22807329704729493,-0.33086689257098717,-0.030127196335599005,-0.10127999055199764,1.6479488948089542,1.1251728464774997,0.0
0.6031780986351333,-0.6653877206320158,-0.030127196335599005,-0.2141014066965552,1.9564750365869124,1.5029244831458506,0.0
0.7942691070970357,-0.47844957030968305,0.13864983771033823,0.05005258818764337,2.087126376121162,0.7156939644626736,0.0
0.401470895505832,-0.44401361791148647,0.1868718431310835,0.3017311163733865,1.4425270854507874,1.032965692360649,0.0
0.41562557395339894,-0.44401361791148647,0.1868718431310835,-0.03510588907587034,1.0852034628151084,0.443038546847396,0.0
0.1148341350373464,-0.4833690043826375,0.25576042230357676,-0.20216837086537834,0.8443641716193836,0.3270360675557052,0.0
0.34838992216884196,-0.7047431071031671,0.21787171129536984,-0.1370790950994939,-1.0815632256686396,0.22888011237709335,0.0
0.5430196621865451,-0.7686955778266058,0.17309412729658485,-0.0025612477042032894,-1.4412480291194278,-0.23612131597348848,0.0
0.5430196621865451,-0.7686955778266058,0.17309412729658485,0.058731151281300714,-1.33735653403279,-0.23116392935330937,0.0
0.6031780986351333,-0.4095776655132899,0.3280934379713592,-0.1446728440603064,-0.46765913200196335,-0.8904943182501551,0.0
0.681029945087089,-0.640790550267243,-0.016349476732768167,-0.2520701582713281,0.3532408659674996,-0.8191081250556025,0.0
0.681029945087089,-0.640790550267243,-0.016349476732768167,0.08313962734830896,1.0088589748429284,-0.9945991228616461,0.0
0.5182487890715817,-0.5915963817626678,0.12142769291721492,0.4335369215366424,0.7632973220169864,-0.7040971327621712,0.0
0.37669977461523674,-0.39973879736738055,-0.016349476732768167,0.5029654792111494,0.44926177113650106,-0.39773159254613627,0.0
0.37669977461523674,-0.39973879736738055,-0.016349476732768167,0.134126223563568,0.34773147606406146,-0.4056633917899753,0.0
0.5253262521831796,-0.33578632664394165,0.01465038577901988,-0.1924049824232718,0.379213739739159,-0.5990008653379799,0.0
0.33069626438984545,-0.33578632664394165,0.14553869562758756,-0.2602063169603308,-0.0347780112691462,-0.6237877258821976,0.0
0.3908547008384342,-0.3849805812610022,0.13864983771033823,-0.24122194448077244,0.046288811934502815,-0.7566452422887078,0.0
0.48286147351358594,-0.3849805812610022,0.04220581909666253,-0.36651881078464554,-0.2984419671482009,-0.7665600639001843,0.0
0.30238641194345073,-0.3062698083186995,0.10076111539713475,-0.4250991480529405,-1.2885590531750686,-0.41359519103381465,0.0
0.3731610430594372,-0.33086689257098717,0.20753841688283148,-0.3849607722438932,-1.0020705478072203,-0.34419202020689926,0.0
0.5500971252981429,-0.38006114718804773,0.0525391066790988,-0.2357978342776666,-0.6549785807097492,-0.35410674507613893,0.0
0.5005551312925838,-0.3849805812610022,-0.006016189856894166,-0.2564094464338128,-0.13316007805416716,-0.4116122654084139,0.0
0.5500971252981429,-0.3407057607168962,-0.06801591488047029,-0.37140050335178465,-0.04343563905954762,-0.2410786784081084,0.0
0.45809035262299014,-0.3603834108962292,0.0008726680603551519,-0.2504429185947404,-0.8005840142087822,0.041491479192383655,0.0
0.3130026066108487,-0.3505446288628055,0.0525391066790988,-0.24176435550108302,-0.6360892109852371,-0.20241119337273122,0.0
0.4934776681809831,-0.3702222790421382,0.0008726680603551519,-0.25857907728374313,-0.5935881867023532,-0.4790325106099287,0.0
0.4651678157345909,-0.3505446288628055,-0.030127196335599005,-0.2564094464338128,0.15175438996632964,-0.487955772666468,0.0
0.5324034675191474,-0.3603834108962292,-0.07146034383909497,-0.1061616864269649,0.10374393978171499,-0.548435681436844,0.0
0.4510128895113922,-0.3702222790421382,-0.00946061881551885,0.026728920929944257,-0.3928887389744038,-0.5424868561895235,0.0
0.5040938628483825,-0.3062698083186995,-0.00946061881551885,0.03052580468777436,-0.2976548812777121,-0.25595078989752723,0.0
0.47578401040198803,-0.36530284496918375,-0.04734934112872233,0.009914199147284176,0.6294977157971398,0.007781353568431449,0.0
0.48286147351358594,-0.37514171311509287,-0.06457148592184563,0.08530927142955132,0.7247315734938312,0.06429538756377068,0.0
0.45809035262299014,-0.3161085903521233,0.0008726680603551519,-0.002018843299548711,0.07855812923161853,-0.045758255049144186,0.0
0.48993893662518384,-0.21772016723048776,-0.012905047774143509,-0.024800092921281255,0.0061489276686625405,-0.1230932493054578,0.0
0.48286147351358594,-0.2816726379539266,-0.00946061881551885,0.10917535632321719,0.42958535393967906,-0.07351952821702212,0.0
0.4934776681809831,-0.15868708752376087,-0.06457148592184563,0.051679814632919166,0.5586626369274874,-0.004116333204547735,0.0
0.5040938628483825,-0.0996539647607909,-0.050793770087346965,-0.2357978342776666,0.3422220669615342,-0.03485203713525513,0.0
0.42624176862079693,-0.19804247399491204,0.031872531514226254,-0.3681460239986091,-0.38974051068698506,-0.0784769027444216,0.0
0.3342349959456447,-0.13900939428818515,0.08353897060401141,-0.2558670287978462,-0.7053501565120904,-0.21926625467310984,0.0
0.5607133199655417,-0.10949283290670032,-0.06801591488047029,-0.28732684151323606,-0.3314983449670078,-0.28371206306540525,0.0
0.5784069777445374,-0.19804247399491204,-0.1162379203012156,-0.3784518400001662,-0.17172584577641187,-0.2371127787861888,0.0
0.5147100575157803,-0.1685259126134272,-0.10246020446671693,-0.377367004728233,0.022677116578065943,-0.2371127787861888,0.0
0.4934776681809831,-0.2029618650116239,-0.04390491217009765,-0.2840723886226846,-0.4180745652737533,-0.10128081347767966,0.0
0.366083579947839,-0.27675320388097174,0.02153924369626922,-0.06819294146784799,-0.5298365734816695,-0.1250761991164176,0.0
0.5465583937423437,-0.22263960130344232,-0.08868248863221825,-0.07795633321778252,-0.12607657400701983,-0.06360479125500276,0.0
0.5076325944041817,-0.19312303992195748,-0.2057930882987857,-0.17396302096402394,0.14703204753520158,-0.204394143183691,0.0
0.4687065472903901,-0.17836478075933632,-0.08868248863221825,-0.16799650304843552,0.501207480281641,-0.3788936056203569,0.0
0.3908547008384342,-0.25215611962868445,-0.09901578304475664,-0.10670409744727549,0.6578317319857288,-0.44036502557455126,0.0
0.47578401040198803,-0.2669144218475483,-0.09901578304475664,0.018592762240941495,0.8231136210797628,-0.3788936056203569,0.0
0.47578401040198803,-0.2669144218475483,-0.09901578304475664,0.10158158880755684,1.5330386583136195,-0.4810154362353293,0.0
0.47578401040198803,-0.2669144218475483,-0.09901578304475664,0.35488735666988774,1.7872579485295077,-0.22818951672964927,0.0
0.6845686766428883,-0.23247838333686593,-0.07490477279771963,0.8484810808323435,3.668322987126823,0.8406197299964633,0.0
0.45809035262299014,-0.18328417177604817,0.1317609797930889,0.0755458862952728,2.3673185017105305,0.47079982001527376,0.0
0.3590061168362397,-0.20788129908457845,0.11798326395859023,-0.6122308375939401,1.2819675579869714,-0.051707104482023585,0.0
0.4191643055091985,-0.301350374245745,0.1593164114620862,-0.8731303465093072,1.3079404701568094,0.04050000579850121,0.0
0.34131245905724317,-0.39973879736738055,0.23853828504711783,-0.949067862890165,1.1875207861607684,0.19616146468181594,0.0
0.34131245905724317,-0.39973879736738055,0.23853828504711783,-0.8812665448922459,0.04786292367832598,0.8178157950776459,0.0
0.47224527884618933,-0.3505446288628055,0.2833158690459028,-0.6057218788875891,-0.4031204713089697,0.6621543437523185,0.0
0.48286147351358594,-0.1685259126134272,0.24887156438632746,-0.5357509168084277,-0.9808199972675995,0.7176769384591926,0.0
0.401470895505832,-0.22263960130344232,0.2109828533781205,-0.47228888697299337,-1.2279556682418036,0.5758961116250246,0.0
0.3943934323942332,-0.2964309401727901,0.17309412729658485,-0.38604558105320236,-1.4003210997811637,0.4906292939393127,0.0
0.4970163997367846,-0.34562519478985104,0.11798326395859023,-0.1392487377852463,-0.9154943275004748,0.2645731847888105,0.0
0.34838992216884196,-0.2816726379539266,0.11798326395859023,0.09724230064507226,-0.5817822826268096,0.1039543559128886,0.0
0.34838992216884196,-0.2816726379539266,0.11798326395859023,0.6483315532665138,0.8451511806935147,0.15650249264817925,0.0
0.48286147351358594,-0.26199498777459346,0.059427965067389656,0.08693651110613913,-0.05051914310669493,0.20310177692739564,0.0
0.5111713259599804,-0.25215611962868445,0.09042782852126076,-0.16691168100781434,-0.32677598333679025,0.2130165259821946,0.0
0.5111713259599804,-0.25215611962868445,0.09042782852126076,-0.05951437175853465,0.09193809090355344,0.31513836868994644,0.0
0.4687065472903901,-0.2373978174098205,0.09042782852126076,-0.11755231123783118,0.04392764071893881,0.25664138554497123,0.0
0.47932274195778724,-0.26199498777459346,0.09042782852126076,-0.11972195366515952,0.2517105708950599,0.15352806793173956,0.0
0.47932274195778724,-0.26199498777459346,0.09042782852126076,-0.05517508359604997,0.8073725180408482,0.05636359370499742,0.0
0.41562557395339894,-0.19804247399491204,0.018094814737644564,-0.09314383186299488,1.0655270072201073,0.10097993421964378,0.0
0.45455162106719144,-0.2128007331575333,0.09731668643851007,-0.14196079102614598,0.8341324392848176,0.0732186557611748,0.0
0.47932274195778724,-0.2964309401727901,0.12831655083446425,-0.62145179186094,1.3488673994950733,-0.16275222133909448,0.0
0.3377737275014437,-0.21772016723048776,0.3212045951274384,-0.14033355899891048,0.23596943905751114,-0.06856216578240225,0.0
0.5677907830771403,-0.3259474584980326,0.018094814737644564,-0.048123746947668376,1.210345431645009,-0.11416997515613875,5.0
0.45455162106719144,-0.24231725148277505,0.14898312458621224,-0.19511703421699672,0.3776396255954496,0.1426218500178505,5.0
0.4616290841787888,-0.20788129908457845,0.1317609797930889,-0.37573979151426945,0.1336520869132169,0.3329849169885846,5.0
0.4333192317323957,-0.17836478075933632,0.09731668643851007,-0.4392018213497036,0.41069598421516684,0.19318703996537626,5.0
0.4510128895113922,-0.33578632664394165,0.06287239496809736,-0.22440720946680032,0.5917190147462941,0.058346542004359764,5.0
0.48286147351358594,-0.43417483587806277,0.19376070104833285,-0.2141014066965552,0.44296531456166377,-0.013039601307476988,5.0
0.4333192317323957,-0.46861078827625935,0.12487212187583957,-0.06331124228505274,-0.440899210757994,-0.29560976193116395,5.0
0.4510128895113922,-0.39973879736738055,0.2833158690459028,0.05981597332192191,-0.17487407406383063,-0.37988506843305725,5.0
0.5005551312925838,-0.2915115060998356,0.11798326395859023,0.05710392483602494,0.6444517713637441,0.0771845531156982,5.0
0.4687065472903901,-0.15376765345080604,0.12831655083446425,-0.1896929306295469,0.03763118894387381,0.1079202555348082,5.0
0.42270303706499746,-0.19804247399491204,0.16964969833796018,-0.23850988937921952,0.0006395329654522078,0.22293126294421398,5.0
0.4368579632881947,-0.2275590353763968,0.14898312458621224,-0.5064607614055922,0.004574813524953216,0.21599095069863428,5.0
0.45455162106719144,-0.3062698083186995,0.17998298521383418,-0.42835362740611604,-0.32835011667958913,-0.26685700176502664,5.0
0.48286147351358594,-0.34562519478985104,0.1765385637918739,-0.36489157110805764,-0.2079304518826373,-0.3788936056203569,5.0
0.5076325944041817,-0.311189242391654,0.12831655083446425,-0.43052327148735825,-0.11348366085734507,-0.21926625467310984,5.0
0.42270303706499746,-0.20788129908457845,0.15587198250346151,-0.4099116659468682,-0.24728326707719206,0.20310177692739564,5.0
0.5005551312925838,-0.26199498777459346,0.12831655083446425,-0.11267061536286392,0.16434729351645963,0.539211552215048,5.0
0.5111713259599804,-0.2915115060998356,0.10764997331438407,-0.14575766527397055,0.07068756376282284,0.4360982346018162,5.0
0.4333192317323957,-0.3259474584980326,0.14209426666896288,-0.1338246310967077,0.13129091569765286,0.09205666611671452,5.0
0.42270303706499746,-0.3603834108962292,0.1765385637918739,0.025644098889323088,0.27532226385161057,0.058346542004359764,5.0
0.32715753283404564,-0.25215611962868445,0.2109828533781205,0.038661963376777124,-0.16542940840066397,0.023644942986525107,5.0
0.5465583937423437,-0.22263960130344232,0.13864983771033823,0.08042757886241216,0.19819072840712107,0.23879484933911269,5.0
0.5925619039677361,-0.24231725148277505,0.11453883499996557,-0.09205900982237371,0.12342035457865086,0.2209483131332542,5.0
0.4616290841787888,-0.03570149403735217,0.08009454164538676,-0.2558670287978462,0.22809887793850916,0.2040932518328755,5.0
0.366083579947839,-0.14884821937785148,0.10420554435575942,-0.42075985989045595,-0.24256094384515361,0.14956217435620978,5.0
0.5465583937423437,-0.3603834108962292,0.19720513754362187,-0.23037373069021674,-0.4778908643365294,-0.10128081347767966,5.0
0.48640020506938514,-0.17344534668638176,0.10076111539713475,-0.07253222963033266,0.08721575087231158,0.43411528479085665,5.0
0.48993893662518384,-0.301350374245745,0.10764997331438407,-0.07198981861002209,0.6538964562260002,-0.14093977341853675,5.0
0.4191643055091985,-0.404658231440335,0.26609371671611515,0.016965535795665745,-0.21580102260118417,-0.2539678400865674,5.0
0.3802385061710362,-0.21772016723048776,0.1834274217091232,0.12436283842928948,-0.3771475975373103,-0.35708118188535826,5.0
0.4616290841787888,-0.12917052614227575,-0.09212692512750732,-0.5249027228648401,0.5429214954903939,0.27647088365456923,5.0
0.5748682461887388,-0.143928785304897,0.02153924369626922,-0.3361438068785647,0.8113077938005769,0.05933801615404093,5.0
0.5748682461887388,-0.143928785304897,0.02153924369626922,-0.3361438068785647,0.8113077938005769,0.05933801615404093,5.0
0.5748682461887388,-0.143928785304897,0.02153924369626922,-0.2634607830821944,-0.7226654312919828,-0.603958276143718,5.0
0.3731610430594372,-0.14884821937785148,0.09731668643851007,-0.04541169184611545,-0.02533333600643488,-0.16275222133909448,5.0
0.3731610430594372,-0.14884821937785148,0.09731668643851007,-0.44788039767467297,0.033695905984486615,0.1346900568204011,5.0
0.5465583937423437,-0.23247838333686593,0.13520540875171358,-0.10561927540665432,0.5303285823407192,-0.01601402602391668,5.0
0.5005551312925838,-0.25215611962868445,0.12487212187583957,0.20084273275217776,0.5295415348684093,-0.059638891633083176,5.0
0.5005551312925838,-0.25215611962868445,0.12487212187583957,0.09507265656382988,0.5200968500061532,-0.051707104482023585,5.0
0.48286147351358594,-0.3161085903521233,0.09387225747988541,0.12544767370122267,0.6082472036556975,-0.14490567304045635,5.0
0.8190402279876314,-0.5620797773249402,0.1834274217091232,0.30281595164531966,0.5381991338601766,-0.36104708150727793,5.0
0.38731596928263445,-0.23247838333686593,0.08009454164538676,-0.03456347805555977,-0.003295752393821141,-0.0824428023663412,5.0
0.4403966948439942,-0.23247838333686593,0.12487212187583957,-0.21464381771686575,-0.19376344378834268,0.06231243898098381,5.0
0.4510128895113922,-0.07013744643554877,0.0697612528853467,-0.42075985989045595,-0.029268621365708236,0.0662783360520827,5.0
0.48993893662518384,-0.11933170105260933,0.14209426666896288,-0.7380700884554997,0.10138276856615096,-0.020971394504926404,5.0
0.47578401040198803,-0.2915115060998356,0.10764997331438407,-0.235255423257356,0.2540717325110792,0.28440265871284925,5.0
0.42270303706499746,-0.23247838333686593,0.17309412729658485,-0.19348980115606498,-0.09380726285961244,0.4242005357360575,5.0
0.48993893662518384,-0.2669144218475483,0.14209426666896288,-0.24067953346046184,0.4067607084554384,0.23086306218805314,5.0
0.5607133199655417,-0.26199498777459346,0.1593164114620862,-0.07361704505529784,0.29657279519214197,-0.18555613207235253,5.0
0.47578401040198803,-0.16360647854047275,0.22820499063457947,0.41075567191490997,0.5720425975494722,-0.3273369347209614,5.0
0.5147100575157803,-0.15376765345080604,0.3315378744666482,0.020220001917529255,-0.02297216479087086,0.29828330738956776,5.0
0.31654133816664765,-0.143928785304897,0.004317097018979802,-0.24013712244015126,0.049437037822035325,0.09602256271543921,5.0
0.5854844408561347,-0.2816726379539266,0.08698339956263612,-0.22440720946680032,0.322545649764712,-0.03584351204073503,5.0
0.47578401040198803,-0.2718338559205029,0.17309412729658485,-0.1962018562576179,0.2399047244167845,-0.05369004220020382,5.0
0.5324034675191474,-0.2570755537016389,0.1765385637918739,-0.1359942737307753,0.3256938780521306,-0.003124858299067816,5.0
0.5288647359633486,-0.2472366855557299,0.23853828504711783,0.03432267521429242,0.2037001183105591,0.03355968599493428,5.0
0.4934776681809831,-0.2816726379539266,0.2419827064690781,0.19270658729448703,0.20920951781354175,0.06032949068162147,5.0
0.47224527884618933,-0.2718338559205029,0.19031627962637254,0.02238963276745958,0.14939321875076558,0.20607620164383528,5.0
0.4439354263997943,-0.143928785304897,0.16620526937933555,-0.15389382478993033,0.20684834659797774,-0.06360479125500276,5.0
0.42270303706499746,-0.25215611962868445,0.14898312458621224,-0.24284917092604819,0.11161450330060314,-0.2599166895194468,5.0
0.47932274195778724,-0.2472366855557299,0.16276084042071087,-0.039445177238355014,0.44926177113650106,-0.21331740524023046,5.0
0.4297805001765962,-0.12917052614227575,0.1593164114620862,0.051679814632919166,0.4744475590376719,-0.04377530523818442,5.0
0.5182487890715817,-0.2029618650116239,0.20064955896558218,-0.01666393423227849,0.5594496843997974,0.14559627473429018,5.0
0.5182487890715817,-0.17344534668638176,0.16964969833796018,-0.3529585418925368,0.3996772044082909,-0.07054511559336203,5.0
0.5324034675191474,-0.16360647854047275,0.17309412729658485,-0.29871746632410234,0.5657461409746348,-0.06955364068788217,5.0
0.40500962706163146,-0.15868708752376087,0.22476056921261917,-0.18101435761240553,0.08878986381607784,-0.07649395293346183,5.0
0.4297805001765962,-0.11933170105260933,0.19720513754362187,0.026728920929944257,-0.09616842447563173,-0.3491493826415193,5.0
0.3979321639500327,-0.10457339883374576,0.21787171129536984,0.06957937168751245,-0.18510580639839663,-0.1875390818833123,5.0
0.44747415795559353,-0.23247838333686593,0.2626492802208261,0.007202137430075222,-0.348813581348721,-0.13994831060583646,5.0
0.4687065472903901,-0.2816726379539266,0.22820499063457947,-0.0025612477042032894,-0.17093879830410194,-0.0883916517992206,5.0
0.48286147351358594,-0.2718338559205029,0.1834274217091232,-0.013951872515069562,-0.0646861608005343,-0.17663284583025388,5.0
0.4934776681809831,-0.11933170105260933,0.16620526937933555,-0.13273980988304354,0.0030006993812438636,-0.17762433282851336,5.0
0.5111713259599804,-0.06029857828963975,0.2040939954608712,-0.12894293522174044,0.06517816845964096,0.08908224442346972,5.0
0.47578401040198803,-0.08489570559817003,0.1593164114620862,-0.11592507983081342,-0.07098261737537168,0.18327229091057728,5.0
0.4651678157345909,-0.10949283290670032,0.19031627962637254,-0.21464381771686575,-0.21501395592978478,0.2824197330874486,5.0
0.4439354263997943,-0.143928785304897,0.19720513754362187,-0.33939827300042824,-0.3755735025926904,0.3329849169885846,5.0
0.47932274195778724,-0.2275590353763968,0.24542714296436713,-0.29600541783820544,-0.3433041722461937,0.30125772001322787,5.0
0.4403966948439942,-0.26199498777459346,0.1834274217091232,0.06415526148440666,-0.2535797236520295,0.4668339203933545,5.0
0.5182487890715817,-0.2128007331575333,0.10420554435575942,-0.12514606056043737,-0.1567717710107179,0.2834111959001489,5.0
0.45455162106719144,-0.13900939428818515,0.20064955896558218,-0.20488042596693126,0.4657899600459045,0.018687571482320506,5.0
0.45455162106719144,-0.2128007331575333,0.17309412729658485,-0.10019517181920448,0.007723041812371893,0.10891172741709315,5.0
0.45809035262299014,-0.19804247399491204,0.19031627962637254,-0.056802316656981724,0.16119906522904096,-0.01601402602391668,5.0
0.41562557395339894,-0.2029618650116239,0.19031627962637254,-0.0714474075897115,0.019528888290647247,0.06826128463486958,5.0
0.4333192317323957,-0.2472366855557299,0.30742687929293994,0.23284496310353428,-0.02690745015014422,0.1029628840306036,5.0
0.5111713259599804,-0.3505446288628055,0.17998298521383418,0.3185458646186706,0.31939744067638276,0.07123570746181246,5.0
0.6633362873080912,-0.2128007331575333,0.059427965067389656,-0.18101435761240553,0.5956542905060228,-0.047741204860104004,5.0
0.521787520627381,-0.1340899602152306,0.16620526937933555,-0.4402866566216368,0.6098212986003175,-0.012048126401997115,5.0
0.4297805001765962,-0.10949283290670032,0.19720513754362187,-0.5802286072425836,0.4398170862742451,0.22590568766065366,5.0
0.34838992216884196,-0.06521801236259431,0.2867602904678631,-0.6030098304016922,0.19897778547897574,0.5094673292362103,5.0
0.32715753283404564,-0.08981513967112459,0.33498231096193715,-0.4278111965388374,-0.05130620017854962,0.5996914609854237,5.0
0.3590061168362397,-0.15376765345080604,0.32464900147607,-0.09368624288330546,-0.1819575973100673,0.3706609392112615,5.0
0.3943934323942332,-0.20788129908457845,0.25576042230357676,-0.05354785053511822,-0.6636362180996953,0.31117246906802687,5.0
0.3943934323942332,-0.20788129908457845,0.25576042230357676,-0.15389382478993033,0.07619695959097983,0.16245133603466883,5.0
0.5394809306307452,-0.25215611962868445,0.1593164114620862,-0.12840052420142986,0.5256062591086809,-0.05666446691664351,5.0
0.40500962706163146,-0.18820360584900303,0.20064955896558218,-0.164742038580486,0.16592140766016897,0.06726981029623871,5.0
0.40500962706163146,-0.18820360584900303,0.20064955896558218,-0.15986034270551874,0.09980865682232778,0.08908224442346972,5.0
0.4687065472903901,-0.2275590353763968,0.20064955896558218,-0.151724182362602,0.1352262010569262,0.07817602650958067,5.0
0.4616290841787888,-0.2472366855557299,0.2040939954608712,-0.12840052420142986,0.11791095507566818,0.058346542004359764,5.0
0.4616290841787888,-0.2472366855557299,0.2040939954608712,-0.08988936904895937,0.09036397795978719,0.03752558259365897,5.0
0.47578401040198803,-0.2373978174098205,0.2040939954608712,-0.0822956180724392,0.12420740685073318,0.0811504497144229,5.0
0.4687065472903901,-0.22263960130344232,0.17309412729658485,-0.08392285113337095,0.12735563513815185,0.046448850696588245,5.0
0.4687065472903901,-0.22263960130344232,0.17309412729658485,-0.10887374152851782,0.08091929879726081,0.0821419246199028,5.0
0.45455162106719144,-0.20788129908457845,0.19720513754362187,-0.09422865390361605,0.056520546668955014,0.0999884593141639,5.0
0.4687065472903901,-0.2472366855557299,0.20064955896558218,-0.09151659880206313,0.05337232078142251,0.08610782121862749,5.0
0.4687065472903901,-0.23247838333686593,0.20064955896558218,-0.09368624288330546,0.05258526370956784,0.080158974808943,5.0
0.47578401040198803,-0.20788129908457845,0.20064955896558218,-0.10344963463323999,0.04156647190326097,0.08809076951798983,5.0
0.47224527884618933,-0.2128007331575333,0.21787171129536984,-0.12460364954012677,0.06990050729093972,0.0970140376209191,5.0
0.47224527884618933,-0.19804247399491204,0.20753841688283148,-0.12351882915341961,0.07777107268473897,0.09602256271543921,5.0
0.4687065472903901,-0.22263960130344232,0.19031627962637254,-0.15009695095558423,0.073048733478458,0.08709929461250994,5.0
0.47578401040198803,-0.23247838333686593,0.21787171129536984,-0.14955453993527365,0.09429925971923127,0.09106519121123463,5.0
0.4687065472903901,-0.25215611962868445,0.2144272748000808,-0.1408759698124818,0.0840675249847791,0.09007371781735218,5.0
0.47932274195778724,-0.24231725148277505,0.21787171129536984,-0.11050097293553558,0.05888171548463285,0.09503108780995932,5.0
0.47224527884618933,-0.2472366855557299,0.20753841688283148,-0.12134918672609127,0.06596522433155254,0.07817602650958067,5.0
0.47224527884618933,-0.2472366855557299,0.20753841688283148,-0.10561927540665432,0.055733489597100346,0.08313339801378525,5.0
0.45455162106719144,-0.2275590353763968,0.22476056921261917,-0.10182240157230822,0.0313347347689226,0.11981794533098225,5.0
0.45809035262299014,-0.2570755537016389,0.20753841688283148,-0.08663490292709587,0.04864998075018067,0.12477531381199193,5.0
0.45809035262299014,-0.2570755537016389,0.20753841688283148,-0.0893469580286488,0.050224092494003815,0.14857069945072987,5.0
0.4687065472903901,-0.2570755537016389,0.19720513754362187,-0.08012597729902486,0.042353528975115656,0.08610782121862749,5.0
0.44747415795559353,-0.24231725148277505,0.17998298521383418,-0.09205900982237371,0.02818651128127626,0.08610782121862749,5.0
0.44747415795559353,-0.24231725148277505,0.17998298521383418,-0.09205900982237371,0.003787756453098535,0.11783499552002245,5.0
0.4510128895113922,-0.2669144218475483,0.20753841688283148,-0.06331124228505274,-0.021398050647161538,0.1336985819149212,5.0
0.45809035262299014,-0.2816726379539266,0.17998298521383418,-0.0063581314620333885,-0.07098261737537168,0.13568153172588102,5.0
0.45809035262299014,-0.2816726379539266,0.17998298521383418,0.033780257578325826,-0.06389910372867963,0.12279237004742194,5.0
0.48640020506938514,-0.2915115060998356,0.1593164114620862,0.0777155303765152,-0.04343563905954762,0.11486057382677767,5.0
0.45809035262299014,-0.2669144218475483,0.1593164114620862,0.1102601651325262,-0.0670473320160983,0.1287412134339115,5.0
0.45809035262299014,-0.2669144218475483,0.1593164114620862,0.09181820367327828,-0.08514962546966634,0.0662783360520827,5.0
0.4651678157345909,-0.23247838333686593,0.1593164114620862,0.09073336840134524,-0.045009753203256946,0.06826128463486958,5.0
0.4651678157345909,-0.25215611962868445,0.13520540875171358,0.09073336840134524,-0.052880314322258946,0.04942327390143048,5.0
0.45809035262299014,-0.3161085903521233,0.1593164114620862,0.12761731778246485,-0.11348366085734507,-0.019979925645836276,5.0
0.4616290841787888,-0.2865920720268811,0.16276084042071087,0.17263738615865135,-0.15598472353840787,0.02562789279748491,5.0
0.45809035262299014,-0.2570755537016389,0.16620526937933555,0.17263738615865135,-0.17566114073522998,0.05636359370499742,5.0
0.48286147351358594,-0.2275590353763968,0.1834274217091232,0.1753494346445483,-0.07491789313510029,0.1287412134339115,5.0
0.48286147351358594,-0.2275590353763968,0.16276084042071087,0.12273559875270168,-0.12843773562303912,0.12675826362295176,5.0
0.4687065472903901,-0.2472366855557299,0.15587198250346151,0.137923107321398,-0.2173751367448933,0.12576678871747182,5.0
0.4368579632881947,-0.2816726379539266,0.14898312458621224,0.22145433829266803,-0.28899728228594496,0.10494583081836849,5.0
0.4333192317323957,-0.3505446288628055,0.15587198250346151,0.28328915491413864,-0.3000160620928209,0.14857069945072987,5.0
0.45809035262299014,-0.3849805812610022,0.16964969833796018,0.379295845968208,-0.3236277550493715,0.25664138554497123,5.0
0.4439354263997943,-0.39973879736738055,0.13864983771033823,0.4530636918051995,-0.40941692788380724,0.26556465969429033,5.0
0.4333192317323957,-0.3948193632944259,0.14553869562758756,0.5300860169953666,-0.5573835421979487,0.2893600453330282,5.0
0.41208684239759946,-0.4194165336591988,0.17309412729658485,0.6407377857508536,-0.6234962978355624,0.3904904131353002,5.0
0.4333192317323957,-0.4390941838385318,0.15242755354483686,0.706911864072185,-0.6116904705563765,0.4142857866812586,5.0
0.47578401040198803,-0.45877192013035006,0.09387225747988541,0.7931551435293519,-0.5361330300565068,0.36966945221300196,5.0
0.4333192317323957,-0.44401361791148647,0.14898312458621224,0.851735560185519,-0.5802081876821897,0.37561830164588134,5.0
0.4368579632881947,-0.4194165336591988,0.13520540875171358,0.9097734930491596,-0.5920140149613756,0.42816643535797716,5.0
0.4510128895113922,-0.38006114718804773,0.14898312458621224,0.8745168098072515,-0.5975234624620818,0.4529532959021948,5.0
0.4439354263997943,-0.3407057607168962,0.14209426666896288,0.8793985288370149,-0.5321977542967782,0.42816643535797716,5.0
0.4687065472903901,-0.2865920720268811,0.17998298521383418,0.8533627998621068,-0.44719562893465264,0.40337957481375913,5.0
0.5005551312925838,-0.2128007331575333,0.16620526937933555,0.7546439809342683,-0.3527488571084497,0.44105559703643615,5.0
0.5253262521831796,-0.17344534668638176,0.1317609797930889,0.5870391410496979,-0.2543667711243395,0.4073454744356788,5.0
0.5253262521831796,-0.10457339883374576,0.09387225747988541,0.4335369215366424,-0.21186572764236603,0.33992522923416424,5.0
0.5182487890715817,-0.06521801236259431,0.09387225747988541,0.16124676134778523,-0.07727906435066434,0.23185453709353304,5.0
0.4970163997367846,-0.0209431918184883,0.09042782852126076,-0.04215723233990795,-0.013527489528159539,0.2209483131332542,5.0
0.47578401040198803,-0.025862625891443152,0.10076111539713475,-0.21572863975748693,-0.015888660743723537,0.20012736430373554,5.0
0.47932274195778724,-0.04554031912701848,0.10076111539713475,-0.3008871104053447,-0.021398050647161538,0.15650249264817925,5.0
0.4651678157345909,-0.08981513967112459,0.10076111539713475,-0.49290049251348345,-0.03635212541285556,0.07916750141506056,5.0
0.4616290841787888,-0.10949283290670032,0.08009454164538676,-0.6068067406221463,-0.05051914310669493,0.04050000579850121,5.0
0.47224527884618933,-0.13900939428818515,0.07320568184397135,-0.6794897776498287,-0.08751080628477506,0.019679046387800422,5.0
0.48640020506938514,-0.16360647854047275,0.031872531514226254,-0.782005348022377,-0.12214129824729118,0.04843179899595059,5.0
0.47224527884618933,-0.2275590353763968,0.031872531514226254,-0.7917687860819036,-0.11741895581616316,0.09503108780995932,5.0
0.4297805001765962,-0.3062698083186995,0.02498367265489388,-0.7836325876989647,-0.1457529912038419,0.13072416324487132,5.0
0.4439354263997943,-0.3062698083186995,0.02498367265489388,-0.8281102781331207,-0.22052336503231207,0.11089467722805298,5.0
0.45809035262299014,-0.301350374245745,-0.00946061881551885,-0.8384160941346779,-0.19848576702038134,0.0771845531156982,5.0
0.4651678157345909,-0.33086689257098717,-0.033571625294223674,-0.8378736632673992,-0.23547743979800614,0.06429538756377068,5.0
0.48993893662518384,-0.3259474584980326,-0.033571625294223674,-0.83678885445809,-0.15126238110727988,0.03554263580589407,5.0
0.48993893662518384,-0.3259474584980326,-0.033571625294223674,-0.8416705205626054,-0.05209325725040429,-0.005107808110027609,5.0
0.4651678157345909,-0.35546397682327474,-0.0783492017563443,-0.8253982296472236,-0.01116631831259549,-0.08145132746086134,5.0
0.4934776681809831,-0.39973879736738055,-0.08523806721025796,-0.8313647574862963,0.02818651128127626,-0.07748542783894173,5.0
0.4934776681809831,-0.39973879736738055,-0.08523806721025796,-0.7765812510505832,0.14467088111940993,-0.13895682360757697,5.0
0.5005551312925838,-0.45385248605739537,-0.08179363071496894,-0.6762352982966531,0.178514311210299,-0.11317850025065883,5.0
0.4970163997367846,-0.4735302223492138,-0.08523806721025796,-0.5471415416192938,0.2454141143202225,-0.17365843320659377,5.0
0.47932274195778724,-0.48828843845559217,-0.07490477279771963,-0.4229295039716981,0.26351641737333525,-0.24702752784098778,5.0
0.4510128895113922,-0.49320787252854703,-0.06801591488047029,-0.27810586078361216,0.22888592541081912,-0.2638825891413664,5.0
0.4333192317323957,-0.49320787252854703,-0.050793770087346965,-0.14684248731459174,0.24147883856049385,-0.23116392935330937,5.0
0.4297805001765962,-0.45385248605739537,-0.06801591488047029,-0.04107241029928677,0.17615313999473498,-0.2103429684310112,5.0
0.44747415795559353,-0.4194165336591988,-0.033571625294223674,0.04734052647043439,0.06990050729093972,-0.13201651136199727,5.0
0.4403966948439942,-0.404658231440335,-0.006016189856894166,0.1346686544308466,0.06596522433155254,-0.0755024780279819,5.0
0.44747415795559353,-0.3849805812610022,0.011205954936229142,0.2219967691599466,0.02976062542498561,-0.011056657542906988,5.0
0.47578401040198803,-0.34562519478985104,-0.0025717608982695067,0.27081372129396336,0.04786292367832598,-0.012048126401997115,5.0
0.47224527884618933,-0.3505446288628055,0.04220581909666253,0.36465074180416623,0.022677116578065943,-0.027911718843285655,5.0
0.4439354263997943,-0.3161085903521233,0.04220581909666253,0.35814183602306326,-0.041074467843983574,-0.004116333204547735,5.0
0.4403966948439942,-0.26199498777459346,-0.0025717608982695067,0.2431507791050915,-0.021398050647161538,-0.0001504396290179304,5.0
0.4651678157345909,-0.22263960130344232,-0.00946061881551885,0.16124676134778523,0.025038282993857592,0.014721674883595824,5.0
0.48640020506938514,-0.19804247399491204,-0.006016189856894166,0.11731150178090789,0.06596522433155254,0.02562789279748491,5.0
0.5005551312925838,-0.2128007331575333,0.004317097018979802,0.07337624221403062,0.011658322371872892,0.016704624694555616,5.0
0.48286147351358594,-0.2128007331575333,-0.00946061881551885,0.014253474078456816,-0.021398050647161538,-0.005107808110027609,5.0
0.47224527884618933,-0.2029618650116239,0.007761525977604483,-0.00418848738079105,-0.010379261240740834,0.000841035276461955,5.0
0.47578401040198803,-0.24231725148277505,0.028428101613518546,0.03974678541739829,-0.03399095419729155,0.0057984098038614375,5.0
0.48286147351358594,-0.2718338559205029,0.03531696047285092,0.053307041078194936,-0.026120393078289564,0.03058526430168948,5.0
0.48286147351358594,-0.2718338559205029,0.0525391066790988,0.0874789155107937,0.021103002434356602,0.03554263580589407,5.0
0.45809035262299014,-0.2915115060998356,0.03876138990251711,0.12544767370122267,0.002213642309389174,0.04843179899595059,5.0
0.4439354263997943,-0.2718338559205029,0.031872531514226254,0.1634164054290276,0.022677116578065943,0.06231243898098381,5.0
0.45455162106719144,-0.2570755537016389,0.02153924369626922,0.20735166499590488,0.05337232078142251,0.0970140376209191,5.0
0.47224527884618933,-0.2718338559205029,0.03876138990251711,0.2735257697798601,0.056520546668955014,0.2110335761712348,5.0
0.4934776681809831,-0.23247838333686593,0.01465038577901988,0.2572534524018546,0.08800280794416626,0.26259023497785067,5.0
0.4687065472903901,-0.22263960130344232,0.007761525977604483,0.25020211575347306,0.08721575087231158,0.2804367832764888,5.0
0.4510128895113922,-0.2128007331575333,-0.012905047774143509,0.2360994424567098,0.08957692088793251,0.3181128054991657,5.0
0.45809035262299014,-0.2373978174098205,-0.019793909459725013,0.14063515580729496,0.10295688270986031,0.3101810062553265,5.0
0.47578401040198803,-0.2275590353763968,-0.054238199045971644,0.00937178151131756,0.11554978625999034,0.2943174077676482,5.0
0.5005551312925838,-0.25215611962868445,-0.08523806721025796,-0.13165498866937936,0.12971680635371588,0.22888011237709335,5.0
0.5182487890715817,-0.26199498777459346,-0.07490477279771963,-0.2856996150679603,0.09508631679108594,0.1465877496397701,5.0
0.4934776681809831,-0.2865920720268811,-0.050793770087346965,-0.31282015285217757,0.0691134508190566,0.03752558259365897,5.0
0.4616290841787888,-0.2669144218475483,-0.03701605425284833,-0.33668621128321924,0.009297151156308877,-0.02592876903232585,5.0
0.44747415795559353,-0.2915115060998356,-0.026682767376974323,-0.34427996556756746,-0.026120393078289564,-0.03485203713525513,5.0
0.4510128895113922,-0.311189242391654,-0.012905047774143509,-0.30251435008193245,0.03763118894387381,-0.07451100312250204,5.0
0.4616290841787888,-0.2915115060998356,-0.012905047774143509,-0.25369738471660386,0.04786292367832598,-0.084425752177301,5.0
0.4687065472903901,-0.2570755537016389,0.004317097018979802,-0.2390523003995301,0.08249341204101282,-0.0824428023663412,5.0
0.47578401040198803,-0.2964309401727901,0.02498367265489388,-0.14033355899891048,0.10295688270986031,-0.0427838303327045,5.0
0.48286147351358594,-0.35546397682327474,0.03531696047285092,-0.027512141407178173,0.1131886174443125,0.014721674883595824,5.0
0.47932274195778724,-0.43417483587806277,0.03876138990251711,0.09724230064507226,0.1533284993102666,0.03752558259365897,5.0
0.48286147351358594,-0.4144970995862443,0.03876138990251711,0.2127757884303227,0.178514311210299,0.08908224442346972,5.0
0.48640020506938514,-0.33086689257098717,0.03876138990251711,0.24857487607688522,0.21078363195725108,0.18327229091057728,5.0
0.4616290841787888,-0.22263960130344232,0.03876138990251711,0.23067531902229194,0.1462449904633469,0.2268971625661336,5.0
0.45809035262299014,-0.19804247399491204,0.03876138990251711,0.17372222143058458,0.13129091569765286,0.19219556505989638,5.0
0.47932274195778724,-0.15868708752376087,0.01465038577901988,0.03757714133615598,0.2824057678987579,0.12477531381199193,5.0
0.48286147351358594,-0.14884821937785148,0.01465038577901988,-0.0888045470083382,0.3760655114517403,0.05537211955531624,5.0
0.47578401040198803,-0.143928785304897,0.007761525977604483,-0.18481123144675166,0.3296291730109488,0.018687571482320506,5.0
0.45809035262299014,-0.17344534668638176,-0.012905047774143509,-0.4218446951623889,0.17930136828215368,-0.059638891633083176,5.0
0.4687065472903901,-0.2472366855557299,0.007761525977604483,-0.45167728143250313,0.12578152099444256,-0.05468151710568369,5.0
0.48286147351358594,-0.3407057607168962,0.007761525977604483,-0.4533045211090909,0.14703204753520158,-0.030886137513335552,5.0
0.4934776681809831,-0.35546397682327474,0.011205954936229142,-0.3833335325673055,0.12971680635371588,-0.006099283015507528,5.0
0.5005551312925838,-0.37514171311509287,0.03876138990251711,-0.25803667287908855,0.24305295270420318,-0.03584351204073503,5.0
0.47932274195778724,-0.3603834108962292,0.031872531514226254,-0.18318400169364787,0.2957857285207426,-0.030886137513335552,5.0
0.47932274195778724,-0.3603834108962292,0.031872531514226254,-0.13328222048987562,0.3091656891427273,-0.0408008805217447,5.0
0.45455162106719144,-0.3210280244250778,0.031872531514226254,-0.1061616864269649,0.3288421063395494,-0.01601402602391668,5.0
0.45455162106719144,-0.3210280244250778,0.031872531514226254,-0.04758133592735779,0.3918066336897443,0.0454573773027058,5.0
0.47224527884618933,-0.33086689257098717,0.07665011080259602,0.0023204448629359662,0.40518661351081847,0.10494583081836849,5.0
0.40854835861743044,-0.3259474584980326,0.07320568184397135,0.08368204498427557,0.27610933052300995,0.19417851487085613,5.0
0.40854835861743044,-0.3259474584980326,0.07320568184397135,0.10158158880755684,0.19976483295128572,0.2209483131332542,5.0
0.4333192317323957,-0.301350374245745,0.059427965067389656,0.10212399321221143,0.13916148161642722,0.2814282460891891,5.0
0.4651678157345909,-0.2718338559205029,0.01465038577901988,0.04571330002515879,0.10610510859739282,0.2615987600723707,5.0
0.4651678157345909,-0.2718338559205029,0.01465038577901988,0.00015080078169365214,0.08249341204101282,0.23780337443363284,5.0
0.48993893662518384,-0.2865920720268811,-0.012905047774143509,-0.0508358020492213,0.03920530068769696,0.12080942023646214,5.0
0.48993893662518384,-0.3062698083186995,0.03876138990251711,-0.06819294146784799,-0.01116631831259549,0.0444659023972259,5.0
0.4651678157345909,-0.3062698083186995,0.04220581909666253,-0.06439606432567391,-0.014314546600014192,-0.011056657542906988,5.0
0.45809035262299014,-0.2915115060998356,0.03876138990251711,-0.05842954971791348,-0.024546278934580206,-0.03187761241881546,5.0
0.45809035262299014,-0.2816726379539266,0.0697612528853467,-0.037275533157112704,0.03054767769706794,-0.028903193748765574,5.0
0.48286147351358594,-0.2816726379539266,0.08009454164538676,-0.008527775543275728,0.12578152099444256,-0.07153657840606235,5.0
0.47224527884618933,-0.2718338559205029,0.05598353610876499,0.0115414255925599,0.1423097099038459,-0.06657921597144248,5.0
0.45809035262299014,-0.2718338559205029,0.09387225747988541,0.03920436778143172,0.1360132581287809,-0.10227228838315955,5.0
0.45809035262299014,-0.2472366855557299,0.10764997331438407,0.06524008352502768,0.12578152099444256,-0.0427838303327045,5.0
0.45809035262299014,-0.22263960130344232,0.14898312458621224,0.07120659813278822,0.0966604297348522,-0.027911718843285655,5.0
0.4439354263997943,-0.2029618650116239,0.13520540875171358,0.06198561740316429,0.06675228140340721,0.0771845531156982,5.0
0.4297805001765962,-0.22263960130344232,0.11798326395859023,0.015338296119077987,0.022677116578065943,0.14559627473429018,5.0
0.4439354263997943,-0.2275590353763968,0.09387225747988541,-0.0009340212589275419,-0.01116631831259549,0.18128935319239706,5.0
0.4510128895113922,-0.2669144218475483,0.09731668643851007,-0.015036694555690755,0.10138276856615096,0.17137460413759809,5.0
0.4510128895113922,-0.2669144218475483,0.09731668643851007,-0.014494290151036152,0.1423097099038459,0.18128935319239706,5.0
0.47578401040198803,-0.2816726379539266,0.08353897060401141,-0.0888045470083382,0.178514311210299,0.0999884593141639,5.0
0.4934776681809831,-0.2915115060998356,0.03876138990251711,-0.21572863975748693,0.1950425001197024,0.024636417892004995,5.0
0.5111713259599804,-0.3161085903521233,0.02498367265489388,-0.3106505087709352,0.23282121077009246,-0.08640870198826082,5.0
0.5040938628483825,-0.3407057607168962,0.03876138990251711,-0.3111929131755898,0.2721740355641919,-0.14490567304045635,5.0
0.5005551312925838,-0.4095776655132899,0.05598353610876499,-0.22711926456835324,0.3186103740049833,-0.2519848902756077,5.0
0.48286147351358594,-0.39973879736738055,0.13520540875171358,-0.11646749085112401,0.3256938780521306,-0.28172911325444544,5.0
0.44747415795559353,-0.3259474584980326,0.15587198250346151,-0.08012597729902486,0.3146750982452547,-0.24801899065368804,5.0
0.44747415795559353,-0.22263960130344232,0.1317609797930889,-0.08392285113337095,0.2887022244735953,-0.0755024780279819,5.0
0.4687065472903901,-0.19312303992195748,0.17309412729658485,-0.07036258554909033,0.2887022244735953,-0.0021333894399777347,5.0
0.48640020506938514,-0.17344534668638176,0.17309412729658485,-0.06765053044753741,0.3107398032864367,0.018687571482320506,5.0
0.47224527884618933,-0.16360647854047275,0.16620526937933555,-0.049208568988289535,0.3272679921958401,-0.0001504396290179304,5.0
0.4439354263997943,-0.143928785304897,0.19031627962637254,-0.03510588907587034,0.3524537992961001,-0.005107808110027609,5.0
0.4439354263997943,-0.143928785304897,0.1868718431310835,-0.06927776350846916,0.3886584054023255,0.03455116090041417,5.0
0.45809035262299014,-0.11441226697965487,0.17309412729658485,-0.11646749085112401,0.4232888973648416,0.09602256271543921,5.0
0.48286147351358594,-0.0996539647607909,0.16620526937933555,-0.16908132508905668,0.37842667306775957,0.18624671562701697,5.0
0.48286147351358594,-0.12917052614227575,0.13520540875171358,-0.19837150033886022,0.29893395680816126,0.15848544245913904,5.0
0.4510128895113922,-0.15376765345080604,0.12487212187583957,-0.283529970986718,0.19582955719155706,0.15947691736461897,5.0
0.4439354263997943,-0.20788129908457845,0.08698339956263612,-0.3898424648110325,0.09351220384731969,0.12576678871747182,5.0
0.4687065472903901,-0.26199498777459346,0.03531696047285092,-0.4847643205931687,0.013232436515582235,0.07024423293423192,5.0
0.47932274195778724,-0.3161085903521233,0.04909467748495338,-0.4777129839447872,-0.01274043245630485,0.03752558259365897,5.0
0.48640020506938514,-0.38990001533395663,0.059427965067389656,-0.33288934075670107,-0.037139182484710216,0.004806934898381553,5.0
0.48640020506938514,-0.42433596773215343,0.07665011080259602,-0.15660587823756925,-0.021398050647161538,0.015713149789075738,5.0
0.47578401040198803,-0.4194165336591988,0.10076111539713475,-0.04595410286642604,-0.0072310329533221305,0.008772828473911335,5.0
0.4651678157345909,-0.34562519478985104,0.09042782852126076,0.10917535632321719,0.02818651128127626,0.05438064540563507,5.0
0.44747415795559353,-0.2718338559205029,0.09387225747988541,0.1070057122419748,0.022677116578065943,0.07123570746181246,5.0
0.4510128895113922,-0.23247838333686593,0.10420554435575942,0.03811954574081053,0.008510098884226547,0.09007371781735218,5.0
0.4510128895113922,-0.2373978174098205,0.06287239496809736,-0.049750980008600135,-0.09302019618821306,0.12080942023646214,5.0
0.45809035262299014,-0.22263960130344232,0.07665011080259602,-0.1061616864269649,-0.1740870265915206,0.1654257607511085,5.0
0.4616290841787888,-0.23247838333686593,0.07665011080259602,-0.16365721819377885,-0.1874669872135054,0.19616146468181594,5.0
0.47578401040198803,-0.2472366855557299,0.07665011080259602,-0.20108355544041315,-0.1827446447823773,0.17633197866499759,5.0
0.5005551312925838,-0.26199498777459346,0.059427965067389656,-0.24176435550108302,-0.0922331487159031,0.12477531381199193,5.0
0.4970163997367846,-0.27675320388097174,0.0697612528853467,-0.25532462439319165,-0.05209325725040429,0.0821419246199028,5.0
0.4934776681809831,-0.2915115060998356,0.07665011080259602,-0.2743089902570941,0.01087126530001822,0.058346542004359764,5.0
0.4934776681809831,-0.2816726379539266,0.059427965067389656,-0.2813603269054757,0.07777107268473897,0.03752558259365897,5.0
0.47932274195778724,-0.3062698083186995,0.06631682392672203,-0.27593622993368183,0.13050386342557058,-0.011056657542906988,5.0
0.47578401040198803,-0.3161085903521233,0.07320568184397135,-0.24664604806822227,0.11869801214752283,0.0038154599929016335,5.0
0.4687065472903901,-0.2915115060998356,0.10076111539713475,-0.24067953346046184,0.10767922034121599,0.02860231449072968,5.0
0.4687065472903901,-0.2915115060998356,0.10076111539713475,-0.24501881500729047,0.10216982563800563,0.09106519121123463,5.0
0.47578401040198803,-0.2915115060998356,0.09731668643851007,-0.24230675990573755,0.09193809090355344,0.11386909892129776,5.0
0.45809035262299014,-0.2964309401727901,0.09387225747988541,-0.2526125626759827,0.09351220384731969,0.11981794533098225,5.0
0.4439354263997943,-0.3062698083186995,0.09042782852126076,-0.21681346179810812,0.06832639434717347,0.08412487291926514,5.0
0.45809035262299014,-0.3161085903521233,0.09387225747988541,-0.19674426727792846,0.05258526370956784,0.07222718161149362,5.0
0.47224527884618933,-0.27675320388097174,0.10076111539713475,-0.19186257140296123,0.0573076025408666,0.04050000579850121,5.0
0.48993893662518384,-0.27675320388097174,0.08009454164538676,-0.21572863975748693,0.06675228140340721,0.07123570746181246,5.0
0.4687065472903901,-0.2915115060998356,0.09042782852126076,-0.20488042596693126,0.06675228140340721,0.13072416324487132,5.0
0.47224527884618933,-0.2718338559205029,0.08353897060401141,-0.22115274996059278,0.07462284642222425,0.1039543559128886,5.0
0.48286147351358594,-0.2718338559205029,0.10076111539713475,-0.24393399296666934,0.11869801214752283,0.04843179899595059,5.0
0.48286147351358594,-0.2964309401727901,0.06631682392672203,-0.26508800952747014,0.14073559576013656,0.05735506785467859,5.0
0.47932274195778724,-0.2865920720268811,0.059427965067389656,-0.28190274454144226,0.1336520869132169,0.046448850696588245,5.0
0.47578401040198803,-0.33086689257098717,0.09042782852126076,-0.2699697020946094,0.14939321875076558,0.13568153172588102,5.0
0.4687065472903901,-0.35546397682327474,0.09042782852126076,-0.2840723886226846,0.15018027582262025,0.1346900568204011,5.0
0.48286147351358594,-0.3407057607168962,0.06631682392672203,-0.3497040757706732,0.16985669301944234,0.0970140376209191,5.0
0.48286147351358594,-0.311189242391654,0.031872531514226254,-0.36651881078464554,0.27610933052300995,0.07619307821021831,5.0
0.47932274195778724,-0.3407057607168962,0.031872531514226254,-0.3627219270268153,0.3099527558141267,0.058346542004359764,5.0
0.4651678157345909,-0.4095776655132899,0.02153924369626922,-0.36543397551271223,0.3335644487706774,0.04843179899595059,5.0
0.4368579632881947,-0.43417483587806277,0.06287239496809736,-0.3263804085129742,0.3091656891427273,0.03653410768817907,5.0
0.4368579632881947,-0.43417483587806277,0.06287239496809736,-0.26237596104157324,0.2532846850387692,0.03355968599493428,5.0
0.45809035262299014,-0.3849805812610022,0.09387225747988541,-0.23417060121673483,0.2902763386173046,0.04050000579850121,5.0
0.45809035262299014,-0.3948193632944259,0.09387225747988541,-0.14684248731459174,0.29499868104843263,0.015713149789075738,5.0
0.45809035262299014,-0.3505446288628055,0.09387225747988541,-0.15714828925787983,0.24462706684791255,0.07222718161149362,5.0
0.4616290841787888,-0.2865920720268811,0.11109440604134092,-0.16636926998750376,0.2155059647888344,0.016704624694555616,5.0
0.4439354263997943,-0.26199498777459346,0.17309412729658485,-0.21247417363562343,0.18638487232930098,0.02265346808104519,5.0
0.4439354263997943,-0.26199498777459346,0.17309412729658485,-0.24773087010884345,0.31703625986127404,0.004806934898381553,5.0
0.5288647359633486,-0.20788129908457845,0.20753841688283148,-0.4017754940265535,0.584635472300968,0.021661996198760226,5.0
0.3236188012782467,-0.08489570559817003,0.1834274217091232,-0.3399406774050829,0.14703204753520158,0.03752558259365897,5.0
0.3236188012782467,-0.08489570559817003,0.1834274217091232,-0.3838759369719602,-0.16228118011324527,0.16641723565658842,5.0
0.3908547008384342,-0.0996539647607909,0.16276084042071087,-0.5010366379711744,-0.21186572764236603,0.2824197330874486,5.0
0.4333192317323957,-0.14884821937785148,0.13520540875171358,-0.4787978192167204,-0.31811838434502315,0.2883685583347688,5.0
0.48286147351358594,-0.2275590353763968,0.10764997331438407,-0.45167728143250313,-0.3858052349272566,0.278453833465529,5.0
0.5147100575157803,-0.26199498777459346,0.0697612528853467,-0.38007907967675403,-0.3417300773015738,0.30026625720052763,5.0
0.5005551312925838,-0.2964309401727901,0.07665011080259602,-0.28949648559447844,-0.32835011667958913,0.3230701679337856,5.0
0.48286147351358594,-0.2865920720268811,0.08698339956263612,-0.2455612260276011,-0.27246909337654146,0.24573517367747202,5.0
0.4934776681809831,-0.2373978174098205,0.06287239496809736,-0.2531549803119493,-0.19218932964463328,0.21698242560411424,5.0
0.5005551312925838,-0.2373978174098205,0.02498367265489388,-0.1962018562576179,-0.09065903457219375,0.17335755394855787,5.0
0.4934776681809831,-0.2472366855557299,0.03531696047285092,-0.18209917965302672,-0.024546278934580206,0.14857069945072987,5.0
0.48286147351358594,-0.25215611962868445,0.0525391066790988,-0.1652844496007966,0.009297151156308877,0.12080942023646214,5.0
0.47224527884618933,-0.2472366855557299,0.01465038577901988,-0.23254336815580304,0.023464168850148237,0.12180089514194203,5.0
0.4687065472903901,-0.16360647854047275,0.004317097018979802,-0.26834247564933367,-0.019823936503452193,0.2040932518328755,5.0
0.48640020506938514,-0.1242510920693212,-0.00946061881551885,-0.2949205957975843,-0.015888660743723537,0.23284601199901295,5.0
0.5005551312925838,-0.143928785304897,0.0008726680603551519,-0.3486192537300522,-0.010379261240740834,0.286385608523809,5.0
0.5005551312925838,-0.18820360584900303,0.031872531514226254,-0.3236683600270772,-0.041861524915838264,0.2853941457111087,5.0
0.4687065472903901,-0.17836478075933632,0.031872531514226254,-0.31336255725683215,-0.0670473320160983,0.2725049840326496,5.0
0.47932274195778724,-0.2718338559205029,0.0008726680603551519,-0.28895408118982385,-0.02690745015014422,0.20012736430373554,5.0
0.4934776681809831,-0.33578632664394165,-0.019793909459725013,-0.2390523003995301,0.055733489597100346,0.12774973852843163,5.0
0.4970163997367846,-0.35546397682327474,-0.033571625294223674,-0.22277997640586855,0.13129091569765286,0.0970140376209191,5.0
0.4687065472903901,-0.38006114718804773,-0.006016189856894166,-0.14630007629428116,0.2021260041668497,0.001832510181941874,5.0
0.4687065472903901,-0.37514171311509287,-0.00946061881551885,-0.08338044011306037,0.13994853868828191,-0.019979925645836276,5.0
0.45809035262299014,-0.3505446288628055,-0.006016189856894166,-0.07253222963033266,0.0840675249847791,0.02661936770296479,5.0
0.47578401040198803,-0.2964309401727901,-0.019793909459725013,-0.06819294146784799,0.07147462023470597,0.15451954283721944,5.0
0.4687065472903901,-0.2865920720268811,0.02498367265489388,-0.03781794417742328,0.06517816845964096,0.23482896180997273,5.0
0.4687065472903901,-0.2570755537016389,0.02498367265489388,-0.020460804758796577,0.049437037822035325,0.23185453709353304,5.0
0.4687065472903901,-0.2816726379539266,0.06287239496809736,-0.010697406393206054,0.02897356835313095,0.19516998977633607,5.0
0.45809035262299014,-0.3062698083186995,0.06287239496809736,0.020762406322183832,0.04392764071893881,0.16145986112918895,5.0
0.4510128895113922,-0.2865920720268811,0.031872531514226254,-0.006900535866687967,0.10453099445368348,0.16344281094014873,5.0
0.45455162106719144,-0.3259474584980326,0.031872531514226254,0.0023204448629359662,0.10138276856615096,0.19516998977633607,5.0
0.44747415795559353,-0.3407057607168962,0.01465038577901988,-0.007985357907309112,0.049437037822035325,0.22491421275517381,5.0
0.4403966948439942,-0.3210280244250778,0.0525391066790988,0.007744555066041813,0.003787756453098535,0.26556465969429033,5.0
0.4651678157345909,-0.3407057607168962,0.04909467748495338,0.03486507961894702,-0.01746276528788818,0.31216395606628633,5.0
0.4687065472903901,-0.34562519478985104,0.10076111539713475,0.051679814632919166,-0.029268621365708236,0.25465844782679115,5.0
0.48286147351358594,-0.3505446288628055,0.08353897060401141,0.006117315389454053,-0.01824982235974283,0.18228082809787696,5.0
0.5076325944041817,-0.3603834108962292,0.0525391066790988,-0.030224196508731108,0.11240156037245784,0.12080942023646214,5.0
0.4970163997367846,-0.4194165336591988,0.04220581909666253,-0.03130901854935225,0.23911765774538513,0.10097993421964378,5.0
0.48286147351358594,-0.404658231440335,0.04220581909666253,-0.01991838712282999,0.3186103740049833,0.004806934898381553,5.0
0.41562557395339894,-0.4194165336591988,0.01465038577901988,-0.009612584352584884,0.2934245669047233,-0.03980940561626483,5.0
0.41562557395339894,-0.404658231440335,0.01465038577901988,0.013168652037835647,0.23282121077009246,-0.060630366538563074,5.0
0.42624176862079693,-0.38990001533395663,0.07320568184397135,-0.0014764256635821202,0.17615313999473498,-0.09334901423384048,5.0
0.44747415795559353,-0.3702222790421382,0.07320568184397135,-0.027512141407178173,0.18874604354486502,-0.1250761991164176,5.0
0.47932274195778724,-0.3505446288628055,0.0525391066790988,-0.05463267257573937,0.20055189002314036,-0.14391421022775605,5.0
0.45809035262299014,-0.3407057607168962,0.07665011080259602,-0.07415945607560843,0.1816625394977177,-0.1647351711500543,5.0
0.42624176862079693,-0.3702222790421382,0.08353897060401141,-0.09585588365671979,0.16119906522904096,-0.08740017689374069,5.0
0.42624176862079693,-0.3505446288628055,0.10764997331438407,-0.1132130263831745,0.1730049117073163,-0.09533196404480028,5.0
0.4403966948439942,-0.33578632664394165,0.07665011080259602,-0.14413043386695282,0.14309676697570056,-0.03683498089982514,5.0
0.45809035262299014,-0.3407057607168962,0.09387225747988541,-0.19186257140296123,0.1462449904633469,-0.03286908732429533,5.0
0.45809035262299014,-0.3407057607168962,0.09387225747988541,-0.19077774936234007,0.1328650298413622,-0.028903193748765574,5.0
0.44747415795559353,-0.3849805812610022,0.10076111539713475,-0.1956594452373073,0.13207797276950756,-0.047741204860104004,5.0
0.42624176862079693,-0.39973879736738055,0.12142769291721492,-0.2103045361700371,0.09193809090355344,-0.011056657542906988,5.0
0.4439354263997943,-0.4144970995862443,0.09387225747988541,-0.18426882373426906,0.09429925971923127,-0.017005500929396587,5.0
0.47578401040198803,-0.4194165336591988,0.09387225747988541,-0.15335141542353375,0.09429925971923127,0.009764303379391253,5.0
0.47932274195778724,-0.4095776655132899,0.059427965067389656,-0.1506393619758948,0.14467088111940993,-0.003124858299067816,5.0
0.4687065472903901,-0.3948193632944259,0.06631682392672203,-0.16636926998750376,0.1730049117073163,-0.0070907579209874136,5.0
0.4687065472903901,-0.3948193632944259,0.06631682392672203,-0.15986034270551874,0.12420740685073318,0.012738728095830933,5.0
0.4333192317323957,-0.3948193632944259,0.0697612528853467,-0.13490945251711112,0.08800280794416626,-0.02989466865424545,5.0
0.45809035262299014,-0.37514171311509287,0.08698339956263612,-0.11429784676988167,0.09902159975047312,-0.04476678014366431,5.0
0.45809035262299014,-0.37514171311509287,0.08698339956263612,-0.12948534624205102,0.1289297492818612,-0.022954344315886163,5.0
0.4616290841787888,-0.33086689257098717,0.09731668643851007,-0.15660587823756925,0.10059571149429629,0.05636359370499742,5.0
0.4616290841787888,-0.33578632664394165,0.09042782852126076,-0.16365721819377885,0.06596522433155254,0.12180089514194203,5.0
0.4616290841787888,-0.33578632664394165,0.09042782852126076,-0.16040275372582935,0.05888171548463285,0.1079202555348082,5.0
0.4368579632881947,-0.34562519478985104,0.10076111539713475,-0.17016614382184986,0.0840675249847791,0.03851705749913886,5.0
0.44747415795559353,-0.3259474584980326,0.11798326395859023,-0.18806569756861513,0.06517816845964096,0.004806934898381553,5.0
0.44747415795559353,-0.3259474584980326,0.11798326395859023,-0.1864384645076834,0.049437037822035325,0.07222718161149362,5.0
0.45455162106719144,-0.3505446288628055,0.10076111539713475,-0.15389382478993033,0.02425122592200291,0.03851705749913886,5.0
0.47578401040198803,-0.38990001533395663,0.09387225747988541,-0.1338246310967077,0.0313347347689226,0.02562789279748491,5.0
0.47578401040198803,-0.38990001533395663,0.09387225747988541,-0.12134918672609127,0.025038282993857592,-0.0011419145344978383,5.0
0.45809035262299014,-0.35546397682327474,0.07665011080259602,-0.11429784676988167,0.012445379443727572,-0.003124858299067816,5.0
0.4439354263997943,-0.37514171311509287,0.08353897060401141,-0.10724650846758607,0.019528888290647247,0.04347442900334345,5.0
0.45809035262299014,-0.36530284496918375,0.059427965067389656,-0.09585588365671979,0.0014265852375345204,0.021661996198760226,5.0
0.45809035262299014,-0.3505446288628055,0.0525391066790988,-0.07361704505529784,0.021890059506211253,0.06032949068162147,5.0
0.4687065472903901,-0.3210280244250778,0.04220581909666253,-0.0578871386976029,0.05337232078142251,0.03058526430168948,5.0
0.47578401040198803,-0.3161085903521233,0.03876138990251711,-0.06276883788039817,0.07934518585349455,-0.015022551118436794,5.0
0.48286147351358594,-0.301350374245745,0.0525391066790988,-0.09260142084268429,0.09351220384731969,0.000841035276461955,5.0
0.45809035262299014,-0.2816726379539266,0.05598353610876499,-0.12297641813310901,0.11869801214752283,0.03355968599493428,5.0
0.44747415795559353,-0.2865920720268811,0.0697612528853467,-0.1359942737307753,0.11082744862863467,0.047440325602068144,5.0
0.4616290841787888,-0.3062698083186995,0.09042782852126076,-0.15389382478993033,0.11082744862863467,0.03851705749913886,5.0
0.4616290841787888,-0.301350374245745,0.07665011080259602,-0.17775989479837004,0.10216982563800563,0.0444659023972259,5.0
0.48286147351358594,-0.3210280244250778,0.08698339956263612,-0.16582685896719318,0.10295688270986031,0.0444659023972259,5.0
0.47578401040198803,-0.2915115060998356,0.07320568184397135,-0.18318400169364787,0.13680031520063557,0.06726981029623871,5.0
0.45455162106719144,-0.2915115060998356,0.07320568184397135,-0.22006792791997162,0.1360132581287809,0.053389170500155174,5.0
0.45809035262299014,-0.301350374245745,0.06287239496809736,-0.22061033894028223,0.11397567451616718,0.09007371781735218,5.0
0.4687065472903901,-0.3161085903521233,0.10076111539713475,-0.1924049824232718,0.10846627741307063,0.04843179899595059,5.0
0.47578401040198803,-0.3161085903521233,0.059427965067389656,-0.17667507275774888,0.13207797276950756,0.08908224442346972,5.0
0.48286147351358594,-0.3161085903521233,0.05598353610876499,-0.17450543198433452,0.1360132581287809,0.03950853240461876,5.0
0.4687065472903901,-0.3062698083186995,0.0525391066790988,-0.18481123144675166,0.12814269221000654,0.05636359370499742,5.0
0.4616290841787888,-0.2964309401727901,0.059427965067389656,-0.2032531929059995,0.13994853868828191,0.009764303379391253,5.0
0.47224527884618933,-0.3062698083186995,0.05598353610876499,-0.19837150033886022,0.1627731793727503,0.008772828473911335,5.0
0.48286147351358594,-0.3062698083186995,0.0525391066790988,-0.20108355544041315,0.14545793339149227,0.001832510181941874,5.0
0.47578401040198803,-0.301350374245745,0.059427965067389656,-0.18481123144675166,0.16670846473202364,-0.0011419145344978383,5.0
0.4687065472903901,-0.2816726379539266,0.059427965067389656,-0.20921971412941592,0.17221785463546163,0.016704624694555616,5.0
0.4510128895113922,-0.2669144218475483,0.059427965067389656,-0.22928890864959559,0.15805083694162225,-0.017996975834876482,5.0
0.4439354263997943,-0.2718338559205029,0.04909467748495338,-0.24447640398697992,0.10767922034121599,-0.013039601307476988,5.0
0.47224527884618933,-0.2816726379539266,0.07320568184397135,-0.20596524800755242,0.11082744862863467,0.0028239850874217593,5.0
0.48286147351358594,-0.2964309401727901,0.07320568184397135,-0.2070500700481736,0.16198612230089562,-0.004116333204547735,5.0
0.47578401040198803,-0.301350374245745,0.07320568184397135,-0.2070500700481736,0.16749552180387836,-0.014031076212956907,5.0
0.4651678157345909,-0.2964309401727901,0.07320568184397135,-0.17830230581868062,0.1533284993102666,0.007781353568431449,5.0
0.4687065472903901,-0.3062698083186995,0.0525391066790988,-0.1793871278593018,0.15018027582262025,-0.024937294126845966,5.0
0.47578401040198803,-0.2915115060998356,0.0697612528853467,-0.1864384645076834,0.1328650298413622,0.018687571482320506,5.0
0.4687065472903901,-0.2816726379539266,0.059427965067389656,-0.20108355544041315,0.11554978625999034,-0.0021333894399777347,5.0
0.47224527884618933,-0.2915115060998356,0.06287239496809736,-0.21844069485903986,0.1352262010569262,0.03157673618397448,5.0
0.4687065472903901,-0.2964309401727901,0.03531696047285092,-0.2189831058793504,0.12971680635371588,0.027610839585249795,5.0
0.47578401040198803,-0.2915115060998356,0.03531696047285092,-0.20976212514972653,0.16985669301944234,0.02265346808104519,5.0
0.4687065472903901,-0.301350374245745,0.031872531514226254,-0.2178982838387293,0.17536608292288033,-0.009073707731947218,5.0
0.4687065472903901,-0.2964309401727901,0.05598353610876499,-0.20488042596693126,0.17221785463546163,0.01075577828487114,5.0
0.47224527884618933,-0.3062698083186995,0.06631682392672203,-0.18481123144675166,0.17930136828215368,0.006789878662951564,5.0
0.4651678157345909,-0.2915115060998356,0.09387225747988541,-0.1755902507171277,0.1627731793727503,0.006789878662951564,5.0
0.4687065472903901,-0.2718338559205029,0.08353897060401141,-0.16419962756017542,0.12971680635371588,0.015713149789075738,5.0
0.47578401040198803,-0.27675320388097174,0.08009454164538676,-0.16202998513284708,0.1289297492818612,0.042482954097863554,5.0
0.4687065472903901,-0.27675320388097174,0.07665011080259602,-0.16582685896719318,0.1533284993102666,0.018687571482320506,5.0
0.4687065472903901,-0.311189242391654,0.059427965067389656,-0.1387063270750446,0.14388382404755526,0.03355968599493428,5.0
0.45455162106719144,-0.2718338559205029,0.0697612528853467,-0.12460364954012677,0.16041200815718626,0.03950853240461876,5.0
0.45455162106719144,-0.2669144218475483,0.08009454164538676,-0.11484025779019225,0.1352262010569262,0.03058526430168948,5.0
0.4687065472903901,-0.24231725148277505,0.07320568184397135,-0.13219739927621146,0.13129091569765286,0.04347442900334345,5.0
0.4687065472903901,-0.2472366855557299,0.06287239496809736,-0.1370790950994939,0.10925333448492533,0.04843179899595059,5.0
0.47578401040198803,-0.2570755537016389,0.08698339956263612,-0.13219739927621146,0.09980865682232778,0.027610839585249795,5.0
0.47578401040198803,-0.2669144218475483,0.07665011080259602,-0.1511817721692484,0.11082744862863467,0.03950853240461876,5.0
0.47578401040198803,-0.2816726379539266,0.0525391066790988,-0.14521525508061697,0.12105918336308684,0.021661996198760226,5.0
0.4687065472903901,-0.27675320388097174,0.05598353610876499,-0.12189159609248784,0.11712390040369969,0.06032949068162147,5.0
0.47224527884618933,-0.27675320388097174,0.0697612528853467,-0.13165498866937936,0.12656857806629718,0.009764303379391253,5.0
0.4616290841787888,-0.2816726379539266,0.06287239496809736,-0.13979114839207837,0.14939321875076558,0.0028239850874217593,5.0
0.47578401040198803,-0.2816726379539266,0.06631682392672203,-0.11917954264484892,0.178514311210299,-0.01898845074035639,5.0
0.47932274195778724,-0.2915115060998356,0.06287239496809736,-0.10073757953168706,0.17772725413844437,-0.05567299201116359,5.0
0.48286147351358594,-0.2718338559205029,0.07665011080259602,-0.09205900982237371,0.1918942718322837,-0.06856216578240225,5.0
0.48286147351358594,-0.26199498777459346,0.08353897060401141,-0.10833133050820724,0.2320341536982378,-0.07649395293346183,5.0
0.48286147351358594,-0.2915115060998356,0.07665011080259602,-0.10453445667386115,0.2320341536982378,-0.11813587477805829,5.0
0.47578401040198803,-0.301350374245745,0.07320568184397135,-0.09043178006926994,0.2517105708950599,-0.10227228838315955,5.0
0.48286147351358594,-0.2964309401727901,0.0697612528853467,-0.07198981861002209,0.2745352163793006,-0.12210177439997792,5.0
0.45809035262299014,-0.2570755537016389,0.08353897060401141,-0.07849874423809311,0.2517105708950599,-0.1260676619291179,5.0
0.4510128895113922,-0.2472366855557299,0.10076111539713475,-0.08066838831933544,0.18953310061671969,-0.06162184144404299,5.0
0.4368579632881947,-0.2373978174098205,0.11453883499996557,-0.0822956180724392,0.11476273158802183,-0.006099283015507528,5.0
0.4403966948439942,-0.2275590353763968,0.12487212187583957,-0.07687151117716136,0.06990050729093972,0.012738728095830933,5.0
0.4510128895113922,-0.22263960130344232,0.13520540875171358,-0.08771972496771703,0.005361870596807879,0.1029628840306036,5.0
0.4510128895113922,-0.22263960130344232,0.13520540875171358,-0.06873535248815858,-0.014314546600014192,0.1327071130558311,5.0
0.4510128895113922,-0.2570755537016389,0.13864983771033823,-0.05842954971791348,0.005361870596807879,0.1465877496397701,5.0
0.47578401040198803,-0.2570755537016389,0.12142769291721492,-0.07415945607560843,0.018741831218792585,0.09403961592767432,5.0
0.48286147351358594,-0.2669144218475483,0.10076111539713475,-0.05300544613046363,0.017167717075083234,0.12774973852843163,5.0
0.48286147351358594,-0.2472366855557299,0.11798326395859023,-0.0540902615554288,0.021103002434356602,0.11684352061454256,5.0
0.4687065472903901,-0.23247838333686593,0.13520540875171358,-0.058971960738224076,0.02897356835313095,0.09403961592767432,5.0
0.4687065472903901,-0.22263960130344232,0.11109440604134092,-0.05300544613046363,0.03920530068769696,0.09800551252639901,5.0
0.47578401040198803,-0.22263960130344232,0.11798326395859023,-0.07253222963033266,0.049437037822035325,0.05735506785467859,5.0
0.4934776681809831,-0.23247838333686593,0.09387225747988541,-0.05951437175853465,0.0313347347689226,0.07619307821021831,5.0
0.48286147351358594,-0.23247838333686593,0.11453883499996557,-0.06385365330536331,0.05258526370956784,0.06925275878455074,5.0
0.4687065472903901,-0.2128007331575333,0.12487212187583957,-0.07361704505529784,0.026612397137566943,0.07817602650958067,5.0
0.45809035262299014,-0.21772016723048776,0.16276084042071087,-0.05951437175853465,0.02425122592200291,0.06330391331961467,5.0
0.4510128895113922,-0.2128007331575333,0.14209426666896288,-0.07524427811622958,-0.005656918809612806,0.09503108780995932,5.0
0.4687065472903901,-0.20788129908457845,0.11798326395859023,-0.08175321035995661,-0.04264858198769293,0.0821419246199028,5.0
0.47932274195778724,-0.24231725148277505,0.11798326395859023,-0.07849874423809311,-0.011953375384450179,0.09007371781735218,5.0
0.48286147351358594,-0.24231725148277505,0.11798326395859023,-0.060056782778845234,0.011658322371872892,0.0732186557611748,5.0
0.4687065472903901,-0.2570755537016389,0.10764997331438407,-0.05029339102891071,0.02897356835313095,0.07619307821021831,5.0
0.4687065472903901,-0.2472366855557299,0.13520540875171358,-0.06873535248815858,0.06832639434717347,0.02661936770296479,5.0
0.47578401040198803,-0.2029618650116239,0.11798326395859023,-0.08663490292709587,0.08721575087231158,0.024636417892004995,5.0
0.4651678157345909,-0.21772016723048776,0.09387225747988541,-0.09531347594423721,0.046288811934502815,0.027610839585249795,5.0
0.47578401040198803,-0.24231725148277505,0.08353897060401141,-0.09856793875827272,0.073048733478458,0.0028239850874217593,5.0
0.4934776681809831,-0.2570755537016389,0.0525391066790988,-0.07795633321778252,0.12499446392258784,0.001832510181941874,5.0
0.4970163997367846,-0.2964309401727901,0.08353897060401141,-0.051378213069531886,0.13916148161642722,-0.04377530523818442,5.0
0.48286147351358594,-0.2570755537016389,0.10076111539713475,-0.049750980008600135,0.1336520869132169,-0.006099283015507528,5.0
0.4616290841787888,-0.23247838333686593,0.09387225747988541,-0.07958356627871428,0.12420740685073318,-0.0070907579209874136,5.0
0.47932274195778724,-0.2128007331575333,0.08353897060401141,-0.10995856191522499,0.11712390040369969,0.013730203001310818,5.0
0.48286147351358594,-0.2275590353763968,0.10764997331438407,-0.10344963463323999,0.12263329750679619,0.000841035276461955,5.0
0.47578401040198803,-0.26199498777459346,0.08353897060401141,-0.12785811400807628,0.1360132581287809,0.011747253190351047,5.0
0.47578401040198803,-0.22263960130344232,0.07665011080259602,-0.14304561223981013,0.12814269221000654,-0.013039601307476988,5.0
0.4651678157345909,-0.23247838333686593,0.08698339956263612,-0.14413043386695282,0.12499446392258784,0.014721674883595824,5.0
0.4687065472903901,-0.23247838333686593,0.08353897060401141,-0.16040275372582935,0.07540990304410027,0.041491479192383655,5.0
0.47578401040198803,-0.2472366855557299,0.08353897060401141,-0.1511817721692484,0.09193809090355344,0.03058526430168948,5.0
0.47578401040198803,-0.2570755537016389,0.09042782852126076,-0.14684248731459174,0.11476273158802183,0.02562789279748491,5.0
0.4687065472903901,-0.2570755537016389,0.09731668643851007,-0.1392487377852463,0.1289297492818612,0.03157673618397448,5.0
0.4616290841787888,-0.2718338559205029,0.08353897060401141,-0.13979114839207837,0.12105918336308684,0.015713149789075738,5.0
0.4616290841787888,-0.25215611962868445,0.08698339956263612,-0.12460364954012677,0.12263329750679619,0.018687571482320506,5.0
0.4687065472903901,-0.26199498777459346,0.10764997331438407,-0.11267061536286392,0.09823454267861845,0.0295937893962096,5.0
0.47578401040198803,-0.23247838333686593,0.11453883499996557,-0.11863713327845234,0.10689216566924747,0.06330391331961467,5.0
0.47578401040198803,-0.19804247399491204,0.11453883499996557,-0.11646749085112401,0.09036397795978719,0.08412487291926514,5.0
0.4687065472903901,-0.21772016723048776,0.0697612528853467,-0.13165498866937936,0.049437037822035325,0.10593730572384838,5.0
0.4687065472903901,-0.2373978174098205,0.10420554435575942,-0.12080677570578068,0.04707586660647132,0.1029628840306036,5.0
0.47578401040198803,-0.2373978174098205,0.09731668643851007,-0.10670409744727549,0.02818651128127626,0.0821419246199028,5.0
0.47578401040198803,-0.25215611962868445,0.10420554435575942,-0.10073757953168706,0.03763118894387381,0.11882647042550235,5.0
0.47224527884618933,-0.2472366855557299,0.09387225747988541,-0.09260142084268429,0.04550175486264816,0.11882647042550235,5.0
0.48286147351358594,-0.2472366855557299,0.10076111539713475,-0.06982017452877974,0.059668772556487525,0.1376644815368408,5.0
0.47224527884618933,-0.2373978174098205,0.11453883499996557,-0.05571749461636056,0.08328046851289594,0.08313339801378525,5.0
0.47578401040198803,-0.21772016723048776,0.10764997331438407,-0.05463267257573937,0.06753933727531879,0.10593730572384838,5.0
0.4687065472903901,-0.2128007331575333,0.07665011080259602,-0.07687151117716136,0.0691134508190566,0.05239769710627273,5.0
0.47578401040198803,-0.22263960130344232,0.10076111539713475,-0.07578668913654017,0.051011149565858484,0.1029628840306036,5.0
0.48286147351358594,-0.23247838333686593,0.11798326395859023,-0.06222642686008757,0.08091929879726081,0.11188615213353287,5.0
0.4934776681809831,-0.2373978174098205,0.11798326395859023,-0.05246303511015306,0.08800280794416626,0.11783499552002245,5.0
0.5005551312925838,-0.2472366855557299,0.11453883499996557,-0.051378213069531886,0.1131886174443125,0.05735506785467859,5.0
0.48640020506938514,-0.2275590353763968,0.09387225747988541,-0.06548088636629507,0.13129091569765286,0.04942327390143048,5.0
0.47578401040198803,-0.20788129908457845,0.09731668643851007,-0.10833133050820724,0.16041200815718626,0.06132096483130264,5.0
0.45809035262299014,-0.22263960130344232,0.1317609797930889,-0.10833133050820724,0.14073559576013656,0.08610782121862749,5.0
0.4616290841787888,-0.22263960130344232,0.12487212187583957,-0.11375543740348508,0.11712390040369969,0.080158974808943,5.0
0.4616290841787888,-0.22263960130344232,0.12487212187583957,-0.11267061536286392,0.11633684333184499,0.05239769710627273,5.0
0.48286147351358594,-0.2373978174098205,0.09731668643851007,-0.12297641813310901,0.13050386342557058,0.07024423293423192,5.0
0.48286147351358594,-0.2373978174098205,0.09731668643851007,-0.11972195366515952,0.1596249510853316,0.09106519121123463,5.0
0.47578401040198803,-0.23247838333686593,0.10420554435575942,-0.09802552773796214,0.1596249510853316,0.09205666611671452,5.0
0.4616290841787888,-0.2472366855557299,0.12142769291721492,-0.10778891948789665,0.15175438996632964,0.07916750141506056,5.0
0.45809035262299014,-0.23247838333686593,0.11109440604134092,-0.10507686769417174,0.14467088111940993,0.0454573773027058,5.0
0.4651678157345909,-0.25215611962868445,0.1593164114620862,-0.11700990021752058,0.14309676697570056,0.080158974808943,5.0
0.4687065472903901,-0.22263960130344232,0.14209426666896288,-0.11158579332224275,0.16119906522904096,0.08313339801378525,5.0
0.47578401040198803,-0.23247838333686593,0.13520540875171358,-0.09205900982237371,0.15883789401347692,0.1039543559128886,5.0
0.4687065472903901,-0.23247838333686593,0.10764997331438407,-0.08826213598802762,0.12656857806629718,0.11585204873225756,5.0
0.4651678157345909,-0.22263960130344232,0.11453883499996557,-0.08012597729902486,0.13207797276950756,0.0999884593141639,5.0
0.45809035262299014,-0.21772016723048776,0.11109440604134092,-0.0822956180724392,0.12263329750679619,0.08709929461250994,5.0
0.4616290841787888,-0.23247838333686593,0.11798326395859023,-0.07632910015685077,0.13837442454457255,0.05933801615404093,5.0
0.4651678157345909,-0.2373978174098205,0.11798326395859023,-0.07198981861002209,0.1627731793727503,0.09205666611671452,5.0
0.47932274195778724,-0.23247838333686593,0.10764997331438407,-0.07849874423809311,0.15175438996632964,0.058346542004359764,5.0
0.47932274195778724,-0.2029618650116239,0.11798326395859023,-0.11212820434255333,0.15018027582262025,0.06726981029623871,5.0
0.48286147351358594,-0.19804247399491204,0.13520540875171358,-0.12189159609248784,0.1462449904633469,0.05636359370499742,5.0
0.4687065472903901,-0.20788129908457845,0.13520540875171358,-0.14304561223981013,0.16356023644460496,0.05933801615404093,5.0
0.4651678157345909,-0.2128007331575333,0.12831655083446425,-0.15226659338291257,0.1289297492818612,0.05537211955531624,5.0
0.4687065472903901,-0.2128007331575333,0.13864983771033823,-0.16636926998750376,0.12184624043494154,0.08511634631314759,5.0
0.45809035262299014,-0.2373978174098205,0.14898312458621224,-0.1685389140687461,0.0958733738629406,0.07222718161149362,5.0
0.4687065472903901,-0.2373978174098205,0.13864983771033823,-0.1652844496007966,0.0864286950004,0.0821419246199028,5.0
0.48286147351358594,-0.22263960130344232,0.1317609797930889,-0.1484697187216095,0.09115103383169876,0.09205666611671452,5.0
0.47932274195778724,-0.25215611962868445,0.12487212187583957,-0.1359942737307753,0.07068756376282284,0.10197140912512369,5.0
0.47578401040198803,-0.26199498777459346,0.13520540875171358,-0.1359942737307753,0.11082744862863467,0.0821419246199028,5.0
0.4687065472903901,-0.2472366855557299,0.12831655083446425,-0.11917954264484892,0.12971680635371588,0.07222718161149362,5.0
0.47578401040198803,-0.24231725148277505,0.12487212187583957,-0.09911034977858331,0.12027212629123217,0.07222718161149362,5.0
0.4687065472903901,-0.21772016723048776,0.11798326395859023,-0.10399204565355055,0.10216982563800563,0.07024423293423192,5.0
0.45455162106719144,-0.22263960130344232,0.1317609797930889,-0.12134918672609127,0.06596522433155254,0.0732186557611748,5.0
0.45455162106719144,-0.25215611962868445,0.14898312458621224,-0.136536684440977,0.055733489597100346,0.0811504497144229,5.0
0.4687065472903901,-0.2570755537016389,0.1317609797930889,-0.14033355899891048,0.06202994137216536,0.08709929461250994,5.0
0.4687065472903901,-0.2570755537016389,0.11798326395859023,-0.14250320163297805,0.11161450330060314,0.07817602650958067,5.0
0.4687065472903901,-0.2669144218475483,0.11798326395859023,-0.10941615254882842,0.08485458145666222,0.07024423293423192,5.0
0.48286147351358594,-0.2669144218475483,0.14898312458621224,-0.10236481259261881,0.06832639434717347,0.07123570746181246,5.0
0.47578401040198803,-0.2669144218475483,0.14553869562758756,-0.0822956180724392,0.10059571149429629,0.08709929461250994,5.0
0.45809035262299014,-0.2570755537016389,0.13864983771033823,-0.09097418778175254,0.055733489597100346,0.0989969874318789,5.0
0.4687065472903901,-0.25215611962868445,0.14209426666896288,-0.09802552773796214,0.03763118894387381,0.11684352061454256,5.0
0.4616290841787888,-0.24231725148277505,0.1317609797930889,-0.09585588365671979,0.03054767769706794,0.1336985819149212,5.0
0.4687065472903901,-0.2472366855557299,0.12487212187583957,-0.09856793875827272,0.01008420822816354,0.16443428584562864,5.0
0.4687065472903901,-0.2472366855557299,0.12487212187583957,-0.08338044011306037,-0.00014752410640247267,0.15253659302625966,5.0
0.47224527884618933,-0.23247838333686593,0.12487212187583957,-0.09205900982237371,0.023464168850148237,0.13964743134780058,5.0
0.47578401040198803,-0.2472366855557299,0.12142769291721492,-0.0855500808864747,0.012445379443727572,0.1039543559128886,5.0
0.4687065472903901,-0.23247838333686593,0.1317609797930889,-0.08446526215368153,0.002213642309389174,0.1426218500178505,5.0
0.4687065472903901,-0.23247838333686593,0.1317609797930889,-0.10724650846758607,0.005361870596807879,0.1366730066313609,5.0
0.4687065472903901,-0.2275590353763968,0.11798326395859023,-0.11212820434255333,-0.0025086953219664696,0.10494583081836849,5.0
0.48286147351358594,-0.2472366855557299,0.13864983771033823,-0.10941615254882842,0.03841824601572846,0.09205666611671452,5.0
0.48993893662518384,-0.2669144218475483,0.11798326395859023,-0.10995856191522499,0.06281699844402003,0.042482954097863554,5.0
0.48993893662518384,-0.2472366855557299,0.12487212187583957,-0.11972195366515952,0.12735563513815185,0.03554263580589407,5.0
0.48286147351358594,-0.25215611962868445,0.11109440604134092,-0.12514606056043737,0.18717192940115568,0.03752558259365897,5.0
0.48286147351358594,-0.2816726379539266,0.09387225747988541,-0.1202643646854701,0.24777529513533122,-0.014031076212956907,5.0
0.4687065472903901,-0.3161085903521233,0.08698339956263612,-0.08012597729902486,0.26194230322962586,-0.07351952821702212,5.0
0.47578401040198803,-0.311189242391654,0.10764997331438407,-0.05354785053511822,0.24384000017651314,-0.0408008805217447,5.0
0.47224527884618933,-0.26199498777459346,0.12487212187583957,-0.05246303511015306,0.18087548242586302,-0.006099283015507528,5.0
0.4510128895113922,-0.2029618650116239,0.13520540875171358,-0.09911034977858331,0.09193809090355344,0.11386909892129776,5.0
0.4510128895113922,-0.18820360584900303,0.15587198250346151,-0.13490945251711112,0.06990050729093972,0.16245133603466883,5.0
0.4651678157345909,-0.19804247399491204,0.14553869562758756,-0.1392487377852463,0.049437037822035325,0.16641723565658842,5.0
0.4651678157345909,-0.19804247399491204,0.14553869562758756,-0.16962373610936726,0.07226167670658909,0.1426218500178505,5.0
0.45809035262299014,-0.20788129908457845,0.14898312458621224,-0.1652844496007966,0.10846627741307063,0.11585204873225756,5.0
0.4687065472903901,-0.2128007331575333,0.16620526937933555,-0.18481123144675166,0.08878986381607784,0.11486057382677767,5.0
0.47578401040198803,-0.2472366855557299,0.14898312458621224,-0.18698087552799397,0.08249341204101282,0.12180089514194203,5.0
0.48286147351358594,-0.2718338559205029,0.14898312458621224,-0.18047194659209495,0.07068756376282284,0.07619307821021831,5.0
0.47578401040198803,-0.2669144218475483,0.13864983771033823,-0.17396302096402394,0.07383578995034112,0.06330391331961467,5.0
0.47224527884618933,-0.26199498777459346,0.14209426666896288,-0.15660587823756925,0.0840675249847791,0.047440325602068144,5.0
0.4687065472903901,-0.26199498777459346,0.14553869562758756,-0.1473848975079453,0.09902159975047312,0.02661936770296479,5.0
0.4687065472903901,-0.25215611962868445,0.14898312458621224,-0.1652844496007966,0.07068756376282284,0.07520160406053714,5.0
0.45809035262299014,-0.2472366855557299,0.17309412729658485,-0.14196079102614598,0.06124288550025378,0.06925275878455074,5.0
0.4687065472903901,-0.24231725148277505,0.1593164114620862,-0.13002775643540462,0.10689216566924747,0.05239769710627273,5.0
0.4616290841787888,-0.2275590353763968,0.16276084042071087,-0.1387063270750446,0.07855812923161853,0.0811504497144229,5.0
0.45809035262299014,-0.22263960130344232,0.14898312458621224,-0.16257239615315766,0.04471469779079347,0.08809076951798983,5.0
0.4651678157345909,-0.2128007331575333,0.1593164114620862,-0.17667507275774888,-0.00014752410640247267,0.1317156381503512,5.0
0.47578401040198803,-0.2128007331575333,0.13520540875171358,-0.19403221217637556,0.021890059506211253,0.14460479982881028,5.0
0.4687065472903901,-0.2128007331575333,0.14209426666896288,-0.20488042596693126,-0.00014752410640247267,0.14956217435620978,5.0
0.4616290841787888,-0.24231725148277505,0.14898312458621224,-0.19023533834202946,0.014806550659291587,0.11882647042550235,5.0
0.47224527884618933,-0.2570755537016389,0.14209426666896288,-0.18752328654830455,0.02976062542498561,0.12774973852843163,5.0
0.47578401040198803,-0.2472366855557299,0.14209426666896288,-0.20054114442010257,0.02425122592200291,0.11684352061454256,5.0
0.47578401040198803,-0.2472366855557299,0.12142769291721492,-0.17342060994371336,0.04156647190326097,0.06925275878455074,5.0
0.48286147351358594,-0.2373978174098205,0.13864983771033823,-0.19023533834202946,0.054159375453391,0.06726981029623871,5.0
0.47932274195778724,-0.2816726379539266,0.1317609797930889,-0.1853536424670622,0.056520546668955014,0.03355968599493428,5.0
0.47932274195778724,-0.301350374245745,0.14209426666896288,-0.17450543198433452,0.06360405431593161,0.05041474880691038,5.0
0.48640020506938514,-0.3062698083186995,0.13520540875171358,-0.1473848975079453,0.1131886174443125,0.046448850696588245,5.0
0.48640020506938514,-0.3161085903521233,0.10076111539713475,-0.13328222048987562,0.1131886174443125,-0.0011419145344978383,5.0
0.4651678157345909,-0.2915115060998356,0.11109440604134092,-0.1061616864269649,0.09429925971923127,-0.006099283015507528,5.0
0.45809035262299014,-0.2816726379539266,0.11109440604134092,-0.09802552773796214,0.08013224232537768,0.007781353568431449,5.0
0.4616290841787888,-0.2865920720268811,0.12831655083446425,-0.08446526215368153,0.05494643252524568,0.047440325602068144,5.0
0.4687065472903901,-0.2718338559205029,0.12142769291721492,-0.07632910015685077,0.04314058364708413,0.10197140912512369,5.0
0.47224527884618933,-0.2570755537016389,0.1593164114620862,-0.06819294146784799,0.021890059506211253,0.12378384495290183,5.0
0.4687065472903901,-0.2570755537016389,0.14209426666896288,-0.07849874423809311,-0.003295752393821141,0.11981794533098225,5.0
0.45455162106719144,-0.2472366855557299,0.10764997331438407,-0.08175321035995661,-0.01746276528788818,0.11882647042550235,5.0
0.45809035262299014,-0.2570755537016389,0.12831655083446425,-0.09965276079889389,-0.008018090025176821,0.10197140912512369,5.0
0.47224527884618933,-0.2570755537016389,0.11798326395859023,-0.08826213598802762,-0.006443975881467477,0.09205666611671452,5.0
0.47224527884618933,-0.2570755537016389,0.11798326395859023,-0.09205900982237371,0.014806550659291587,0.0662783360520827,5.0
0.48640020506938514,-0.2472366855557299,0.10076111539713475,-0.11592507983081342,0.015593607731146241,0.016704624694555616,5.0
0.48286147351358594,-0.23247838333686593,0.10764997331438407,-0.10724650846758607,0.00693598474051723,-0.01898845074035639,5.0
0.4651678157345909,-0.18820360584900303,0.12831655083446425,-0.14955453993527365,-0.03320389712543686,0.05140622220079283,5.0
0.47932274195778724,-0.20788129908457845,0.10420554435575942,-0.1826415906733373,-0.008018090025176821,0.1039543559128886,5.0
0.4934776681809831,-0.22263960130344232,0.08353897060401141,-0.17342060994371336,0.01087126530001822,0.08412487291926514,5.0
0.48286147351358594,-0.18328417177604817,0.12831655083446425,-0.1381639164165277,-0.04264858198769293,0.03950853240461876,5.0
