acc_x,acc_y,acc_z,gyro_x,gyro_y,gyro_z,activity
-0.6707920136092812,0.06830590316974305,2.68233463429576,-0.13523967431658218,0.29242978533964487,-0.03290948799664115,0.0
-0.6968825103225003,0.05278491234897909,2.676581515822527,-0.0961375622974766,0.25947429284789314,0.017358062082883454,0.0
-0.7262344475729939,0.07994665477558392,2.630556568036661,-0.03978451314195638,0.3054122542934238,0.030171359132513252,0.0
-0.7262344475729939,0.07994665477558392,2.630556568036661,-0.03978451314195638,0.3054122542934238,0.030171359132513252,0.0
-0.7262344475729939,0.07994665477558392,2.630556568036661,-0.029433953665515503,0.24649179953347083,0.012429871487910398,0.0
-0.7262344475729939,0.07994665477558392,2.630556568036661,-0.034034205438831344,0.17359023560512993,0.0242575297611144,0.0
-0.7197117948506622,0.06054540775936107,2.6995939897154595,0.006793002748647613,0.15960911425642021,0.0341139116084917,0.0
-0.7262344475729939,0.05278491234897909,2.7398654162050646,-0.031159048080508928,0.026788427947793427,0.07452507674132054,0.0
-0.7294957739341601,0.05666516854443795,2.7916434824641634,-0.05531035586337757,-0.1819297855641276,0.05579795323177287,0.0
-0.7197117948506622,0.06054540775936107,2.711099823838899,-0.06221072650983158,-0.12001337361938222,0.041999018063148444,0.0
-0.7197117948506622,0.05666516854443795,2.711099823838899,-0.047259922273594615,-0.11302281294502738,0.02031497681554225,0.0
-0.7131891421283302,0.04114417772367399,2.7398654162050646,-0.053585261448384144,-0.1329958425731611,-0.05755044172285633,0.0
-0.7066664894059984,0.029503426117833124,2.7398654162050646,-0.04956004114673278,-0.019149550245679558,0.005530403903598196,0.0
-0.6870985312390023,0.025623186902910003,2.7283591792585984,0.006217973030363093,0.34935293530973616,0.03312827348949709,0.0
-0.7034051630448322,0.010102196082146046,2.80314971941063,0.11547387900465676,0.6409592641050299,0.011444232617565858,0.0
-0.7392796388415497,0.01398243529706913,2.7916434824641634,0.1430753686039925,0.29942033992383893,-0.0033403399187032345,0.0
-0.7425409652027156,0.006221939886687152,2.751371653151531,0.23163015211864454,0.20654575245752504,0.01341550960690501,0.0
-0.7360183124803835,0.01398243529706913,2.68233463429576,0.1758521484618283,-0.11701741643458978,0.01341550960690501,0.0
-0.7360183124803835,0.01398243529706913,2.711099823838899,0.055095614807625,-0.5594201594218631,0.02524316797402775,0.0
-0.7262344475729939,0.010102196082146046,2.68233463429576,0.03266940242602603,-0.19191629733311402,0.012429871487910398,0.0
-0.7131891421283302,0.029503426117833124,2.751371653151531,0.024618966973276885,0.3163974428179844,-0.02699565777997362,0.0
-0.7131891421283302,0.025623186902910003,2.7801372455176967,-0.008732834712633758,0.31340147345287034,-0.038823315207908944,0.0
-0.7131891421283302,0.025623186902910003,2.7686310085712305,-0.07658650628792381,0.06174124045480893,-0.09106214528217241,0.0
-0.7131891421283302,0.025623186902910003,2.7686310085712305,-0.10706315324558195,-0.02214550514666169,-0.10091852196401893,0.0
-0.7360183124803835,-0.009299050934076823,2.774384127044464,-0.09556252381229238,0.13064820698374832,-0.12753075944172268,0.0
-0.7490636179250476,-0.04034103257560477,2.7628778900979976,-0.06796104122647635,0.3853043971666021,-0.11570309299758816,0.0
-0.7425409652027156,-0.0287002809697639,2.7916434824641634,-0.11511359384888467,0.6109996678964622,-0.1570999015088611,0.0
-0.7458022915638814,-0.04034103257560477,2.7916434824641634,-0.17434178633568767,0.9765062251953496,-0.0861339509304497,0.0
-0.7881994200829306,-0.04422128028079576,2.757124771624764,-0.2594464020609122,0.9884900052132328,-0.021081827563306094,0.0
-0.7979833991664287,-0.04034103257560477,2.751371653151531,-0.31407434277439955,0.8526733769452157,0.06466869705407428,0.0
-0.8208126836945907,-0.05586202339636875,2.7858903639909305,-0.22666961518955664,1.0364253201699118,-0.019110552828016745,0.0
-0.8436418540466438,-0.05974227110155973,2.820409074830329,-0.12891433514179268,0.7408244061555377,-0.0565648028525118,0.0
-0.8208126836945907,-0.05974227110155973,2.831915311776796,-0.023683645962390466,0.5770455108294579,-0.14428660821598097,0.0
-0.7979833991664287,-0.024820041754840816,2.8894464965091275,0.005642941558698601,0.6449538736847532,-0.2024392534799134,0.0
-0.8142900309722585,-0.013179290148999925,2.837668430250029,-0.10993830359038459,0.10468326907619052,-0.1620280958605838,0.0
-0.8273353364169224,-0.013179290148999925,2.8491746671964955,-0.1950429052885695,-0.5833877681789156,-0.1216169262196554,0.0
-0.8045060518887608,-0.0015385555236948256,2.7973966009373963,-0.13408961137325323,-0.36268574724338803,-0.22215203088680416,0.0
-0.7979833991664287,0.025623186902910003,2.7801372455176967,-0.1421400519765559,0.19456192371835532,-0.32662967901373235,0.0
-0.7914607464440968,0.0372639215282151,2.7916434824641634,-0.2899230349915308,0.33437316156609564,-0.3325435122357994,0.0
-0.7653702497308775,0.0372639215282151,2.8836933780358946,-0.31694949311920206,0.3293799117717632,-0.3749259475958182,0.0
-0.7490636179250476,0.006221939886687152,2.952730396891666,-0.2669218041790308,0.48516958793839676,-0.38182540766663087,0.0
-0.7784155551755413,-0.009299050934076823,2.9354710414719665,-0.20539345775149065,0.32039202803706435,-0.41336585151765626,0.0
-0.7881994200829306,-0.04034103257560477,2.8491746671964955,-0.22321944038660924,0.034777644062159524,-0.41829403384778013,0.0
-0.7881994200829306,-0.05586202339636875,2.837668430250029,-0.24622067119910948,-0.21887989981592434,-0.26946264857694663,0.0
-0.7914607464440968,-0.04810152798598677,2.8491746671964955,-0.20194328294854338,-0.26182191625698426,-0.22510893547623892,0.0
-0.7816768815367073,-0.051981775691177776,2.872187141089428,-0.09268737346748972,-0.07107944280873742,-0.2576350061760099,0.0
-0.7881994200829306,-0.04810152798598677,2.8606809041429613,-0.031159048080508928,0.14163338332798728,-0.2083530867019806,0.0
-0.8208126836945907,-0.04034103257560477,2.808902837883863,-0.052435198505055174,0.03777359820187152,-0.22708021321692803,0.0
-0.8175513573334247,-0.032580537165222793,2.808902837883863,-0.03920948167029191,0.05475067978045411,-0.23989350650980815,0.0
-0.7947220728052629,-0.0287002809697639,2.831915311776796,-0.030584016608844463,0.22851608078535957,-0.2852328705024592,0.0
-0.8240740100557565,-0.020939785559381904,2.808902837883863,-0.14559024080654284,0.03577629645709033,-0.20046797573922426,0.0
-0.8240740100557565,-0.020939785559381904,2.808902837883863,-0.21229383541146435,-0.2758030497860156,-0.21722382451348257,0.0
-0.7914607464440968,0.025623186902910003,2.9067054491057998,-0.23989534605135934,-0.345708668709886,-0.16892755593139672,0.0
-0.7914607464440968,0.025623186902910003,2.9067054491057998,-0.13983992608989804,-0.13399449496809193,-0.18864033333828753,0.0
-0.7914607464440968,-0.036460784870413786,2.9987553446775306,-0.09326241195267396,0.09469674512688239,-0.1827265001162203,0.0
-0.7979833991664287,-0.05974227110155973,2.912458567579033,-0.12891433514179268,0.4911614779473383,-0.21032436444266972,0.0
-0.7979833991664287,-0.05974227110155973,2.912458567579033,-0.16686638421756925,0.7198527180423127,-0.1827265001162203,0.0
-0.8110287046110928,-0.08690400503789669,2.900952330632567,-0.33247534986766286,0.49715341667756635,-0.06839246328584685,0.0
-0.8501645067689759,-0.09854474815346968,2.872187141089428,-0.238745269080991,0.607005107038026,-0.16498501247161748,0.0
-0.918652246177353,-0.1140657432193676,2.872187141089428,-0.18526737728379308,0.3293799117717632,-0.23003711780636274,0.0
-0.918652246177353,-0.14122747927827153,2.8261621933035626,-0.21114378649517507,-0.0351279779067911,-0.13443021951253556,0.0
-0.9349588779831828,-0.14122747927827153,2.80314971941063,-0.20194328294854338,-0.6273284735558716,-0.1097892717971198,0.0
-0.8697324649359717,-0.1334669817453226,2.808902837883863,-0.17089159750570096,-0.9389078258891383,-0.2467929906238188,0.0
-0.8501645067689759,-0.14122747927827153,2.80314971941063,-0.09326241195267396,-1.0936987643985894,-0.3079025524987849,0.0
-0.7947220728052629,-0.14510772698346255,2.8261621933035626,-0.02598376834228851,-1.1785842057873863,-0.38872489178064173,0.0
-0.7653702497308775,-0.1334669817453226,2.8836933780358946,0.021168780773359916,-0.8140763374243953,-0.46461902468917693,0.0
-0.7490636179250476,-0.12570648633494058,2.8606809041429613,-0.03978451314195638,-0.5803917988138018,-0.5158721978606975,0.0
-0.7392796388415497,-0.11794599092455861,2.7801372455176967,-0.10591309030225302,-0.4385832805368429,-0.5198147533420758,0.0
-0.7360183124803835,-0.1334669817453226,2.774384127044464,-0.13523967431658218,-0.8290560868073924,-0.44194936673604895,0.0
-0.6936211839613343,-0.16838921480653374,2.831915311776796,-0.15019047855281908,-0.603360816077532,-0.3630982811516835,0.0
-0.7001438366836664,-0.18779045492441396,2.831915311776796,-0.12201395748181892,-0.10603225227067252,-0.43603550947078423,0.0
-0.8045060518887608,-0.14122747927827153,2.7801372455176967,-0.21516898575626703,0.5540765422870144,-0.6164072905062475,0.0
-0.8697324649359717,-0.12182623862974962,2.7341122977318313,-0.4469065075260979,0.9455480374934595,-0.8381758800529836,0.0
-1.0719342426238285,0.10710839720218894,2.5902847387240286,-0.9397081631341678,0.0687318011291638,-0.45870521551030724,0.0
-0.8827777703806355,-0.2110719422168434,2.2738638269307443,-1.7044995014474638,-3.771084215225316,-0.876615759931624,0.0
-0.866471138574806,-0.339120131346115,2.3946791134571277,-1.478512336475396,-2.006466444349268,0.022286253335287696,0.0
-0.9904012548588419,-0.3624016175772609,2.6132972126169616,-0.5619127457508359,2.839990400464722,0.2913654959795319,0.0
-0.9969239075811737,-0.3041978935091281,2.578778501777563,-0.16916651010422723,5.437483367369265,0.07452507674132054,0.0
-1.0784568953461604,-0.2653954164572182,2.406185350403594,-0.6447172215623628,4.132245551997531,-0.22116637999486075,0.0
-1.0654116469895507,-0.26151516875202724,2.561519146357863,-1.4100836123878824,2.2178302872915108,-0.2507355220619992,0.0
-1.0719342426238285,-0.3274793797402741,2.573025383304329,-1.7200253020877663,0.7028756395088105,-0.5897950770717414,0.0
-1.1828191105512549,-0.3041978935091281,2.6075440941437282,-1.6492964801676733,0.547085963342177,-0.33747169456592335,0.0
-1.1828191105512549,-0.3041978935091281,2.6075440941437282,-1.2352741572181967,0.9894886941491283,-0.03488076573733021,0.0
-1.2610907719550755,-0.5098510303745186,2.912458567579033,-0.8206767256483378,1.63861233672322,0.7151899217093114,0.0
-1.2447841972373,-0.5796955060484923,3.021767818570463,-0.6688685293452313,0.9515399762236879,2.1266239184875744,0.0
-1.2447841972373,-0.5796955060484923,3.021767818570463,-0.3497262799905577,4.751409695805626,1.575652114548146,0.0
-1.6687557393240366,-0.42060532466485795,2.8606809041429613,-0.09383743641081865,6.98139897114592,1.2858744549692354,0.0
-1.1828191105512549,-0.5719349936575746,2.9067054491057998,-0.7372971973245872,6.9564326247316846,2.5908594056638923,0.0
-1.1208540809532639,-0.6961029541847581,3.0160147000972306,-1.346830192585908,3.819667705613513,0.7782707613249664,0.0
-1.1926030896347526,-0.8280313931417876,3.2864104626931367,-1.2335490557896833,3.8046880536730914,0.9684989551070728,0.0
-1.0947635271519904,-0.8901153564248435,3.4532508984169015,-0.8954307468295228,4.647549944175395,1.2158941312395695,0.0
-0.7294957739341601,-1.25873887992772,3.4820160879600373,-1.0006614851035631,4.088305187669582,0.09423784212661247,0.0
-0.7914607464440968,-1.4527512821678055,3.0965579558994687,-1.831006341051412,4.496753663966955,-0.14625788595667005,0.0
-0.8501645067689759,-1.2470981792634865,2.843421548723262,-2.9776184082254487,2.760098208870257,-0.3325435122357994,0.0
-0.6251335587290658,-1.479913075536018,2.68233463429576,-4.905697382728581,-1.572053030144337,2.6637966580261905,0.0
-0.7523249442862134,-1.5536378074054504,2.8836933780358946,-7.213872545745525,-11.033279656476092,10.510462355227578,0.0
-0.9675720274187344,-1.371266037907455,3.2173734438373653,-7.154644325204641,-13.027586917891428,9.968361721877212,0.0
-1.3361011640857845,-1.3130623987420011,3.343941647425468,-6.344425465562253,-12.64809954375187,7.202660758757471,0.0
-1.5252576648730047,-1.8058539167331331,3.6315971682640997,-4.552628493964817,-9.258674996241083,3.882045484303319,0.0
-1.4730765572704572,-2.1395551344768795,3.6603623578072417,-1.3537305982999608,0.9115938804264552,0.026228806280859846,0.0
-1.2610907719550755,-2.0619502822562743,2.8836933780358946,-0.6855444350099816,2.9837961504496127,-0.03488076573733021,0.0
-0.8990842880103572,-1.9028600499310326,1.986208708915139,-2.758531536751118,-2.00047450561904,0.40471388191796204,0.0
-1.0230144613824474,-1.7360094410591593,1.7273187804426724,-5.983305729411039,-9.701078311703478,0.6668936290840278,0.0
-1.3393624904469503,-1.8524168552343534,2.4579634166626922,-7.297251961852959,-10.928421313352535,-0.9180125684428968,0.0
-1.561132197757776,-1.9765847818004652,3.343941647425468,-6.960858866537629,1.6196379290392127,-2.5531864084653875,0.0
-0.9675720274187344,-2.5353405871922545,2.642062804983128,-7.670446622489551,11.0219441493323,-6.387318993397096,0.0
-1.0295371141047793,-2.030908232692603,1.3361075299088705,-9.888341963685006,7.530657812718511,-5.962509157207351,0.0
-1.1534672303888152,-2.4034120123909384,0.34657336803941097,-12.241944535814724,-2.6655765865120244,-2.085993800310855,0.0
-1.1436833083933717,-2.7681554155426427,0.17398011595968602,-12.809499651522398,-10.640809033842165,0.011444232617565858,0.0
-1.0230144613824474,-2.4422145743455275,-0.08490966145414523,-10.689359983131814,-7.173490452149296,0.48553622119981876,0.0
-0.8501645067689759,-2.147315646867797,-1.1549874064195516,-8.570370307549364,-4.760748019962774,-1.3122679242351312,0.0
-0.8566871594913077,-2.7642751593471835,-1.2240247022161541,-5.13283487715773,-6.286687807548747,-3.658086752631295,0.0
-0.9447428570666808,-2.923365391672425,-1.0629377122593342,-0.3370755735868996,-0.827058806378174,-5.7949503809463945,0.0
-0.9023456143715232,-2.7487541345653477,-1.0859501357993886,1.8215910982024082,-0.09404842962166358,-3.8059324148805924,0.0
-0.6577467081646172,-2.186118208822386,-0.8788383176447895,0.7255818566430039,-2.617641271555345,-3.4688444742163087,0.0
0.15758305530914185,-2.0115069517153086,-0.5854298860385474,-0.9017561000313518,-2.5197734586553424,-0.6006371166671304,0.0
0.4087047284144883,-2.5120590500195012,-1.1549874064195516,-3.6245284140773615,-3.2837419439416506,9.207448754403204,0.0
-0.370750559262553,-2.127914501734789,-1.1722467366628122,-4.040275726239036,-2.646602178828017,7.973429513854981,0.0
-0.6805758785166706,-2.0968724521711177,-1.494420666223573,-2.9730179881276584,-1.5051433075036507,6.2879882717689,0.0
-0.6414400763587872,-2.8418800115677882,-1.4138772090098217,-2.2174271533609944,-2.4818246432873283,4.092972034254667,0.0
-0.6414400763587872,-2.8418800115677882,-1.4138772090098217,-2.4911420497110495,-4.1855246302529165,2.3395216259636222,0.0
-0.9675720274187344,-2.51593930621496,-1.3851116669965347,-2.6222490849801554,-4.266415218455557,3.3192461581789416,0.0
-1.0588889942672186,-2.1667169278450915,-1.5807172922634358,-2.471591049809655,-3.2038499472323343,3.217725390598252,0.0
-0.9153909198161871,-2.1123934769529535,-1.9719285427972382,-2.238128370503153,-0.07407539390336905,1.256305264815701,0.0
-0.9153909198161871,-2.1123934769529535,-1.9719285427972382,-2.6970031061613415,-1.4182605856856347,0.5791718297313578,0.0
-1.446986032013211,-2.477136744260371,-1.9891877975111811,-2.649850707836367,-3.8060368663430673,0.5624159809570995,0.0
-1.446986032013211,-2.477136744260371,-1.9891877975111811,-1.3813319967235398,-1.1765869253581684,0.6363388601681434,0.0
-1.580700098836718,-2.7797961841290197,-1.747557325164171,-0.39515371715741326,2.2647670107548676,1.057206333222093,0.0
-1.5350416439565024,-2.4926577690422067,-2.1790403043048494,-0.3704273849164,2.345657793842655,0.6590085181212713,0.0
-1.1665125358334791,-2.430573805759151,-2.564498537071175,-0.44920666146683474,0.8197179088141073,-2.650764668651096,0.0
-0.592520295117406,-2.682789779242547,-3.2376119885588635,0.918792318905953,-2.0444152597172827,2.1394372117804545,0.0
-0.6349174236364552,-3.3269109492458604,-2.857906974971528,1.8624183116500268,-0.4585563284354593,3.2029407474350897,0.0
-1.0067078866646717,-2.8224787305904946,-2.754351043864843,2.1608593999706995,0.1296495545888175,1.1991382343789156,0.0
-1.052366341544887,-2.430573805759151,-2.8176351456588944,1.8486176124382372,0.3683273186330999,-2.6655491194686767,0.0
-1.1208540809532639,-2.2598428048475325,-2.6450419942849264,2.0378027632237776,3.298371374705421,-8.954906699858372,0.0
-1.114331428230932,-2.4266935495636917,-2.5069673523388434,2.341419268046307,3.4441746974472482,-14.52573408473884,0.0
-0.8827777703806355,-3.3036296837616783,-2.2308182698581907,3.012480469464774,0.4282464136076619,-11.963074656780485,0.0
-0.6414400763587872,-3.0203715248703236,-2.1617810495909064,3.607637656893923,0.4362356327671085,-10.87690146317272,0.0
-0.44576095139326233,-2.966047938133901,-2.0122002714041134,3.948055951470346,1.7954005556618888,-12.138517678449077,0.0
-0.5599071456818547,-2.2753638296293675,-2.0927437286178647,1.9912253613028692,1.7714329956261228,-10.53094177488263,0.0
-0.30552414621534235,-2.174477440236009,-1.2067653719728937,-2.0903453173529805,-0.0551010136250857,-8.047134033588579,0.0
-0.30226293403028476,-2.030908232692603,-1.5231862082368608,-3.1507026497503046,1.654590775042113,-10.039108735941431,0.0
-0.07397054545310026,-2.0386687450835206,-1.5979765973302569,-3.070198440095831,-0.1609580974509022,-10.349584511257603,0.0
-0.2729109967797911,-1.9959860627777597,-1.5231862082368608,-3.1386270519670285,1.4588550517995338,-11.909850326084262,0.0
-0.4261929932262665,-1.7088476476909467,-1.6152359023970784,-3.6452294067868882,0.7498122655295936,-12.418438973367738,0.0
-0.26638834405745904,-1.6002007459066707,-1.7072855965572953,-3.78323707220268,-0.7931046493111699,-13.76974978045891,0.0
0.07605012463220931,-1.018163539186414,-3.0937842281395476,-0.6274662633853889,-5.567658667854002,-13.950120695939251,0.0
-0.03157341693405105,-0.6340189569406306,-3.4619830047804174,1.7232607656424201,-4.6039598010241045,-14.992926115856626,0.0
-0.26638834405745904,-0.1334669817453226,-2.5299798262317763,-1.6055941724834102,-2.3390174847957605,-21.501095838024373,0.0
-0.6577467081646172,0.4291689652233093,-2.0064471529308805,0.007368034220312103,17.299468353541936,-22.178229225022324,0.0
0.8750734846523555,-0.2653954164572182,-2.1272623387515073,-1.8166305332192407,14.01590152018861,-15.163441243713468,0.0
1.4718948386324269,-0.2653954164572182,-2.524226707758543,-0.5837638995929674,4.212137938477142,-4.864507864377896,0.0
1.1164111786742048,0.3011207824617385,-2.0639782369574555,-0.12431408336847684,2.326683386158648,-1.9016796080532001,0.0
1.1164111786742048,0.3011207824617385,-2.0639782369574555,-0.2634716013220043,1.5267633659335424,-0.7593248665982114,0.0
0.284774555042398,0.17695285589562668,-1.3333337014431925,-0.32212476935066275,0.26746348764669625,-0.8864722207646627,0.0
0.20324162436546575,0.17695285589562668,-1.6267421393435444,0.2040286695328286,1.0024711631029075,0.3928862154738273,0.0
0.20324162436546575,0.17695285589562668,-1.6267421393435444,0.5277711426067391,0.43423835233789027,0.4865218480485644,0.0
0.39239809660865865,0.5184146539524342,-1.7705697990571037,0.05682070746923849,-0.34271269934477167,1.1074739276312633,0.0
0.7902792276142571,0.2273960845533774,-1.6382483259371323,0.07694679495045577,-1.606007187211341,0.7979835387318573,0.0
0.7902792276142571,0.2273960845533774,-1.6382483259371323,0.5277711426067391,-3.140934785450084,4.640986909561463,0.0
0.7380980058356014,-0.020939785559381904,-2.259583862224357,0.6732540418161748,-3.8679534366319954,8.05425235804399,0.0
0.6761330333256652,-0.12182623862974962,-1.7533104436374045,0.9889461444219801,-1.782768502769913,4.717866669318743,0.0
-0.09353838944398753,0.33604302029872524,-1.4138772090098217,-0.23472004176581984,-1.5780448714319915,1.9117546687956624,0.0
0.23911621433829172,0.08382691097104278,-1.7993352907175129,-0.2059685102637144,-0.6273284735558716,1.5027148621858475,0.0
0.2423775406994576,0.3088812948526562,-1.9143974587706634,-0.1927427794019115,0.4721871189846179,0.8551505691686428,0.0
0.22280958253246155,0.15755160887940373,-1.7820760360035701,0.07867188936544921,0.9425520681283454,0.5328468388899612,0.0
0.36956904043271327,-0.04810152798598677,-1.7418043073966947,0.09304766563678156,0.8247111586084392,0.3258628203767941,0.0
0.37935279116399484,-0.14122747927827153,-1.8223477646104458,0.058545801884231946,0.6918904997055364,0.6925202156697879,0.0
0.2912972077647303,-0.09466450044827872,-1.8281008830836791,-0.01678327180917659,0.816721939448993,1.1873106160211768,0.0
0.284774555042398,-0.08690400503789669,-1.8338540015569122,0.006793002748647613,0.9745089447661314,1.3952802373398916,0.0
0.36956904043271327,-0.09466450044827872,-1.7648166805838705,0.4150650863768172,1.8852792468450186,1.6899861754217171,0.0
0.39239809660865865,-0.22659293516017434,-1.5404455133036816,0.8227621402867022,3.221475347361215,2.4302004501217156,0.0
-0.034834629119108396,-0.1140657432193676,-1.5922234788570238,0.5708985099950947,3.4621505136379342,3.877117205800405,0.0
0.08257277735454133,-0.0907842527430877,-1.655507681356832,0.43116593952934357,4.661531004622499,4.888382181866752,0.0
0.18041233983730406,-0.06750276651194176,-1.6152359023970784,0.12007413077797259,5.842936069186672,5.768557104026079,0.0
0.49023765909142086,-0.16838921480653374,-1.534692445183327,-0.4802583188555982,4.380910034876266,5.200829499398789,0.0
0.9272544780787951,-0.7426659266470499,-1.1262218895827032,0.05739573894090298,2.8789378073260585,3.0718508858736553,0.0
1.0837979150625434,-0.7892288991093418,-0.953628700444076,0.4800435795532256,1.764442465402572,0.9123175996054282,0.0
0.8815961373746872,-0.7737078743275062,-0.7925417215019483,0.6157509227038058,0.23450799515494444,-0.019110552828016745,0.0
0.5945998742965161,-0.7349054142561323,-1.42538339560341,0.20977898424947336,1.6945367733967722,-0.48925998442619173,0.0
0.5358962281477453,-0.6961029541847581,-1.9201505772438963,-1.1329186253971169,5.448468653336399,-0.6745599477917786,0.0
0.284774555042398,-0.385683103808407,-0.7119982343911757,-0.7873249143188377,3.3772651696917104,-0.4794036197659438,0.0
0.35326240862688385,-0.4089645900395529,-0.6084423221668214,-0.6372418194442444,1.7254950585412356,-0.13443021951253556,0.0
0.3271717977375555,-0.6844621855983813,-0.798294827386962,-0.44575645860980845,1.6116487098797663,-0.34239987689604723,0.0
0.44457931838731296,-0.6301387347062433,-0.5739236742685203,-0.06508588386815396,0.6699201226564152,-0.36014137656224904,0.0
0.43805666566498175,-0.6068572314945616,-0.7925417215019483,-0.21056873398295126,0.8886249118840114,-0.7612961202957028,0.0
0.4087047284144883,-0.5952164968692564,-0.6141954280518349,0.003342817425420621,0.14263203572291808,-1.0776859452227239,0.0
0.49349898545258725,-0.4865695611239084,-0.6717264869019708,0.044170023859519646,-0.04611314816086921,-0.6252780764041448,0.0
0.4706699292766437,-0.44000657168108087,-0.7062451222120524,0.03496952688806275,-0.1260052879889671,-0.5336137215700971,0.0
0.3826141175251605,-0.5059707741790599,-0.5739236742685203,-0.3526014303353605,1.2771003890040558,-0.734683906861197,0.0
0.4706699292766437,-0.4594078186973039,-0.7580230814712845,-0.20481843329334587,0.6239821855715281,-0.4311073271406603,0.0
0.46088595019314393,-0.47880904873299085,-0.7119982343911757,-0.11913880713701629,0.7907570015414351,-1.1161259212741552,0.0
0.284774555042398,-0.6378992131360894,-0.3668118624080309,0.24543090743859217,0.23550663536955357,-2.357044309331621,0.0
0.2684679232365686,-0.6223782223153254,-0.5451581574316718,0.3518116665748429,0.12765224979895584,-3.3190272697511465,0.0
0.6076451797411792,-0.2653954164572182,-0.5854298860385474,0.21897947376906557,0.27745001159600435,-2.1944140039191615,0.0
0.4771925819989749,-0.2304731828653653,-0.6257016398218622,0.0849972320469986,0.1356414689584024,-1.8267710058206197,0.0
0.5293735754254114,-0.2304731828653653,-0.6659733810169572,0.12064916224963707,-0.0001751669223157946,-1.001791860400584,0.0
0.5424188808700771,-0.19555095139607942,-0.6544671692469302,0.07407164109889325,-0.14298236652246926,-0.2812903150210811,0.0
0.3630463877103815,-0.2731559118676002,-0.6199485339368485,-0.05013507261839724,-0.05709831536986689,-1.018547661088447,0.0
0.4021820756921571,-0.2304731828653653,-0.6717264869019708,0.10857350835820276,-0.1409850617326076,-0.4458918741310317,0.0
0.3434784295433859,-0.28867690268836416,-0.7119982343911757,0.22817997731569714,0.14363067593752724,-0.18568340470565503,0.0
0.26194549886645313,-0.2459941736861293,-0.562417462498493,0.21897947376906557,0.25547968326816983,0.01932933869654764,0.0
0.4739312556378096,-0.23823367827574732,-0.6947389104420253,0.08097201525210714,0.04476416192130681,0.035099550478836235,0.0
0.42501136022031927,-0.2459941736861293,-0.763776190503353,0.09132257122178813,0.37332056842743244,0.4815936657184405,0.0
0.11518604096620118,-0.13734722945051356,-0.7350106579312301,-0.119713831595161,1.2691111698446094,2.247857415388761,0.0
0.020607804844604595,-0.26151516875202724,-0.6257016398218622,-0.1789420381090036,2.0210958751130357,2.7219492672253263,0.0
0.13801532549436285,-0.385683103808407,-0.2920214733146347,-0.26117147543534636,1.654590775042113,3.5676270092465816,0.0
0.8424602210406967,-0.5641745152277285,-0.5163926154183843,0.21092903316576284,1.9042536545290258,2.522850431804509,0.0
1.0642299568955487,-0.5331325335862007,-0.504886403648357,0.3725127715006852,1.278099077939952,0.23222718780205714,0.0
0.8098469574290352,-0.4865695611239084,-0.40708359101490643,0.4725681774351072,0.7897583613268263,-0.3729546698551291,0.0
0.6076451797411792,-0.4361263324661577,-0.3265401338011554,0.30235897403873735,0.11367112845024618,-0.022067466433650623,0.0
0.4706699292766437,-0.38956334302333007,-0.3668118624080309,0.1517008406789597,0.03178168687736705,0.25193996520894796,0.0
0.44457931838731296,-0.42836583705577586,-0.3495525573412098,0.19080295269806527,-0.006167077485550148,0.21152879556801957,0.0
0.44131799202614763,-0.4361263324661577,-0.3150338968546888,0.18275251209476256,-0.04111988923129555,-0.010239809005715306,0.0
0.43805666566498175,-0.44000657168108087,-0.2920214733146347,0.0884474173702256,-0.09105247243687115,-0.27044829946889004,0.0
0.4087047284144883,-0.3934435992187889,-0.3207870153279223,0.17010183374518353,-0.46155224907928677,0.04889848414476079,0.0
0.44457931838731296,-0.40508433384409404,-0.3495525573412098,0.24198071860860523,-0.6622812708374851,0.05284103662073923,0.0
0.5000216381749185,-0.40508433384409404,-0.6544671692469302,0.18562767646660472,-0.38465607557122267,-0.1590711792495502,0.0
0.5000216381749185,-0.3934435992187889,-0.6487140633619165,-0.06336078945316052,0.5670590112407933,-0.15118606828679387,0.0
0.5130669436195836,-0.339120131346115,-0.5739236742685203,-0.31234924134588626,1.2890841690219386,-0.07430629049711464,0.0
0.4837150063690896,-0.3430003705610381,-0.4703677683382756,-0.2519709999427937,1.2141853246643797,-0.0841626731897606,0.0
0.37609146480282873,-0.3934435992187889,-0.22298420269447167,-0.031159048080508928,0.6689214824418062,0.07353944087637572,0.0
0.3989207493309904,-0.42836583705577586,-0.17695935561436266,0.03439449563557076,0.6030104974583026,0.14056283296800925,0.0
0.43805666566498175,-0.41284482925447596,-0.3495525573412098,0.003917847143705164,0.8576666267395477,0.15436177715283284,0.0
0.5130669436195836,-0.40508433384409404,-0.37831804900161875,0.07349660962722877,1.04241725890014,-0.009254170135370771,0.0
0.4315340129426505,-0.397323838433712,-0.1884655422079511,0.101673130698229,0.5101358856313453,-0.002354701048358694,0.0
0.41522738113681956,-0.43224607627069883,-0.1942186606811841,0.06832132988900833,0.41126933507415975,-0.014182361481693743,0.0
0.5489415335924083,-0.5370127558205879,0.1509677427725098,0.024618966973276885,0.19056731413863207,0.06368305818372975,0.0
0.4967603118137526,-0.397323838433712,-0.21723108422123855,-0.19676800671708272,0.21952822141130393,-0.1452722470863255,0.0
0.4706699292766437,-0.385683103808407,-0.2575028128281141,-0.2628965768638596,0.338367771145819,0.01932933869654764,0.0
0.41522738113681956,-0.3934435992187889,-0.13668762700748727,-0.11683868125035834,0.14762528551725046,-0.038823315207908944,0.0
0.5456802072312423,-0.5758152498530335,0.22000496303979458,0.2051787324761575,0.10368461668125974,0.09325220325626792,0.0
0.4543632974708127,-0.47880904873299085,-0.07340342450767896,0.2954585963787634,0.04576281431623762,-0.14822915167576026,0.0
0.39239809660865865,-0.4089645900395529,-0.21147796574800506,0.0694713928323373,0.15361719988683534,-0.23003711780636274,0.0
0.42501136022031927,-0.381802847612948,-0.3668118624080309,-0.1162636427651741,0.4641978998251712,-0.24482171288312976,0.0
0.4543632974708127,-0.385683103808407,-0.18271247408759614,-0.07543644334459484,0.6689214824418062,-0.29508925920590473,0.0
0.43805666566498175,-0.34688062675649695,-0.3610587439347978,0.2511812221552369,0.2814446211757276,-0.11964564847896632,0.0
0.4543632974708127,-0.385683103808407,-0.22298420269447167,0.22415475000052612,-0.02114685351300098,-0.15217170715713846,0.0
0.4119660547756542,-0.339120131346115,-0.17120623714112965,0.1718269211466572,-0.3487046137143567,-0.10190416083436346,0.0
0.42827268658148515,-0.381802847612948,-0.0906627799273787,0.16032630574040713,-0.706221927493154,-0.08711958980079422,0.0
0.44131799202614763,-0.40508433384409404,-0.11367520346743269,0.11949909930630813,-1.0237931698353624,-0.03488076573733021,0.0
0.44131799202614763,-0.40508433384409404,-0.11367520346743269,0.15227586513710442,-0.869002133883338,0.262781980761139,0.0
0.2097642770877975,-0.366281856792184,-0.41283670948813966,0.1488256833206373,-0.4455738594816805,0.5180622918995897,0.0
0.35652373498804946,-0.397323838433712,-0.41283670948813966,0.04359499326454514,-0.34670730892449503,0.2213851722498661,0.0
0.35652373498804946,-0.397323838433712,-0.41283670948813966,0.07982195230877817,0.15561450467669696,0.19477293477216237,0.0
0.5489415335924083,-0.37404235220256604,-0.4531084632714544,-0.092112349009345,0.6759120613866434,-0.11077491066746438,0.0
0.5000216381749185,-0.41284482925447596,-0.4013304977181126,-0.1312144610284506,1.3300289537550671,-0.18666905559759844,0.0
0.5000216381749185,-0.41284482925447596,-0.4013304977181126,-0.3669772101134526,1.1133215423992626,0.11197932977121533,0.0
0.43805666566498175,-0.397323838433712,-0.13668762700748727,-0.20251830740668791,0.6369646545253069,-0.2566493552840664,0.0
0.3858754438863266,-0.33135963593573303,-0.14244069512784208,-0.0041325864460778055,0.6759120613866434,-0.13443021951253556,0.0
0.3858754438863266,-0.33135963593573303,-0.14244069512784208,0.1850526379814205,-0.05609966297493606,-0.012211083741004651,0.0
0.33043312409872216,-0.366281856792184,0.024399388125771623,0.0631460501507879,0.04576281431623762,-0.07233501275642558,0.0
0.33043312409872216,-0.366281856792184,-0.1481938136010751,-0.07888663217458172,0.880635692724565,-0.015167997346638571,0.0
0.4021820756921571,-0.41284482925447596,-0.3092807783814557,-0.2594464020609122,0.8157232505130971,-0.10091852196401893,0.0
0.4315340129426505,-0.385683103808407,-0.06189723791409112,-0.1116634050188978,0.07172775831395624,-0.09204778415251692,0.0
0.4674086029154757,-0.385683103808407,-0.03888481437403656,-0.021383520075732538,-0.19491225451790645,-0.03093821025595206,0.0
0.48045368000792427,-0.37792260839802494,-0.0906627799273787,0.026344060511580357,-0.12900124517375952,0.040027741825159224,0.0
0.45110197110964684,-0.37016211298764296,-0.2632559313013471,0.11374878458966332,0.3104055284483996,0.14943358280111013,0.0
0.42501136022031927,-0.37404235220256604,-0.13668762700748727,0.1459505259623149,0.10568192147112136,0.11197932977121533,0.0
0.4021820756921571,-0.381802847612948,-0.015872390833982113,0.12524940700943316,-0.4395819207514521,-0.018124913957672188,0.0
0.3891367702474925,-0.385683103808407,-0.00436615388751596,0.21265413459427598,-0.588381017973248,-0.019110552828016745,0.0
0.39239809660865865,-0.3352398751506561,-0.10216896652096653,0.05682070746923849,-0.4705401084533422,0.12873517854547362,0.0
0.42501136022031927,-0.3624016175772609,-0.3150338968546888,-0.13581471280176644,0.21553361183158068,-0.04670842015986582,0.0
0.43805666566498175,-0.37792260839802494,-0.1481938136010751,-0.06451085239648949,0.04276685713144518,-0.009254170135370771,0.0
0.4771925819989749,-0.38956334302333007,-0.15394693207430868,-0.02540873687062402,0.09170078794208997,-0.027981293644918446,0.0
0.3826141175251605,-0.2925571503935552,-0.05614411944085799,-0.13293954842992428,-0.13099853778329948,0.19674421251285146,0.0
0.42501136022031927,-0.31971888432989215,-0.23449038928805963,-0.22206936341624076,-0.05310370883522406,0.16914634818640206,0.0
0.3826141175251605,-0.35076086597142014,-0.03888481437403656,-0.27727235664195193,-0.8600143232305694,0.17900272486824859,0.0
0.4087047284144883,-0.37404235220256604,-0.05039100096762451,-0.1519155799813323,-1.4761824002309785,-0.005311617659392316,0.0
0.37935279116399484,-0.43224607627069883,-0.08490966145414523,-0.06451085239648949,-1.7428225044152539,-0.09697596648264077,0.0
0.41522738113681956,-0.4361263324661577,-0.08490966145414523,0.09937301182509084,-1.907600039955943,-0.044737142419176736,0.0
0.5000216381749185,-0.40508433384409404,-0.43584913302819406,0.10339822511322246,-0.22886642376523247,-0.09599032761229623,0.0
0.46088595019314393,-0.385683103808407,-0.913356952954871,0.21092903316576284,1.3729709214748402,-0.08711958980079422,0.0
0.4543632974708127,-0.40508433384409404,-0.4185898027849337,0.05452058333596052,0.7837664225965979,0.10310858594891391,0.0
0.5163282699807489,-0.41284482925447596,-0.40708359101490643,-0.2893480105333861,-1.1715936755638359,0.09325220325626792,0.0
0.3434784295433859,-0.43224607627069883,-0.16545311866789653,-0.03978451314195638,-1.5361014952055407,-0.15808554037920566,0.0
0.526112249064246,-0.44000657168108087,-0.4243429212581668,0.04762021093612659,-0.6752637397912639,-0.11176054953780887,0.0
0.5098056172584172,-0.44000657168108087,-0.2862683548414012,0.053945551864296046,-2.5287613667506847,-0.18174084922427688,0.0
0.5587255126759074,-0.5525337806024232,-0.2862683548414012,0.1758521484618283,-0.43159270159200575,-0.081205756578727,0.0
0.5522028599535737,-0.4943300395537549,-0.6659733810169572,-0.04898500967506828,0.2804459566004751,0.3613457956659998,0.0
0.49023765909142086,-0.28479665498317314,-0.556664369201699,-0.17664191222234565,0.9046032527603313,0.7122329930766789,0.0
0.4543632974708127,-0.3585213613818021,-0.4531084632714544,-0.45208181181163754,0.9595290979405607,0.49440695901132065,0.0
0.4315340129426505,-0.38956334302333007,-0.3322932019215102,-0.027708859250522064,0.9755075362594537,0.2539112429496371,0.0
0.48045368000792427,-0.5059707741790599,-0.30352771026110087,-0.22494451376104344,0.27145809722641945,-0.061492997204234505,0.0
0.33695577682105365,-0.4594078186973039,-0.015872390833982113,-0.05991060062317365,-0.0351279779067911,-0.14132969160494735,0.0
0.526112249064246,-0.3934435992187889,-0.1942186606811841,0.06199598720745894,-0.6892448489596519,-0.21919510225417166,0.0
0.5326349017865768,-0.4943300395537549,-0.06765030603444594,0.3322606105652901,-1.7857644721350272,-0.46166209605654435,0.0
0.43805666566498175,-0.49821029574921366,-0.21147796574800506,0.5634231078769764,-1.939556916593729,-0.6568184721687746,0.0
0.40544340205332297,-0.45552756250184473,-0.2977745917878678,0.7549084687114122,-1.6769113732678902,-0.5267142374560863,0.0
0.4119660547756542,-0.2964373980987462,-0.5394050389584386,0.8233371366907679,-0.6393122535737545,-0.12457384283068902,0.0
0.49349898545258725,-0.2653954164572182,-0.7752824022733802,0.45129204805112016,0.26746348764669625,0.010458595249921177,0.0
0.5293735754254114,-0.23823367827574732,-0.8903445294148167,-0.040934576085285335,0.667922842227197,0.07945327109304325,0.0
0.46088595019314393,-0.24987442563645423,-0.5911830045117806,-0.20711855918000385,0.4462221323557732,0.14253411070869834,0.0
0.3858754438863266,-0.323599140525351,-0.4646146750414816,-0.17549184927901668,0.7208513582569217,0.13267773402685182,0.0
0.4087047284144883,-0.3274793797402741,-0.4243429212581668,-0.1927427794019115,1.067383507871802,0.2144857001574543,0.0
0.45110197110964684,-0.30807814121431915,-0.504886403648357,-0.266346751666807,0.8886249118840114,0.2006867679942296,0.0
0.35652373498804946,-0.3119583889195101,-0.3265401338011554,-0.25484615028759644,0.4631992108892753,0.16323251496433477,0.0
0.42501136022031927,-0.41284482925447596,-0.3265401338011554,-0.13466464985843749,0.4122679752887689,0.0242575297611144,0.0
0.4706699292766437,-0.41284482925447596,-0.5911830045117806,-0.12661420925513475,0.9445493485575636,-0.33451478997648854,0.0
0.5554641863147395,-0.4594078186973039,-0.4761208868115087,-0.04495979638693671,1.5257646769976463,-0.3729546698551291,0.0
0.48045368000792427,-0.41284482925447596,-0.3898242859480853,0.17642717291997304,1.5497323344759861,-0.1216169262196554,0.0
0.4543632974708127,-0.37792260839802494,-0.3553056254615647,0.16090133019855185,1.6196379290392127,0.041999018063148444,0.0
0.41522738113681956,-0.33135963593573303,-0.1481938136010751,0.21380419753760496,0.8307030973386678,0.3869723822517602,0.0
0.5032829645360838,-0.366281856792184,-0.21723108422123855,0.05049536654106905,0.03178168687736705,0.30516441612115763,0.0
0.4543632974708127,-0.354641122166879,-0.4013304977181126,0.06889636136067283,0.03377899166722869,0.12479262306409548,0.0
0.4869763327302555,-0.3934435992187889,-0.4243429212581668,0.3109844531272242,1.8513251872205878,0.12577826193444003,0.0
0.4184887074979849,-0.2459941736861293,-0.1942186606811841,0.33571078536823756,1.8732955642697091,-0.1679419170610522,0.0
0.4021820756921571,-0.2304731828653653,-0.14244069512784208,-0.013908114450854181,0.909596599997237,0.38401547766232547,0.0
0.4315340129426505,-0.4671683141076856,0.0013869645857171745,0.08154704321701174,0.741823046370147,0.17210326479743568,0.0
0.39239809660865865,-0.4865695611239084,0.07617730332623499,0.026344060511580357,0.46819250940489454,-0.16498501247161748,0.0
0.39239809660865865,-0.3934435992187889,-0.015872390833982113,0.11662394194798573,0.32538530219204015,-0.21623819766473693,0.0
0.3989207493309904,-0.21883243974979233,-0.13668762700748727,0.19942841775951273,0.24848910432333246,-0.0841626731897606,0.0
0.41522738113681956,-0.21883243974979233,-0.1597000505475417,0.3006339006643031,0.32039202803706435,0.1395772061192636,0.0
0.41522738113681956,-0.28867690268836416,-0.02162545895433693,0.3857385023624881,0.30341494950356207,0.2854516627574646,0.0
0.3989207493309904,-0.21883243974979233,0.1509677427725098,0.8124115317156231,-0.23685561856403559,0.4727229279069383,5.0
0.2456388670606232,-0.4089645900395529,0.5594382480202554,1.1177530818585075,-0.7451693343544907,0.34163304230230684,5.0
0.48045368000792427,-0.4904497833582958,0.2602766916466702,1.868743720960014,-0.9918362931975763,0.3968287709552055,5.0
0.5032829645360838,-0.38956334302333007,-0.23449038928805963,-0.004707617917742273,0.0936980927319516,-0.1679419170610522,5.0
0.5326349017865768,-0.3430003705610381,-0.2632559313013471,-0.43598093060503207,0.48816550858222413,-0.3088881793475306,5.0
0.5000216381749185,-0.366281856792184,-0.05039100096762451,-0.5187854344706381,0.27745001159600435,-0.3749259475958182,5.0
0.3402171031822198,-0.3585213613818021,-0.09641584804773352,-0.37330253526120266,-0.34970327828960923,-0.3305722344951103,5.0
0.26194549886645313,-0.30807814121431915,0.04165869319259305,-0.15996600655759555,-0.38765204493633654,0.0764963544820096,5.0
0.35326240862688385,-0.31971888432989215,-0.08490966145414523,-0.1616911079861088,-0.8779900419786806,0.17801708599790406,5.0
0.40544340205332297,-0.3274793797402741,-0.16545311866789653,-0.12661420925513475,-0.7341841945512168,0.365288351147378,5.0
0.46088595019314393,-0.4244855808603169,-0.10216896652096653,-0.33132527289729435,-0.7391774443455492,-0.019110552828016745,5.0
0.4739312556378096,-0.45164732328692175,-0.1481938136010751,-0.1375398002032401,-0.161956749845833,-0.11866000960862177,5.0
0.4184887074979849,-0.4438868278765397,-0.1481938136010751,0.028644184864030826,-0.08506056415744713,-0.07430629049711464,5.0
0.3728301384416626,-0.42060532466485795,-0.13093450853425412,0.1384751238441964,-0.1959109069128373,0.02031497681554225,5.0
0.39239809660865865,-0.4477670670914628,-0.1251813900610211,0.0890224488418901,-0.3447100041346334,0.11690752412293803,5.0
0.39239809660865865,-0.4477670670914628,-0.1251813900610211,0.1499757392504465,-0.2408502281437589,0.1839309192199713,5.0
0.42501136022031927,-0.4671683141076856,-0.06765030603444594,0.24658097038192095,-0.11701741643458978,0.16027559835330119,5.0
0.4087047284144883,-0.4594078186973039,-0.1481938136010751,0.2414056941504605,-0.031133371372148264,-0.03290948799664115,5.0
0.4087047284144883,-0.4594078186973039,-0.1481938136010751,0.33628580982638223,0.28543923075545086,0.07058252727074181,5.0
0.39239809660865865,-0.41284482925447596,-0.14244069512784208,0.2276049388305129,0.03577629645709033,0.09128092551557883,5.0
0.41522738113681956,-0.4244855808603169,-0.1251813900610211,0.16262643162706505,0.01480460834386493,0.06368305818372975,5.0
0.41522738113681956,-0.4244855808603169,-0.1251813900610211,0.25233128509856584,0.028785732737655053,0.11986443472317222,5.0
0.3826141175251605,-0.3934435992187889,-0.027378577427570407,0.36331226795405347,0.11566843324010782,0.1711176259270911,5.0
0.36956904043271327,-0.3934435992187889,-0.11367520346743269,0.2701572396796054,-0.24983808751781447,0.11887879585282768,5.0
0.36956904043271327,-0.3934435992187889,-0.11367520346743269,0.343186187486356,-0.2388529233538972,0.07551071561166507,5.0
0.4315340129426505,-0.43224607627069883,-0.1251813900610211,0.3253602329053164,-0.1250066355940363,-0.10584671631574168,5.0
0.5750321444817358,-0.385683103808407,-0.23449038928805963,0.5168455937397523,-0.07008079041380662,-0.016153636216983094,5.0
0.5750321444817358,-0.385683103808407,-0.23449038928805963,0.44266656896263323,-0.02114685351300098,0.08438145943396652,5.0
0.44784064474847884,-0.323599140525351,-0.24024350776129264,0.1488256833206373,-0.21987854003053345,0.040027741825159224,5.0
0.4315340129426505,-0.30807814121431915,-0.2575028128281141,0.0016177247638071188,-0.13399449496809193,-0.0013690636807140101,5.0
0.3858754438863266,-0.2925571503935552,-0.18271247408759614,0.0401448061879382,-0.3956412640957832,-0.0674068244155023,5.0
0.42501136022031927,-0.354641122166879,-0.16545311866789653,0.005642941558698601,-0.2987720426891027,-0.014182361481693743,5.0
0.44784064474847884,-0.3274793797402741,-0.1942186606811841,-0.2013682444633591,-0.38865068515094564,-0.010239809005715306,5.0
0.46088595019314393,-0.3041978935091281,-0.24599662623452578,-0.28302265733155707,-0.3716736066174435,-0.1807552223755312,5.0
0.4543632974708127,-0.30031764580393716,-0.21147796574800506,-0.19044265351525375,-0.3067612374879058,-0.0841626731897606,5.0
0.4967603118137526,-0.31583863662470113,-0.1942186606811841,0.1338748720708806,-0.296774737899241,0.07353944087637572,5.0
0.49023765909142086,-0.3585213613818021,-0.16545311866789653,0.14710058890564384,-0.5244673134189628,-0.07233501275642558,5.0
0.4315340129426505,-0.339120131346115,-0.21147796574800506,-0.14731532820801652,-0.5454390015321884,-0.20046797573922426,5.0
0.37609146480282873,-0.3352398751506561,-0.26900904977458023,-0.2738221537849254,-0.2598246114671226,-0.1797695714835878,5.0
0.4021820756921571,-0.3624016175772609,-0.22298420269447167,-0.06336078945316052,-0.1319971901782303,-0.00038342631306933193,5.0
0.4543632974708127,-0.385683103808407,-0.16545311866789653,0.2212795996557234,-0.15596483547624812,0.07255380200603116,5.0
0.48045368000792427,-0.40508433384409404,-0.22873732116770482,0.2759075403692106,-0.2608232760423751,-0.010239809005715306,5.0
0.44131799202614763,-0.385683103808407,-0.2575028128281141,0.17240195963184143,-0.21488529023620107,-0.014182361481693743,5.0
0.4087047284144883,-0.37016211298764296,-0.22873732116770482,0.07752182642212027,0.13264551177360992,0.01440114772589962,5.0
0.4315340129426505,-0.38956334302333007,-0.25174974470775924,0.12869959583942003,0.16859697363047588,0.09818039760799063,5.0
0.4706699292766437,-0.397323838433712,-0.3207870153279223,0.0855722635186631,0.9315668796037847,-0.026010018909629062,5.0
0.45110197110964684,-0.37016211298764296,-0.25174974470775924,0.13444990354254505,0.9535372566529061,0.04594157053912689,5.0
0.4543632974708127,-0.3585213613818021,-0.1481938136010751,0.16722668340038088,0.7098662184536476,0.20462932347560778,5.0
0.4184887074979849,-0.33135963593573303,-0.1251813900610211,0.04301996179288066,0.5061412760516222,0.3367048359289852,5.0
0.4021820756921571,-0.35076086597142014,-0.16545311866789653,-0.13523967431658218,0.20155247830254933,0.3140351539326596,5.0
0.46088595019314393,-0.2964373980987462,-0.20572489762765026,-0.3060239161981364,0.034777644062159524,0.20561496234595228,5.0
0.5130669436195836,-0.40508433384409404,-0.21723108422123855,-0.3566266576505314,0.429245053822271,-0.10091852196401893,5.0
0.653303748797503,-0.4438868278765397,-0.24599662623452578,-0.21976923752958294,0.4122679752887689,-0.22510893547623892,5.0
0.5065442908972518,-0.35076086597142014,0.012893151179305468,0.07234654668389981,0.2744540665915336,-0.07824883996769338,5.0
0.4119660547756542,-0.42060532466485795,-0.17695935561436266,0.003342817425420621,0.4252504929638348,-0.04670842015986582,5.0
0.4543632974708127,-0.47880904873299085,-0.30352771026110087,-0.16341619538758248,0.9615264758123525,-0.33648606771717765,5.0
0.3271717977375555,-0.34688062675649695,0.01864626965253849,-0.061060663566502624,0.17259158321019907,-0.026010018909629062,5.0
0.35326240862688385,-0.3274793797402741,0.024399388125771623,-0.013333082979189715,0.052753374990592475,0.04988412301510533,5.0
0.4021820756921571,-0.3624016175772609,-0.03888481437403656,-0.05991060062317365,0.15960911425642021,-0.061492997204234505,5.0
0.45110197110964684,-0.35076086597142014,-0.09641584804773352,0.021743811368334427,0.011808654204152912,0.10606550255994752,5.0
0.43479533930381636,-0.34688062675649695,-0.09641584804773352,-0.043234701971943255,0.11367112845024618,0.07748199335235416,5.0
0.40544340205332297,-0.3585213613818021,-0.07340342450767896,-0.08406190840604229,0.09070213554715915,0.07156816313568663,5.0
0.41522738113681956,-0.37404235220256604,-0.0791565429809121,-0.05761048175003549,0.10568192147112136,0.058754866837406744,5.0
0.4315340129426505,-0.38956334302333007,-0.03313169590080354,-0.040359544613620874,0.12365765239955434,0.06959688840039728,5.0
0.4184887074979849,-0.3934435992187889,-0.02162545895433693,-0.01678327180917659,0.10168731189139811,0.06565433592441883,5.0
0.4087047284144883,-0.381802847612948,-0.027378577427570407,-0.005282649389406746,0.048758765410869216,0.05481231436142831,5.0
0.4087047284144883,-0.37792260839802494,-0.02162545895433693,0.005642941558698601,0.0227938214131506,0.07353944087637572,5.0
0.4217500338591534,-0.385683103808407,-0.02162545895433693,0.011968282486868058,0.016801913133726556,0.10705114143029207,5.0
0.4184887074979849,-0.40508433384409404,-0.00436615388751596,0.01484343809181052,0.0207965196683694,0.08930965378568921,5.0
0.4184887074979849,-0.40120409462917084,-0.04463788249439137,0.03266940242602603,-0.004169774218228733,0.08241018169327743,5.0
0.42501136022031927,-0.40508433384409404,-0.07340342450767896,0.053370522146011505,-0.0031711225845680226,0.09620911986730153,5.0
0.43805666566498175,-0.41672508544993486,-0.1251813900610211,0.058545801884231946,0.007814046146969872,0.10705114143029207,5.0
0.4315340129426505,-0.42060532466485795,-0.06765030603444594,0.0849972320469986,-0.006167077485550148,0.11395060751190439,5.0
0.43479533930381636,-0.43224607627069883,-0.03313169590080354,0.11259872164633436,-0.0021724709509073144,0.11690752412293803,5.0
0.4184887074979849,-0.43224607627069883,-0.06189723791409112,0.14020021825918988,-0.04311719097607676,0.16224687609399027,5.0
0.41522738113681956,-0.4361263324661577,-0.05039100096762451,0.15457599102376232,-0.07107944280873742,0.18590219696066038,5.0
0.42501136022031927,-0.4361263324661577,-0.03888481437403656,0.17010183374518353,-0.0471117975107196,0.17998836373859314,5.0
0.41522738113681956,-0.4438868278765397,-0.05614411944085799,0.1850526379814205,-0.08905517373717037,0.1701319870567466,5.0
0.4119660547756542,-0.4594078186973039,-0.07340342450767896,0.20977898424947336,-0.06608618083408335,0.1701319870567466,5.0
0.41522738113681956,-0.45164732328692175,-0.015872390833982113,0.23910556826380253,-0.03712528117411251,0.12577826193444003,5.0
0.4315340129426505,-0.43224607627069883,-0.06765030603444594,0.2442808444952632,-0.03013471897721745,0.12380699020455035,5.0
0.43479533930381636,-0.42060532466485795,-0.027378577427570407,0.24313078155193418,-0.004169774218228733,0.0971947587376461,5.0
0.44131799202614763,-0.42060532466485795,-0.05039100096762451,0.24313078155193418,0.023792473808081395,0.05185540075579441,5.0
0.4217500338591534,-0.4089645900395529,-0.05039100096762451,0.22012953671239446,0.0008234839500748077,0.058754866837406744,5.0
0.42501136022031927,-0.41284482925447596,-0.05614411944085799,0.23278021506197355,-0.03712528117411251,0.06466869705407428,5.0
0.4217500338591534,-0.40508433384409404,-0.06765030603444594,0.2448558689534079,-0.018150898612018854,0.05185540075579441,5.0
0.42501136022031927,-0.37016211298764296,-0.015872390833982113,0.22990506471717087,-0.02614011244257462,0.03214263537050247,5.0
0.4217500338591534,-0.35076086597142014,-0.06765030603444594,0.1971282918728548,-0.027138763314965224,0.04495593166878235,5.0
0.43479533930381636,-0.339120131346115,-0.05614411944085799,0.10397325658488693,-0.024142809175253205,0.0341139116084917,5.0
0.4315340129426505,-0.34688062675649695,-0.010119272360749094,0.053370522146011505,-0.01615359496406239,0.05086976188544987,5.0
0.41522738113681956,-0.33135963593573303,-0.02162545895433693,0.01656853250680396,-0.2388529233538972,0.04298465543079313,5.0
0.4087047284144883,-0.3352398751506561,-0.015872390833982113,-0.05818550620818022,-0.08306325936758549,-0.005311617659392316,5.0
0.4021820756921571,-0.31971888432989215,-0.06765030603444594,-0.13293954842992428,-0.13099853778329948,0.01341550960690501,5.0
0.44457931838731296,-0.31971888432989215,-0.0906627799273787,-0.17664191222234565,-0.07008079041380662,-0.03389512686698568,5.0
0.42827268658148515,-0.339120131346115,-0.027378577427570407,-0.18699247871230634,-0.10703090466560336,-0.027981293644918446,5.0
0.4184887074979849,-0.33135963593573303,-0.06189723791409112,-0.2646216782923728,-0.13499314736302276,-0.027981293644918446,5.0
0.4087047284144883,-0.3041978935091281,-0.04463788249439137,-0.27554725521343865,-0.13599179975795356,0.0025734887952644303,5.0
0.4315340129426505,-0.31971888432989215,-0.0906627799273787,-0.3261499966658337,-0.16595135942555625,0.03904210295481468,5.0
0.4315340129426505,-0.3624016175772609,-0.07340342450767896,-0.39457869269926854,-0.11701741643458978,0.01932933869654764,5.0
0.43479533930381636,-0.3934435992187889,-0.010119272360749094,-0.36122688136976827,-0.11002685576023495,0.04298465543079313,5.0
0.41522738113681956,-0.43224607627069883,-0.05039100096762451,-0.31004911545922836,-0.161956749845833,0.09423784212661247,5.0
0.4184887074979849,-0.474928792537532,-0.0906627799273787,-0.22896974107621462,-0.2488394473032054,0.08635273717465557,5.0
0.42501136022031927,-0.5098510303745186,-0.06765030603444594,-0.17146663599088519,-0.23985158792914973,0.09916603647833516,5.0
0.42827268658148515,-0.5176115427654366,-0.03313169590080354,-0.10418800290077931,-0.20689607107675456,0.11789316299328258,5.0
0.42827268658148515,-0.5486535244069645,-0.05614411944085799,0.0010426932921426453,-0.1749392187996119,0.09916603647833516,5.0
0.42501136022031927,-0.5253720211952827,-0.05614411944085799,0.08787238589856114,-0.1819297855641276,0.08241018169327743,5.0
0.42827268658148515,-0.48268930492844964,-0.06189723791409112,0.14767562037730833,-0.19091764493818322,0.10606550255994752,5.0
0.42501136022031927,-0.47880904873299085,-0.05614411944085799,0.18850282681140737,-0.2078947234716854,0.11592188525259349,5.0
0.42827268658148515,-0.47880904873299085,-0.1251813900610211,0.20977898424947336,-0.21788123524067182,0.11000805203052626,5.0
0.42501136022031927,-0.4361263324661577,-0.1251813900610211,0.21035400870761806,-0.16994595682495786,0.12774953967512911,5.0
0.42501136022031927,-0.4361263324661577,-0.1251813900610211,0.21897947376906557,-0.15396753068638647,0.11395060751190439,5.0
0.4217500338591534,-0.42060532466485795,-0.0906627799273787,0.20977898424947336,-0.12700394038389792,0.12676390080478456,5.0
0.43479533930381636,-0.41284482925447596,-0.0791565429809121,0.17297698408998616,-0.14298236652246926,0.11197932977121533,5.0
0.43479533930381636,-0.41284482925447596,-0.0791565429809121,0.14480046301898594,-0.168947304430027,0.07945327109304325,5.0
0.43479533930381636,-0.3934435992187889,-0.09641584804773352,0.12294928112277523,-0.15596483547624812,0.06959688840039728,5.0
0.43479533930381636,-0.385683103808407,-0.10792208499419967,0.07809685789378473,-0.17094460921988863,0.09325220325626792,5.0
0.43479533930381636,-0.385683103808407,-0.10792208499419967,0.03899474412129921,-0.18592438296352914,0.09029529265603375,5.0
0.4315340129426505,-0.40508433384409404,-0.15394693207430868,-0.00010736965118631424,-0.15596483547624812,0.10015166933788028,5.0
0.4315340129426505,-0.41672508544993486,-0.14244069512784208,-0.0064327123327357115,-0.17294191400975029,0.0814245488337323,5.0
0.4315340129426505,-0.41672508544993486,-0.14244069512784208,-0.002407495537844227,-0.18093113316919676,0.09916603647833516,5.0
0.44457931838731296,-0.42060532466485795,-0.16545311866789653,0.01484343809181052,-0.17094460921988863,0.09029529265603375,5.0
0.44131799202614763,-0.4244855808603169,-0.17120623714112965,0.0027677859537561514,-0.18792168775339077,0.095223480996957,5.0
0.42827268658148515,-0.45164732328692175,-0.20572489762765026,-0.00010736965118631424,-0.16295540224076382,0.07748199335235416,5.0
0.4315340129426505,-0.4594078186973039,-0.17695935561436266,0.006793002748647613,-0.16495270703062548,0.08241018169327743,5.0
0.4217500338591534,-0.4671683141076856,-0.21723108422123855,0.022893874311663388,-0.13898775694274598,0.08832401491534467,5.0
0.4315340129426505,-0.47880904873299085,-0.20572489762765026,0.055095614807625,-0.121012026014313,0.07748199335235416,5.0
0.43479533930381636,-0.4904497833582958,-0.21147796574800506,0.0665962354740149,-0.09205112483180199,0.05086976188544987,5.0
0.43805666566498175,-0.48268930492844964,-0.21147796574800506,0.08039698378044267,-0.09205112483180199,0.027214444399854456,5.0
0.4315340129426505,-0.48268930492844964,-0.21147796574800506,0.06889636136067283,-0.08905517373717037,0.029185721013518642,5.0
0.43805666566498175,-0.4710485703031447,-0.20572489762765026,0.055095614807625,-0.10004033790108764,0.041999018063148444,5.0
0.41522738113681956,-0.45164732328692175,-0.19997177915441725,0.04301996179288066,-0.08406191176251632,0.03904210295481468,5.0
0.42501136022031927,-0.4671683141076856,-0.18271247408759614,0.03726965102134073,-0.07707135108816147,0.06368305818372975,5.0
0.42827268658148515,-0.4671683141076856,-0.20572489762765026,0.020018718706720926,-0.07207808911350741,0.05974050570775131,5.0
0.4315340129426505,-0.4671683141076856,-0.21723108422123855,0.025193998444941367,-0.07107944280873742,0.01341550960690501,5.0
0.43805666566498175,-0.47880904873299085,-0.1942186606811841,0.026344060511580357,-0.07707135108816147,0.03312827348949709,5.0
0.44457931838731296,-0.4710485703031447,-0.21723108422123855,0.019443687235056448,-0.09205112483180199,0.010458595249921177,5.0
0.44457931838731296,-0.4438868278765397,-0.23449038928805963,0.022893874311663388,-0.08705786894730877,0.0242575297611144,5.0
0.44131799202614763,-0.45164732328692175,-0.24599662623452578,0.00794306569197658,-0.02614011244257462,0.015386785844894231,5.0
0.43805666566498175,-0.4671683141076856,-0.23449038928805963,0.01426840837352598,-0.044115843371007574,0.0410133791928039,5.0
0.43805666566498175,-0.4671683141076856,-0.21723108422123855,0.030944309161688176,-0.02614011244257462,-0.016153636216983094,5.0
0.44784064474847884,-0.4594078186973039,-0.22873732116770482,0.06027089454584543,-0.0551010136250857,0.018343700577553027,5.0
0.44457931838731296,-0.45164732328692175,-0.26900904977458023,0.03726965102134073,-0.11002685576023495,0.01440114772589962,5.0
0.4315340129426505,-0.45164732328692175,-0.22298420269447167,0.030944309161688176,-0.08006730827295391,0.017358062082883454,5.0
0.4315340129426505,-0.44000657168108087,-0.23449038928805963,0.012543313958532535,-0.08406191176251632,0.07452507674132054,5.0
0.43479533930381636,-0.45552756250184473,-0.24599662623452578,0.022318842839998906,-0.11102550815516574,0.04988412301510533,5.0
0.44784064474847884,-0.4594078186973039,-0.24599662623452578,0.01771859369675298,-0.061092921904509725,0.040027741825159224,5.0
0.4543632974708127,-0.4477670670914628,-0.2575028128281141,0.022318842839998906,-0.06708483322901417,0.040027741825159224,5.0
0.44784064474847884,-0.4632880579122268,-0.2862683548414012,0.024618966973276885,-0.04311719097607676,0.003559127665608968,5.0
0.44131799202614763,-0.45164732328692175,-0.2575028128281141,0.022318842839998906,-0.07607269869323063,0.02031497681554225,5.0
0.43805666566498175,-0.4594078186973039,-0.2575028128281141,0.012543313958532535,-0.09105247243687115,0.01637242396388884,5.0
0.42501136022031927,-0.4710485703031447,-0.27476216824781335,0.018293625168417458,-0.1040349474808109,0.028200082518849066,5.0
0.43479533930381636,-0.474928792537532,-0.27476216824781335,0.021743811368334427,-0.07008079041380662,0.01637242396388884,5.0
0.43805666566498175,-0.4632880579122268,-0.27476216824781335,0.03669461998802123,-0.061092921904509725,-0.0013690636807140101,5.0
0.44457931838731296,-0.4632880579122268,-0.25174974470775924,0.0384197135263247,-0.03612663030172191,0.041999018063148444,5.0
0.43805666566498175,-0.4594078186973039,-0.24024350776129264,0.021168780773359916,-0.06608618083408335,0.0015878514276197494,5.0
0.4315340129426505,-0.4594078186973039,-0.27476216824781335,0.03266940242602603,-0.07407539390336905,0.03608518784648092,5.0
0.44784064474847884,-0.4671683141076856,-0.23449038928805963,0.041869899726241666,-0.03812393204650311,0.01637242396388884,5.0
0.45110197110964684,-0.4671683141076856,-0.17695935561436266,0.04071983765960268,-0.028137415709896037,0.0045447650332536525,5.0
0.42501136022031927,-0.45164732328692175,-0.2575028128281141,0.041869899726241666,-0.031133371372148264,0.009472956379576639,5.0
0.43805666566498175,-0.44000657168108087,-0.22298420269447167,0.01886865664008194,-0.03213202224453887,0.009472956379576639,5.0
0.42827268658148515,-0.4438868278765397,-0.24599662623452578,0.012543313958532535,0.002820787217396224,0.02031497681554225,5.0
0.4315340129426505,-0.43224607627069883,-0.26900904977458023,0.009668158353590082,0.038772250596802345,0.0676256106597082,5.0
0.4315340129426505,-0.44000657168108087,-0.2575028128281141,-0.013908114450854181,0.03377899166722869,0.029185721013518642,5.0
0.44131799202614763,-0.47880904873299085,-0.2862683548414012,-0.0018324640661797537,0.06074258805987813,0.04495593166878235,5.0
0.44457931838731296,-0.4904497833582958,-0.23449038928805963,0.010243189825254555,0.06573584394437136,0.040027741825159224,5.0
0.43805666566498175,-0.4865695611239084,-0.27476216824781335,0.04992033506940457,0.07771966659338028,0.009472956379576639,5.0
0.43805666566498175,-0.4671683141076856,-0.21147796574800506,0.02806915361153884,0.05574933217538492,0.006516041271242871,5.0
0.42827268658148515,-0.45164732328692175,-0.23449038928805963,0.022893874311663388,0.04676146671116842,0.01440114772589962,5.0
0.43479533930381636,-0.4594078186973039,-0.21147796574800506,0.03266940242602603,0.017800562483576948,0.05776922796706223,5.0
0.43805666566498175,-0.474928792537532,-0.25174974470775924,0.04589511739782312,0.024791126203012232,0.03805646408447014,5.0
0.4315340129426505,-0.4594078186973039,-0.22298420269447167,0.04589511739782312,0.016801913133726556,0.04298465543079313,5.0
0.42501136022031927,-0.4671683141076856,-0.21723108422123855,0.03726965102134073,-0.008164381133506616,0.040027741825159224,5.0
0.4315340129426505,-0.4594078186973039,-0.24599662623452578,0.04762021093612659,-0.01615359496406239,0.04495593166878235,5.0
0.42501136022031927,-0.4594078186973039,-0.2575028128281141,0.03266940242602603,-0.06209157429944052,0.04791284677711611,5.0
0.44784064474847884,-0.45552756250184473,-0.2632559313013471,0.028644184864030826,0.021795172063300207,0.04495593166878235,5.0
0.4315340129426505,-0.44000657168108087,-0.2862683548414012,0.01886865664008194,0.08071562377817271,0.04791284677711611,5.0
0.4315340129426505,-0.45552756250184473,-0.24599662623452578,0.018293625168417458,0.07871831898831108,0.03904210295481468,5.0
0.44131799202614763,-0.47880904873299085,-0.20572489762765026,0.03266940242602603,0.04676146671116842,0.04298465543079313,5.0
0.4315340129426505,-0.4865695611239084,-0.20572489762765026,0.04589511739782312,0.030783037527516693,0.0410133791928039,5.0
0.43479533930381636,-0.4710485703031447,-0.21723108422123855,0.04071983765960268,-0.02114685351300098,0.041999018063148444,5.0
0.42827268658148515,-0.4594078186973039,-0.25174974470775924,0.048770272126075605,-0.029136068104826853,0.04495593166878235,5.0
0.44784064474847884,-0.4594078186973039,-0.25174974470775924,0.03381946460225126,0.007814046146969872,0.05086976188544987,5.0
0.43805666566498175,-0.45552756250184473,-0.25174974470775924,0.04071983765960268,0.024791126203012232,0.03214263537050247,5.0
0.43805666566498175,-0.4594078186973039,-0.22873732116770482,0.05452058333596052,0.032780339272297884,0.01440114772589962,5.0
0.43479533930381636,-0.4671683141076856,-0.2632559313013471,0.04244493119790615,0.015803260738795743,0.02031497681554225,5.0
0.43479533930381636,-0.4632880579122268,-0.22298420269447167,0.04589511739782312,0.002820787217396224,0.0045447650332536525,5.0
0.43805666566498175,-0.48268930492844964,-0.21147796574800506,0.04762021093612659,0.006815395274579267,0.007501680141587415,5.0
0.44457931838731296,-0.4710485703031447,-0.22873732116770482,0.046470147992797625,0.010810001809222099,-0.013196722611349214,5.0
0.43479533930381636,-0.4671683141076856,-0.25174974470775924,0.021743811368334427,-0.0021724709509073144,0.026228806280859846,5.0
0.44131799202614763,-0.4632880579122268,-0.23449038928805963,0.00794306569197658,-0.0001751669223157946,0.009472956379576639,5.0
0.44457931838731296,-0.4710485703031447,-0.23449038928805963,0.024618966973276885,0.023792473808081395,-0.004325978789047775,5.0
0.44784064474847884,-0.4477670670914628,-0.21723108422123855,0.024618966973276885,0.026788427947793427,-0.004325978789047775,5.0
0.4315340129426505,-0.4438868278765397,-0.21723108422123855,0.022318842839998906,0.01879921487850776,-0.004325978789047775,5.0
0.43805666566498175,-0.40508433384409404,-0.18271247408759614,0.010243189825254555,-0.006167077485550148,0.010458595249921177,5.0
0.4315340129426505,-0.4594078186973039,-0.1942186606811841,0.019443687235056448,-0.029136068104826853,0.018343700577553027,5.0
0.4315340129426505,-0.4594078186973039,-0.20572489762765026,0.024618966973276885,-0.023144156780322393,0.031156997251507865,5.0
0.44784064474847884,-0.4594078186973039,-0.26900904977458023,0.03554455792138224,-0.009163032767167324,0.005530403903598196,5.0
0.43805666566498175,-0.45164732328692175,-0.2575028128281141,0.04301996179288066,0.0018221363450056185,-0.002354701048358694,5.0
0.43805666566498175,-0.4671683141076856,-0.24599662623452578,0.03381946460225126,-0.02014820187934027,0.01440114772589962,5.0
0.43805666566498175,-0.4594078186973039,-0.21723108422123855,0.011393252768583518,-0.0021724709509073144,-0.005311617659392316,5.0
0.43805666566498175,-0.4710485703031447,-0.24599662623452578,0.022893874311663388,0.006815395274579267,-0.008268531265026219,5.0
0.43479533930381636,-0.4671683141076856,-0.24599662623452578,0.024618966973276885,-0.01116033631996503,-0.0033403399187032345,5.0
0.41522738113681956,-0.45552756250184473,-0.21723108422123855,0.028644184864030826,0.017800562483576948,-0.004325978789047775,5.0
0.4315340129426505,-0.4671683141076856,-0.21147796574800506,0.010818221296919048,-0.024142809175253205,0.011444232617565858,5.0
0.43805666566498175,-0.4594078186973039,-0.19997177915441725,0.015418469563475,-0.006167077485550148,0.006516041271242871,5.0
0.43805666566498175,-0.4594078186973039,-0.19997177915441725,0.01484343809181052,-0.0021724709509073144,0.01341550960690501,5.0
0.43805666566498175,-0.4865695611239084,-0.21723108422123855,0.022893874311663388,-0.009163032767167324,-0.0013690636807140101,5.0
0.43805666566498175,-0.47880904873299085,-0.22873732116770482,0.024618966973276885,0.013805955948934117,-0.007282892394681678,5.0
0.43805666566498175,-0.47880904873299085,-0.22873732116770482,0.03669461998802123,-0.0001751669223157946,-0.00038342631306933193,5.0
0.4184887074979849,-0.474928792537532,-0.1942186606811841,0.04704517946446211,-0.010161684591145559,-0.026010018909629062,5.0
0.4217500338591534,-0.4594078186973039,-0.20572489762765026,0.057970770412567464,-0.061092921904509725,0.011444232617565858,5.0
0.4217500338591534,-0.4594078186973039,-0.20572489762765026,0.06142095573579447,-0.0690821380188758,0.01932933869654764,5.0
0.44457931838731296,-0.4710485703031447,-0.2575028128281141,0.04762021093612659,-0.02214550514666169,-0.022067466433650623,5.0
0.44131799202614763,-0.45552756250184473,-0.23449038928805963,0.03209437133791341,0.021795172063300207,-0.007282892394681678,5.0
0.44131799202614763,-0.45552756250184473,-0.23449038928805963,0.02576902947826086,0.04376550952637598,0.010458595249921177,5.0
0.43805666566498175,-0.4594078186973039,-0.20572489762765026,0.04071983765960268,0.0227938214131506,0.015386785844894231,5.0
0.43805666566498175,-0.45552756250184473,-0.2575028128281141,0.03209437133791341,0.003819439612327037,-0.007282892394681678,5.0
0.43805666566498175,-0.45552756250184473,-0.2575028128281141,0.039569775592963694,-0.007165729499845909,0.01440114772589962,5.0
0.43805666566498175,-0.4632880579122268,-0.2575028128281141,0.04301996179288066,-0.014156291506423443,0.0006022125572752088,5.0
0.44131799202614763,-0.44000657168108087,-0.2575028128281141,0.03726965102134073,-0.01615359496406239,-0.02502438003928454,5.0
0.43805666566498175,-0.43224607627069883,-0.26900904977458023,0.0401448061879382,0.013805955948934117,-0.02403874417433971,5.0
0.4315340129426505,-0.45552756250184473,-0.24024350776129264,0.04071983765960268,-0.0351279779067911,-0.03488076573733021,5.0
0.43805666566498175,-0.45164732328692175,-0.19997177915441725,0.048770272126075605,-0.050107754695512034,-0.011225444870660127,5.0
0.44131799202614763,-0.4594078186973039,-0.24024350776129264,0.041869899726241666,-0.050107754695512034,-0.02305310530399518,5.0
0.4543632974708127,-0.4361263324661577,-0.27476216824781335,0.04071983765960268,-0.0351279779067911,0.0006022125572752088,5.0
0.44784064474847884,-0.45164732328692175,-0.2862683548414012,0.036119588954701735,-0.007165729499845909,-0.01713927508732765,5.0
0.44784064474847884,-0.45164732328692175,-0.23449038928805963,0.04474505533118413,0.002820787217396224,-0.02502438003928454,5.0
0.44784064474847884,-0.45164732328692175,-0.1942186606811841,0.0384197135263247,-0.03013471897721745,-0.027981293644918446,5.0
0.44457931838731296,-0.45164732328692175,-0.21723108422123855,0.05222045920268254,-0.034129325511860285,-0.01713927508732765,5.0
0.43479533930381636,-0.4438868278765397,-0.2575028128281141,0.0384197135263247,-0.031133371372148264,-0.01713927508732765,5.0
0.44784064474847884,-0.4438868278765397,-0.28051528672104636,0.03784468205466022,-0.039122584441433926,-0.014182361481693743,5.0
0.4315340129426505,-0.45164732328692175,-0.2575028128281141,0.04244493119790615,-0.03812393204650311,-0.016153636216983094,5.0
0.44457931838731296,-0.45552756250184473,-0.2575028128281141,0.03036927807357556,-0.034129325511860285,-0.022067466433650623,5.0
0.44457931838731296,-0.4594078186973039,-0.24024350776129264,0.044170023859519646,-0.013157639777603971,-0.019110552828016745,5.0
0.4315340129426505,-0.45552756250184473,-0.21147796574800506,0.04071983765960268,-0.03313067463946968,-0.03093821025595206,5.0
0.43805666566498175,-0.4632880579122268,-0.24024350776129264,0.03899474412129921,-0.05310370883522406,-0.026010018909629062,5.0
0.44131799202614763,-0.45164732328692175,-0.21723108422123855,0.03381946460225126,-0.02014820187934027,-0.028966932515262975,5.0
0.44457931838731296,-0.43224607627069883,-0.24599662623452578,0.019443687235056448,-0.03013471897721745,0.009472956379576639,5.0
0.44457931838731296,-0.4361263324661577,-0.2575028128281141,0.023468904906637895,-0.0001751669223157946,-0.0033403399187032345,5.0
0.44784064474847884,-0.4361263324661577,-0.23449038928805963,0.023468904906637895,-0.01116033631996503,-0.016153636216983094,5.0
0.44457931838731296,-0.45164732328692175,-0.21723108422123855,0.01886865664008194,-0.028137415709896037,-0.0013690636807140101,5.0
0.43805666566498175,-0.4594078186973039,-0.21723108422123855,0.026344060511580357,-0.006167077485550148,-0.02403874417433971,5.0
0.43805666566498175,-0.4438868278765397,-0.21723108422123855,0.03784468205466022,0.0008234839500748077,-0.02403874417433971,5.0
0.43805666566498175,-0.4477670670914628,-0.20572489762765026,0.04359499326454514,-0.008164381133506616,-0.014182361481693743,5.0
0.43479533930381636,-0.4244855808603169,-0.21723108422123855,0.0401448061879382,0.00581674287964845,-0.00038342631306933193,5.0
0.43805666566498175,-0.44000657168108087,-0.1942186606811841,0.04589511739782312,-0.0001751669223157946,-0.007282892394681678,5.0
0.43805666566498175,-0.4438868278765397,-0.20572489762765026,0.05222045920268254,-0.023144156780322393,-0.007282892394681678,5.0
0.43479533930381636,-0.4594078186973039,-0.24599662623452578,0.04244493119790615,-0.03812393204650311,-0.012211083741004651,5.0
0.42827268658148515,-0.4632880579122268,-0.22873732116770482,0.051070398012733526,-0.04111988923129555,-0.039808954078253474,5.0
0.42827268658148515,-0.4361263324661577,-0.20572489762765026,0.04244493119790615,-0.059095620159728524,0.009472956379576639,5.0
0.43479533930381636,-0.43224607627069883,-0.26900904977458023,0.041869899726241666,-0.0031711225845680226,-0.014182361481693743,5.0
0.43805666566498175,-0.4361263324661577,-0.23449038928805963,0.04359499326454514,0.0207965196683694,-0.020096188692961533,5.0
0.42827268658148515,-0.43224607627069883,-0.21723108422123855,0.036119588954701735,0.0048180920072578536,-0.008268531265026219,5.0
0.43805666566498175,-0.43224607627069883,-0.23449038928805963,0.03726965102134073,-0.01116033631996503,0.01440114772589962,5.0
0.44457931838731296,-0.4361263324661577,-0.22298420269447167,0.03784468205466022,-0.017152246597723093,0.017358062082883454,5.0
0.43805666566498175,-0.4477670670914628,-0.22873732116770482,0.053945551864296046,-0.0471117975107196,0.009472956379576639,5.0
0.4315340129426505,-0.44000657168108087,-0.2575028128281141,0.041869899726241666,-0.029136068104826853,-0.02502438003928454,5.0
0.43805666566498175,-0.4477670670914628,-0.24024350776129264,0.03439449563557076,-0.019149550245679558,-0.015167997346638571,5.0
0.4315340129426505,-0.44000657168108087,-0.2575028128281141,0.05452058333596052,-0.018150898612018854,-0.03783767633756443,5.0
0.4315340129426505,-0.44000657168108087,-0.27476216824781335,0.05049536654106905,-0.02114685351300098,-0.022067466433650623,5.0
0.42501136022031927,-0.43224607627069883,-0.24024350776129264,0.048195242407791064,-0.06209157429944052,-0.002354701048358694,5.0
0.42501136022031927,-0.4361263324661577,-0.22298420269447167,0.051070398012733526,-0.09105247243687115,0.008487319011931956,5.0
0.44457931838731296,-0.44000657168108087,-0.20572489762765026,0.05452058333596052,-0.07807000348309227,0.0341139116084917,5.0
0.44131799202614763,-0.44000657168108087,-0.2632559313013471,0.048195242407791064,-0.09105247243687115,0.041999018063148444,5.0
0.43805666566498175,-0.4244855808603169,-0.3150338968546888,0.05222045920268254,-0.09205112483180199,0.027214444399854456,5.0
0.44131799202614763,-0.43224607627069883,-0.2862683548414012,0.04992033506940457,-0.09205112483180199,0.017358062082883454,5.0
0.44457931838731296,-0.4244855808603169,-0.24024350776129264,0.06717126694567939,-0.09205112483180199,0.03805646408447014,5.0
0.4543632974708127,-0.41284482925447596,-0.24024350776129264,0.06717126694567939,-0.10103899029601844,0.01932933869654764,5.0
0.44784064474847884,-0.40508433384409404,-0.27476216824781335,0.051645427731018066,-0.09504708201659441,0.04594157053912689,5.0
0.44784064474847884,-0.41284482925447596,-0.25174974470775924,0.03784468205466022,-0.05709831536986689,0.018343700577553027,5.0
0.44784064474847884,-0.42060532466485795,-0.24599662623452578,0.024618966973276885,-0.05210505644029322,0.04298465543079313,5.0
0.44784064474847884,-0.41672508544993486,-0.24024350776129264,0.0384197135263247,-0.04012123683636474,0.03214263537050247,5.0
0.44784064474847884,-0.41672508544993486,-0.26900904977458023,0.03899474412129921,-0.04910910230058123,0.015386785844894231,5.0
0.44784064474847884,-0.4244855808603169,-0.26900904977458023,0.03439449563557076,-0.0580969677647977,0.0242575297611144,5.0
0.44784064474847884,-0.43224607627069883,-0.2575028128281141,0.036119588954701735,-0.0451144957659384,0.06269741931338518,5.0
0.43805666566498175,-0.41284482925447596,-0.28051528672104636,0.041869899726241666,-0.03313067463946968,-0.002354701048358694,5.0
0.4315340129426505,-0.41672508544993486,-0.27476216824781335,0.04129486913126716,-0.0551010136250857,0.02031497681554225,5.0
0.4315340129426505,-0.44000657168108087,-0.2575028128281141,0.04244493119790615,-0.04012123683636474,0.04397029430113766,5.0
0.43805666566498175,-0.41284482925447596,-0.27476216824781335,0.041869899726241666,-0.05110640404536244,0.02524316797402775,5.0
0.44457931838731296,-0.41672508544993486,-0.24599662623452578,0.048770272126075605,-0.04111988923129555,0.0410133791928039,5.0
0.44131799202614763,-0.41284482925447596,-0.2977745917878678,0.03669461998802123,-0.03712528117411251,0.04889848414476079,5.0
0.43805666566498175,-0.40508433384409404,-0.2632559313013471,0.029794246930669815,-0.03213202224453887,0.04298465543079313,5.0
0.43805666566498175,-0.41284482925447596,-0.27476216824781335,0.022318842839998906,-0.0471117975107196,0.05481231436142831,5.0
0.43479533930381636,-0.41284482925447596,-0.3265401338011554,0.022318842839998906,-0.044115843371007574,0.05776922796706223,5.0
0.43805666566498175,-0.42836583705577586,-0.3150338968546888,0.03381946460225126,-0.06209157429944052,0.04988412301510533,5.0
0.43805666566498175,-0.42836583705577586,-0.2862683548414012,0.051645427731018066,-0.08306325936758549,0.04791284677711611,5.0
0.44131799202614763,-0.43224607627069883,-0.2977745917878678,0.048770272126075605,-0.06808348562394498,0.035099550478836235,5.0
0.44131799202614763,-0.43224607627069883,-0.2575028128281141,0.04359499326454514,-0.07407539390336905,0.046927209409471426,5.0
0.44784064474847884,-0.4361263324661577,-0.2575028128281141,0.02691909154489985,-0.07407539390336905,0.04594157053912689,5.0
0.43805666566498175,-0.4244855808603169,-0.2862683548414012,0.022318842839998906,-0.050107754695512034,0.04988412301510533,5.0
0.44131799202614763,-0.42836583705577586,-0.28051528672104636,0.01771859369675298,-0.044115843371007574,0.058754866837406744,5.0
0.44131799202614763,-0.42836583705577586,-0.27476216824781335,0.01426840837352598,-0.0351279779067911,0.07846763222269869,5.0
0.44784064474847884,-0.43224607627069883,-0.2862683548414012,0.02806915361153884,-0.05310370883522406,0.06368305818372975,5.0
0.44784064474847884,-0.45164732328692175,-0.2632559313013471,0.03496952688806275,-0.06309022669437135,0.03608518784648092,5.0
0.44784064474847884,-0.4361263324661577,-0.24024350776129264,0.03381946460225126,-0.0471117975107196,0.03608518784648092,5.0
0.44784064474847884,-0.44000657168108087,-0.26900904977458023,0.023468904906637895,-0.04111988923129555,0.061711780443040674,5.0
0.44457931838731296,-0.45164732328692175,-0.2977745917878678,0.03266940242602603,-0.04211853858114595,0.04495593166878235,5.0
0.44131799202614763,-0.4477670670914628,-0.2977745917878678,0.033244433568931774,-0.02614011244257462,0.0676256106597082,5.0
0.44457931838731296,-0.44000657168108087,-0.27476216824781335,0.029794246930669815,-0.0351279779067911,0.030171359132513252,5.0
0.43805666566498175,-0.45552756250184473,-0.2862683548414012,0.0384197135263247,-0.04311719097607676,0.046927209409471426,5.0
0.43805666566498175,-0.45552756250184473,-0.2862683548414012,0.03266940242602603,-0.04611314816086921,0.03608518784648092,5.0
0.43805666566498175,-0.4632880579122268,-0.27476216824781335,0.02691909154489985,-0.02214550514666169,0.046927209409471426,5.0
0.43479533930381636,-0.45164732328692175,-0.3092807783814557,0.021743811368334427,-0.023144156780322393,0.05086976188544987,5.0
0.4315340129426505,-0.45164732328692175,-0.2862683548414012,0.025193998444941367,-0.018150898612018854,0.026228806280859846,5.0
0.44784064474847884,-0.4671683141076856,-0.2977745917878678,0.041869899726241666,-0.009163032767167324,0.03707082671682546,5.0
0.43805666566498175,-0.4671683141076856,-0.2862683548414012,0.05739573894090298,-0.023144156780322393,0.03904210295481468,5.0
0.43805666566498175,-0.44000657168108087,-0.2920214733146347,0.04359499326454514,-0.06808348562394498,0.041999018063148444,5.0
0.44131799202614763,-0.43224607627069883,-0.3265401338011554,0.04301996179288066,-0.04012123683636474,0.058754866837406744,5.0
0.44457931838731296,-0.4594078186973039,-0.3092807783814557,0.04704517946446211,-0.028137415709896037,0.05185540075579441,5.0
0.4543632974708127,-0.45164732328692175,-0.2920214733146347,0.04301996179288066,-0.01116033631996503,0.0242575297611144,5.0
0.44784064474847884,-0.4594078186973039,-0.2575028128281141,0.0384197135263247,0.0008234839500748077,0.0341139116084917,5.0
0.43479533930381636,-0.45164732328692175,-0.26900904977458023,0.051070398012733526,-0.03812393204650311,0.029185721013518642,5.0
0.43479533930381636,-0.4594078186973039,-0.2862683548414012,0.03439449563557076,-0.028137415709896037,0.011444232617565858,5.0
0.44131799202614763,-0.4671683141076856,-0.28051528672104636,0.03266940242602603,-0.05110640404536244,0.05284103662073923,5.0
0.45110197110964684,-0.4477670670914628,-0.2632559313013471,0.029219215897350322,-0.018150898612018854,0.03608518784648092,5.0
0.4543632974708127,-0.4594078186973039,-0.3092807783814557,0.03266940242602603,-0.0021724709509073144,0.028200082518849066,5.0
0.44131799202614763,-0.45164732328692175,-0.2862683548414012,0.03554455792138224,-0.001173819317246608,0.040027741825159224,5.0
0.44131799202614763,-0.4594078186973039,-0.2632559313013471,0.0401448061879382,-0.008164381133506616,0.0242575297611144,5.0
0.4315340129426505,-0.4594078186973039,-0.28051528672104636,0.04589511739782312,-0.01615359496406239,0.05185540075579441,5.0
0.43805666566498175,-0.4632880579122268,-0.2862683548414012,0.04359499326454514,-0.03213202224453887,0.031156997251507865,5.0
0.44131799202614763,-0.45164732328692175,-0.2977745917878678,0.04129486913126716,-0.013157639777603971,0.021300615122374345,5.0
0.44784064474847884,-0.45552756250184473,-0.3150338968546888,0.04934530359774009,-0.006167077485550148,0.01637242396388884,5.0
0.4315340129426505,-0.4361263324661577,-0.3207870153279223,0.05279549067434703,-0.006167077485550148,0.03707082671682546,5.0
0.43805666566498175,-0.45552756250184473,-0.26900904977458023,0.03669461998802123,-0.0001751669223157946,0.029185721013518642,5.0
0.43805666566498175,-0.4594078186973039,-0.25174974470775924,0.05049536654106905,-0.02614011244257462,0.012429871487910398,5.0
0.43805666566498175,-0.4632880579122268,-0.2862683548414012,0.05452058333596052,-0.050107754695512034,0.06565433592441883,5.0
0.43805666566498175,-0.45164732328692175,-0.2575028128281141,0.0694713928323373,-0.059095620159728524,0.03312827348949709,5.0
0.45110197110964684,-0.45552756250184473,-0.3092807783814557,0.05452058333596052,-0.03812393204650311,-0.006297253524337137,5.0
0.44131799202614763,-0.45164732328692175,-0.26900904977458023,0.05279549067434703,-0.028137415709896037,0.0015878514276197494,5.0
0.44131799202614763,-0.4361263324661577,-0.2632559313013471,0.04359499326454514,-0.008164381133506616,0.035099550478836235,5.0
0.44131799202614763,-0.44000657168108087,-0.27476216824781335,0.029794246930669815,0.0008234839500748077,0.026228806280859846,5.0
0.43805666566498175,-0.45164732328692175,-0.3150338968546888,0.03439449563557076,-0.018150898612018854,0.053826675491083775,5.0
0.43805666566498175,-0.45164732328692175,-0.3265401338011554,0.03554455792138224,-0.02214550514666169,0.058754866837406744,5.0
0.43805666566498175,-0.4671683141076856,-0.3207870153279223,0.048770272126075605,-0.027138763314965224,0.029185721013518642,5.0
0.44784064474847884,-0.4477670670914628,-0.3265401338011554,0.046470147992797625,-0.03013471897721745,-0.0013690636807140101,5.0
0.45762462383197805,-0.45164732328692175,-0.3092807783814557,0.046470147992797625,-0.001173819317246608,-0.0033403399187032345,5.0
0.44784064474847884,-0.45164732328692175,-0.2977745917878678,0.029794246930669815,0.010810001809222099,0.01440114772589962,5.0
0.44784064474847884,-0.43224607627069883,-0.24599662623452578,0.048770272126075605,-0.008164381133506616,0.03707082671682546,5.0
0.43805666566498175,-0.4594078186973039,-0.21723108422123855,0.04129486913126716,-0.010161684591145559,0.027214444399854456,5.0
0.42827268658148515,-0.44000657168108087,-0.27476216824781335,0.056245677750953973,-0.04211853858114595,0.03608518784648092,5.0
0.43479533930381636,-0.45164732328692175,-0.27476216824781335,0.05682070746923849,-0.017152246597723093,0.035099550478836235,5.0
0.44784064474847884,-0.4438868278765397,-0.2977745917878678,0.04532008680284861,-0.03313067463946968,0.05776922796706223,5.0
0.44784064474847884,-0.4438868278765397,-0.2977745917878678,0.03726965102134073,-0.014156291506423443,0.05481231436142831,5.0
0.45110197110964684,-0.4438868278765397,-0.27476216824781335,0.044170023859519646,-0.01116033631996503,0.05481231436142831,5.0
0.44784064474847884,-0.43224607627069883,-0.30352771026110087,0.053945551864296046,-0.0021724709509073144,0.021300615122374345,5.0
0.44784064474847884,-0.4594078186973039,-0.27476216824781335,0.057970770412567464,-0.0021724709509073144,0.01637242396388884,5.0
0.45110197110964684,-0.44000657168108087,-0.27476216824781335,0.03554455792138224,-0.024142809175253205,0.04298465543079313,5.0
0.44457931838731296,-0.4477670670914628,-0.3150338968546888,0.022893874311663388,-0.03612663030172191,0.05481231436142831,5.0
0.44457931838731296,-0.45164732328692175,-0.2920214733146347,0.02576902947826086,-0.03712528117411251,0.030171359132513252,5.0
0.43479533930381636,-0.4594078186973039,-0.3265401338011554,0.030944309161688176,-0.03812393204650311,0.027214444399854456,5.0
0.43479533930381636,-0.45164732328692175,-0.3322932019215102,0.039569775592963694,-0.014156291506423443,0.022286253335287696,5.0
0.44131799202614763,-0.45552756250184473,-0.2977745917878678,0.03899474412129921,-0.027138763314965224,0.04594157053912689,5.0
0.44131799202614763,-0.45164732328692175,-0.3265401338011554,0.04129486913126716,-0.01615359496406239,0.017358062082883454,5.0
0.43805666566498175,-0.4477670670914628,-0.3265401338011554,0.02806915361153884,-0.009163032767167324,0.03214263537050247,5.0
0.44131799202614763,-0.4594078186973039,-0.3380463203947433,0.0384197135263247,-0.04012123683636474,0.03214263537050247,5.0
0.46088595019314393,-0.45552756250184473,-0.34379943886797637,0.029219215897350322,-0.010161684591145559,0.011444232617565858,5.0
0.4543632974708127,-0.4671683141076856,-0.3495525573412098,0.01656853250680396,-0.01615359496406239,0.01440114772589962,5.0
0.43479533930381636,-0.45164732328692175,-0.34379943886797637,0.02806915361153884,0.002820787217396224,0.008487319011931956,5.0
0.44784064474847884,-0.4594078186973039,-0.3265401338011554,0.028644184864030826,-0.02114685351300098,0.026228806280859846,5.0
0.44131799202614763,-0.44000657168108087,-0.2920214733146347,0.02806915361153884,-0.02514146004764381,0.031156997251507865,5.0
0.44784064474847884,-0.45164732328692175,-0.2977745917878678,0.01656853250680396,-0.03013471897721745,0.012429871487910398,5.0
0.44131799202614763,-0.4632880579122268,-0.2862683548414012,0.04129486913126716,-0.013157639777603971,0.01932933869654764,5.0
0.43805666566498175,-0.44000657168108087,-0.27476216824781335,0.03266940242602603,-0.0031711225845680226,0.018343700577553027,5.0
0.43805666566498175,-0.4477670670914628,-0.2977745917878678,0.04474505533118413,-0.009163032767167324,0.01637242396388884,5.0
0.45110197110964684,-0.4671683141076856,-0.2977745917878678,0.04532008680284861,-0.010161684591145559,0.03904210295481468,5.0
0.43805666566498175,-0.4477670670914628,-0.3380463203947433,0.051070398012733526,-0.03213202224453887,0.007501680141587415,5.0
0.43479533930381636,-0.4477670670914628,-0.3207870153279223,0.04359499326454514,-0.02614011244257462,0.007501680141587415,5.0
0.43805666566498175,-0.45552756250184473,-0.3092807783814557,0.056245677750953973,-0.024142809175253205,-0.01713927508732765,5.0
0.44784064474847884,-0.45552756250184473,-0.2977745917878678,0.0665962354740149,-0.0451144957659384,0.02031497681554225,5.0
0.44784064474847884,-0.4632880579122268,-0.3092807783814557,0.051070398012733526,-0.03313067463946968,0.04889848414476079,5.0
0.45110197110964684,-0.4632880579122268,-0.2977745917878678,0.03381946460225126,0.019797867273438574,0.018343700577553027,5.0
0.43805666566498175,-0.4361263324661577,-0.2920214733146347,0.022318842839998906,0.0018221363450056185,0.03608518784648092,5.0
0.42827268658148515,-0.4438868278765397,-0.27476216824781335,0.029219215897350322,-0.01615359496406239,0.03805646408447014,5.0
0.43805666566498175,-0.4632880579122268,-0.30352771026110087,0.05682070746923849,-0.013157639777603971,0.03312827348949709,5.0
0.45762462383197805,-0.4632880579122268,-0.2977745917878678,0.057970770412567464,-0.018150898612018854,0.0025734887952644303,5.0
0.4543632974708127,-0.4632880579122268,-0.34379943886797637,0.03726965102134073,0.003819439612327037,-0.0013690636807140101,5.0
0.44784064474847884,-0.4594078186973039,-0.3265401338011554,0.03496952688806275,-0.009163032767167324,0.012429871487910398,5.0
0.43805666566498175,-0.4594078186973039,-0.2977745917878678,0.020593749301695437,0.002820787217396224,-0.0033403399187032345,5.0
0.43805666566498175,-0.45552756250184473,-0.2920214733146347,0.0384197135263247,0.008812698541900683,0.03707082671682546,5.0
0.43805666566498175,-0.4594078186973039,-0.2977745917878678,0.05739573894090298,-0.024142809175253205,0.017358062082883454,5.0
0.44784064474847884,-0.4594078186973039,-0.2862683548414012,0.057970770412567464,-0.03013471897721745,-0.0033403399187032345,5.0
0.45110197110964684,-0.4594078186973039,-0.2977745917878678,0.04532008680284861,-0.03213202224453887,0.0045447650332536525,5.0
0.44457931838731296,-0.4632880579122268,-0.3092807783814557,0.048195242407791064,0.011808654204152912,0.0006022125572752088,5.0
0.44457931838731296,-0.44000657168108087,-0.30352771026110087,0.039569775592963694,-0.019149550245679558,0.022286253335287696,5.0
0.44784064474847884,-0.44000657168108087,-0.2632559313013471,0.03899474412129921,-0.018150898612018854,0.0045447650332536525,5.0
0.44457931838731296,-0.4477670670914628,-0.30352771026110087,0.046470147992797625,-0.014156291506423443,0.0006022125572752088,5.0
0.44457931838731296,-0.45552756250184473,-0.2977745917878678,0.05452058333596052,-0.024142809175253205,0.017358062082883454,5.0
0.44784064474847884,-0.4438868278765397,-0.3150338968546888,0.04589511739782312,-0.015154943330401677,0.006516041271242871,5.0
0.45762462383197805,-0.4594078186973039,-0.3150338968546888,0.036119588954701735,-0.015154943330401677,0.030171359132513252,5.0
0.44784064474847884,-0.4361263324661577,-0.3150338968546888,0.04244493119790615,-0.017152246597723093,0.009472956379576639,5.0
0.44784064474847884,-0.4594078186973039,-0.30352771026110087,0.05222045920268254,-0.010161684591145559,-0.01713927508732765,5.0
0.45110197110964684,-0.45164732328692175,-0.2862683548414012,0.055670646279289485,-0.004169774218228733,-0.019110552828016745,5.0
0.43805666566498175,-0.4632880579122268,-0.26900904977458023,0.04301996179288066,-0.018150898612018854,-0.005311617659392316,5.0
0.44784064474847884,-0.45164732328692175,-0.2575028128281141,0.04992033506940457,-0.01615359496406239,-0.0033403399187032345,5.0
0.44784064474847884,-0.4361263324661577,-0.2977745917878678,0.04704517946446211,-0.023144156780322393,-0.004325978789047775,5.0
0.45110197110964684,-0.45164732328692175,-0.2977745917878678,0.03381946460225126,-0.004169774218228733,0.022286253335287696,5.0
0.43805666566498175,-0.44000657168108087,-0.30352771026110087,0.04359499326454514,-0.001173819317246608,0.021300615122374345,5.0
0.45110197110964684,-0.45164732328692175,-0.30352771026110087,0.044170023859519646,-0.0031711225845680226,0.006516041271242871,5.0
0.44784064474847884,-0.4477670670914628,-0.2920214733146347,0.04934530359774009,-0.0001751669223157946,-0.00038342631306933193,5.0
0.44457931838731296,-0.45552756250184473,-0.3380463203947433,0.051070398012733526,0.006815395274579267,0.015386785844894231,5.0
0.44457931838731296,-0.45552756250184473,-0.2862683548414012,0.044170023859519646,-0.008164381133506616,0.005530403903598196,5.0
0.44457931838731296,-0.45552756250184473,-0.2862683548414012,0.04474505533118413,-0.02114685351300098,0.010458595249921177,5.0
0.43479533930381636,-0.45164732328692175,-0.2862683548414012,0.0401448061879382,-0.028137415709896037,0.02031497681554225,5.0
0.45110197110964684,-0.4438868278765397,-0.3150338968546888,0.048195242407791064,-0.03013471897721745,0.0045447650332536525,5.0
0.45110197110964684,-0.4438868278765397,-0.3150338968546888,0.057970770412567464,-0.039122584441433926,-0.0033403399187032345,5.0
0.44457931838731296,-0.4477670670914628,-0.2977745917878678,0.04992033506940457,-0.059095620159728524,0.01932933869654764,5.0
0.44457931838731296,-0.4477670670914628,-0.2977745917878678,0.048770272126075605,-0.07607269869323063,0.003559127665608968,5.0
0.44131799202614763,-0.4477670670914628,-0.3092807783814557,0.04532008680284861,-0.05210505644029322,-0.007282892394681678,5.0
0.44131799202614763,-0.4477670670914628,-0.3150338968546888,0.055095614807625,-0.03313067463946968,-0.007282892394681678,5.0
0.44131799202614763,-0.4477670670914628,-0.2977745917878678,0.026344060511580357,-0.04211853858114595,0.005530403903598196,5.0
0.44131799202614763,-0.44000657168108087,-0.2920214733146347,0.025193998444941367,-0.02014820187934027,0.01637242396388884,5.0
0.42827268658148515,-0.44000657168108087,-0.2632559313013471,0.025193998444941367,0.0227938214131506,0.04495593166878235,5.0
0.43805666566498175,-0.4477670670914628,-0.2862683548414012,0.036119588954701735,0.01280730507654351,0.04791284677711611,5.0
0.44131799202614763,-0.4594078186973039,-0.2862683548414012,0.055095614807625,-0.02214550514666169,0.017358062082883454,5.0
0.44784064474847884,-0.45164732328692175,-0.2862683548414012,0.06717126694567939,-0.0471117975107196,0.028200082518849066,5.0
0.43805666566498175,-0.43224607627069883,-0.3265401338011554,0.05279549067434703,-0.048110449905650395,0.02524316797402775,5.0
0.43479533930381636,-0.4361263324661577,-0.26900904977458023,0.06487114456578134,-0.017152246597723093,0.0242575297611144,5.0
0.44784064474847884,-0.4361263324661577,-0.3092807783814557,0.055670646279289485,0.04076955234158355,-0.015167997346638571,5.0
0.44784064474847884,-0.44000657168108087,-0.2977745917878678,0.044170023859519646,0.03977089994665275,-0.011225444870660127,5.0
0.44784064474847884,-0.44000657168108087,-0.3150338968546888,0.03726965102134073,0.030783037527516693,0.0025734887952644303,5.0
0.4315340129426505,-0.4361263324661577,-0.2862683548414012,0.03381946460225126,-0.015154943330401677,0.01341550960690501,5.0
0.44784064474847884,-0.42060532466485795,-0.3380463203947433,0.04244493119790615,-0.02614011244257462,0.015386785844894231,5.0
0.44457931838731296,-0.43224607627069883,-0.3322932019215102,0.048195242407791064,-0.0021724709509073144,0.007501680141587415,5.0
0.44784064474847884,-0.42060532466485795,-0.2862683548414012,0.020593749301695437,0.0018221363450056185,-0.00038342631306933193,5.0
0.4543632974708127,-0.43224607627069883,-0.3380463203947433,0.023468904906637895,-0.0001751669223157946,-0.009254170135370771,5.0
0.4543632974708127,-0.45552756250184473,-0.3207870153279223,0.01599350103513948,0.011808654204152912,-0.015167997346638571,5.0
0.44131799202614763,-0.4477670670914628,-0.2862683548414012,0.04474505533118413,-0.023144156780322393,-0.018124913957672188,5.0
0.43805666566498175,-0.44000657168108087,-0.2862683548414012,0.057970770412567464,-0.02014820187934027,-0.019110552828016745,5.0
0.44131799202614763,-0.4477670670914628,-0.2862683548414012,0.055670646279289485,-0.014156291506423443,-0.011225444870660127,5.0
0.44131799202614763,-0.4477670670914628,-0.2862683548414012,0.055670646279289485,0.003819439612327037,-0.015167997346638571,5.0
0.44784064474847884,-0.45164732328692175,-0.3265401338011554,0.0625710186791234,0.0008234839500748077,-0.007282892394681678,5.0
0.44784064474847884,-0.4477670670914628,-0.3150338968546888,0.053370522146011505,-0.009163032767167324,-0.026010018909629062,5.0
0.44784064474847884,-0.45164732328692175,-0.27476216824781335,0.04992033506940457,-0.014156291506423443,0.008487319011931956,5.0
0.43805666566498175,-0.44000657168108087,-0.2862683548414012,0.053370522146011505,-0.001173819317246608,-0.0033403399187032345,5.0
0.43479533930381636,-0.43224607627069883,-0.30352771026110087,0.06199598720745894,-0.004169774218228733,0.01341550960690501,5.0
0.44131799202614763,-0.4361263324661577,-0.3150338968546888,0.030944309161688176,0.008812698541900683,0.022286253335287696,5.0
0.45110197110964684,-0.4477670670914628,-0.2920214733146347,0.021168780773359916,0.017800562483576948,0.003559127665608968,5.0
0.44784064474847884,-0.44000657168108087,-0.2977745917878678,0.03266940242602603,0.009811349414291284,-0.0013690636807140101,5.0
0.44784064474847884,-0.4438868278765397,-0.30352771026110087,0.04129486913126716,-0.01116033631996503,-0.021081827563306094,5.0
0.44131799202614763,-0.44000657168108087,-0.3150338968546888,0.0384197135263247,-0.04910910230058123,0.006516041271242871,5.0
0.43805666566498175,-0.4594078186973039,-0.3380463203947433,0.044170023859519646,-0.0551010136250857,0.011444232617565858,5.0
0.44784064474847884,-0.4438868278765397,-0.30352771026110087,0.06429611309411687,-0.03812393204650311,-0.009254170135370771,5.0
0.44131799202614763,-0.45164732328692175,-0.3150338968546888,0.05279549067434703,-0.03013471897721745,-0.008268531265026219,5.0
0.4543632974708127,-0.44000657168108087,-0.2920214733146347,0.0625710186791234,-0.001173819317246608,0.012429871487910398,5.0
0.44784064474847884,-0.42836583705577586,-0.3150338968546888,0.06084592601750992,-0.014156291506423443,0.04988412301510533,5.0
0.43805666566498175,-0.42836583705577586,-0.2920214733146347,0.06027089454584543,-0.08106595457772386,0.06663997178936364,5.0
0.43805666566498175,-0.42060532466485795,-0.25174974470775924,0.051645427731018066,-0.11502011164472815,0.06959688840039728,5.0
0.43805666566498175,-0.42060532466485795,-0.24599662623452578,0.033244433568931774,-0.11701741643458978,0.04791284677711611,5.0
0.43805666566498175,-0.42836583705577586,-0.3150338968546888,0.03036927807357556,-0.15396753068638647,0.0922665643859234,5.0
0.44784064474847884,-0.4477670670914628,-0.2575028128281141,0.055670646279289485,-0.11402146533995819,0.06072614457809584,5.0
0.45110197110964684,-0.4361263324661577,-0.2862683548414012,0.05682070746923849,-0.04611314816086921,0.02031497681554225,5.0
0.43805666566498175,-0.42060532466485795,-0.3265401338011554,0.05682070746923849,-0.019149550245679558,0.05284103662073923,5.0
0.44784064474847884,-0.41284482925447596,-0.3150338968546888,0.04762021093612659,0.008812698541900683,0.026228806280859846,5.0
0.43805666566498175,-0.4089645900395529,-0.24024350776129264,0.01426840837352598,-0.008164381133506616,0.0242575297611144,5.0
0.43805666566498175,-0.42836583705577586,-0.3092807783814557,0.004492878615369638,-0.007165729499845909,-0.012211083741004651,5.0
0.43805666566498175,-0.42836583705577586,-0.30352771026110087,0.01484343809181052,-0.019149550245679558,-0.0033403399187032345,5.0
0.44784064474847884,-0.44000657168108087,-0.34379943886797637,0.03266940242602603,0.03377899166722869,-0.014182361481693743,5.0
0.4543632974708127,-0.43224607627069883,-0.3150338968546888,0.029219215897350322,0.03977089994665275,-0.044737142419176736,5.0
0.4543632974708127,-0.43224607627069883,-0.3150338968546888,0.017143563101778468,-0.07008079041380662,-0.04670842015986582,5.0
0.5000216381749185,-0.44000657168108087,-0.3553056254615647,0.044170023859519646,-0.1749392187996119,-0.11373181525689907,5.0
0.4771925819989749,-0.4904497833582958,-0.34379943886797637,0.05452058333596052,-0.11102550815516574,-0.22412330862749325,5.0
0.43805666566498175,-0.4865695611239084,-0.3265401338011554,0.04704517946446211,0.0048180920072578536,-0.22313765773554983,5.0
0.41522738113681956,-0.4594078186973039,-0.3265401338011554,0.039569775592963694,0.1366401213533332,-0.12358820396034448,5.0
0.4021820756921571,-0.4244855808603169,-0.3553056254615647,0.039569775592963694,0.14562798072738886,-0.04769405903021038,5.0
0.41522738113681956,-0.40508433384409404,-0.34379943886797637,0.020018718706720926,0.07771966659338028,0.009472956379576639,5.0
0.43805666566498175,-0.42060532466485795,-0.34379943886797637,0.00909312863530554,-0.001173819317246608,0.030171359132513252,5.0
0.46088595019314393,-0.44000657168108087,-0.3495525573412098,0.01771859369675298,-0.0351279779067911,0.007501680141587415,5.0
0.4674086029154757,-0.44000657168108087,-0.3380463203947433,0.024043936378302377,0.0018221363450056185,0.010458595249921177,5.0
0.44457931838731296,-0.43224607627069883,-0.3265401338011554,0.02576902947826086,0.02778708034272423,0.035099550478836235,5.0
0.4184887074979849,-0.4244855808603169,-0.2920214733146347,0.039569775592963694,0.0207965196683694,0.05481231436142831,5.0
0.43805666566498175,-0.4244855808603169,-0.3207870153279223,0.03899474412129921,0.007814046146969872,0.04791284677711611,5.0
0.44784064474847884,-0.42060532466485795,-0.3150338968546888,0.055095614807625,-0.02614011244257462,0.022286253335287696,5.0
0.4543632974708127,-0.40508433384409404,-0.3265401338011554,0.06602120400235044,-0.04311719097607676,0.01932933869654764,5.0
0.44784064474847884,-0.40508433384409404,-0.3092807783814557,0.03266940242602603,0.0008234839500748077,0.01440114772589962,5.0
0.4315340129426505,-0.40508433384409404,-0.3150338968546888,0.03496952688806275,-0.006167077485550148,0.041999018063148444,5.0
0.4315340129426505,-0.41672508544993486,-0.2977745917878678,0.033244433568931774,-0.03013471897721745,0.04495593166878235,5.0
0.45762462383197805,-0.41672508544993486,-0.34379943886797637,0.02691909154489985,-0.009163032767167324,0.006516041271242871,5.0
0.44784064474847884,-0.40508433384409404,-0.34379943886797637,0.021168780773359916,0.0008234839500748077,0.005530403903598196,5.0
0.43805666566498175,-0.4244855808603169,-0.2920214733146347,0.003342817425420621,0.026788427947793427,0.04594157053912689,5.0
0.43805666566498175,-0.4244855808603169,-0.2920214733146347,-0.016208240337512107,0.05175472259566164,0.09325220325626792,5.0
0.4543632974708127,-0.40120409462917084,-0.3207870153279223,0.0004676618204781721,0.028785732737655053,0.07748199335235416,5.0
0.44784064474847884,-0.381802847612948,-0.3265401338011554,-0.0012574325945152805,0.011808654204152912,0.03805646408447014,5.0
0.44784064474847884,-0.381802847612948,-0.3265401338011554,0.00794306569197658,-0.06408887604422174,0.03312827348949709,5.0
0.4771925819989749,-0.4089645900395529,-0.3553056254615647,0.010243189825254555,-0.1829284379590584,0.04594157053912689,5.0
0.5098056172584172,-0.4632880579122268,-0.3265401338011554,0.022893874311663388,-0.2228745093956476,-0.039808954078253474,5.0
0.5098056172584172,-0.4632880579122268,-0.3265401338011554,0.03899474412129921,-0.07507404629829983,-0.15315734602748296,5.0
0.4119660547756542,-0.4671683141076856,-0.3207870153279223,0.06429611309411687,0.03777359820187152,-0.17188447254243033,5.0
0.39239809660865865,-0.4089645900395529,-0.3668118624080309,0.04532008680284861,0.09669404991674402,-0.04867969790055491,5.0
0.39239809660865865,-0.4089645900395529,-0.3668118624080309,0.027494122578219343,0.07672101419844944,0.011444232617565858,5.0
0.4184887074979849,-0.41284482925447596,-0.3265401338011554,-0.007582775276064678,0.024791126203012232,0.040027741825159224,5.0
0.45762462383197805,-0.4477670670914628,-0.39557737924487907,-0.0035575549744133127,0.003819439612327037,0.035099550478836235,5.0
0.44784064474847884,-0.4477670670914628,-0.39557737924487907,-0.005857680861071238,0.010810001809222099,0.05481231436142831,5.0
0.44784064474847884,-0.4477670670914628,-0.39557737924487907,0.036119588954701735,-0.10703090466560336,0.09423784212661247,5.0
0.45762462383197805,-0.41672508544993486,-0.3092807783814557,0.14077524973085434,-0.3157491212226048,0.14549102731973196,5.0
0.49349898545258725,-0.4594078186973039,-0.34379943886797637,0.17527710997664409,-0.23186236876970323,0.12479262306409548,5.0
0.49349898545258725,-0.4594078186973039,-0.34379943886797637,0.23163015211864454,-0.07807000348309227,0.07551071561166507,5.0
0.4771925819989749,-0.5137312865699778,-0.3553056254615647,0.24888109626857893,0.04176820473651435,-0.002354701048358694,5.0
0.44784064474847884,-0.4943300395537549,-0.40708359101490643,0.21150407165094703,0.22052686162591306,-0.07134937989688048,5.0
0.44131799202614763,-0.45552756250184473,-0.45886155656824834,0.1758521484618283,0.25348237847830823,-0.05755044172285633,5.0
0.45110197110964684,-0.42060532466485795,-0.40708359101490643,0.1269745014244266,0.2504864091131941,-0.1097892717971198,5.0
0.4543632974708127,-0.42060532466485795,-0.4013304977181126,0.09477276005177501,0.2584756282726406,-0.09204778415251692,5.0
0.44457931838731296,-0.44000657168108087,-0.3265401338011554,0.15630109245227553,0.20354978309241095,-0.06937810215619139,5.0
0.4315340129426505,-0.43224607627069883,-0.2632559313013471,0.23163015211864454,0.114669780845177,-0.01713927508732765,5.0
0.43479533930381636,-0.41284482925447596,-0.2920214733146347,0.25290630955671056,0.009811349414291284,-0.006297253524337137,5.0
0.44784064474847884,-0.44000657168108087,-0.34379943886797637,0.262681837561487,0.011808654204152912,-0.01713927508732765,5.0
0.45762462383197805,-0.4594078186973039,-0.3610587439347978,0.2437058060100789,0.09569539752181322,-0.006297253524337137,5.0
0.44457931838731296,-0.4477670670914628,-0.3207870153279223,0.24198071860860523,0.06074258805987813,0.007501680141587415,5.0
0.43805666566498175,-0.44000657168108087,-0.2977745917878678,0.20977898424947336,0.1006886594964673,0.01341550960690501,5.0
0.42501136022031927,-0.41672508544993486,-0.22298420269447167,0.14422543154732148,0.04776011301593841,0.06663997178936364,5.0
0.40544340205332297,-0.37792260839802494,-0.22298420269447167,0.11087362723134092,-0.009163032767167324,0.10113730820822481,5.0
0.4217500338591534,-0.366281856792184,-0.23449038928805963,0.0625710186791234,-0.06508752843915254,0.15436177715283284,5.0
0.4315340129426505,-0.354641122166879,-0.23449038928805963,0.021743811368334427,-0.050107754695512034,0.16224687609399027,5.0
0.44457931838731296,-0.37404235220256604,-0.22298420269447167,0.020018718706720926,-0.01615359496406239,0.13563465063788543,5.0
0.4315340129426505,-0.3934435992187889,-0.22298420269447167,-0.0029825235027488395,-0.04211853858114595,0.04988412301510533,5.0
0.45762462383197805,-0.40120409462917084,-0.23449038928805963,-0.00010736965118631424,-0.04910910230058123,-0.020096188692961533,5.0
0.49023765909142086,-0.42060532466485795,-0.28051528672104636,0.004492878615369638,-0.02014820187934027,-0.17188447254243033,5.0
0.4837150063690896,-0.44000657168108087,-0.2862683548414012,0.004492878615369638,0.04975741780580005,-0.24482171288312976,5.0
0.45110197110964684,-0.4244855808603169,-0.23449038928805963,-0.005857680861071238,0.07172775831395624,-0.26650574398751187,5.0
0.39565942296982426,-0.385683103808407,-0.20572489762765026,-0.06566091533981845,0.16859697363047588,-0.1699131948017413,5.0
0.36956904043271327,-0.3585213613818021,-0.26900904977458023,-0.09326241195267396,0.07771966659338028,0.0025734887952644303,5.0
0.40544340205332297,-0.385683103808407,-0.2977745917878678,-0.09441247489600292,0.03777359820187152,0.029185721013518642,5.0
0.44131799202614763,-0.43224607627069883,-0.3092807783814557,-0.08406190840604229,0.052753374990592475,0.026228806280859846,5.0
0.45762462383197805,-0.44000657168108087,-0.3265401338011554,0.011393252768583518,-0.07107944280873742,-0.0565648028525118,5.0
0.4706699292766437,-0.44000657168108087,-0.3207870153279223,0.01426840837352598,0.03677494580694072,-0.09007650641182789,5.0
0.4641472765543093,-0.44000657168108087,-0.3553056254615647,0.01886865664008194,0.07472370940858786,-0.10880363292677525,5.0
0.42501136022031927,-0.41284482925447596,-0.2920214733146347,0.039569775592963694,0.0577466308750857,-0.07923447883803791,5.0
0.42827268658148515,-0.40508433384409404,-0.3150338968546888,0.01311834543019702,0.1086778664755921,-0.04670842015986582,5.0
0.43805666566498175,-0.37016211298764296,-0.2977745917878678,-0.024258673927295065,0.05175472259566164,-0.00038342631306933193,5.0
0.44457931838731296,-0.37792260839802494,-0.28051528672104636,-0.032884142495502366,0.006815395274579267,0.021300615122374345,5.0
0.43805666566498175,-0.37792260839802494,-0.2862683548414012,-0.01678327180917659,0.0008234839500748077,0.03214263537050247,5.0
0.45110197110964684,-0.385683103808407,-0.25174974470775924,0.011968282486868058,-0.03013471897721745,0.03707082671682546,5.0
0.4315340129426505,-0.40120409462917084,-0.23449038928805963,0.0401448061879382,-0.10103899029601844,0.05776922796706223,5.0
0.44131799202614763,-0.41672508544993486,-0.2862683548414012,0.029219215897350322,-0.09005382004194036,0.04298465543079313,5.0
0.44784064474847884,-0.40120409462917084,-0.27476216824781335,0.05222045920268254,-0.07607269869323063,0.04988412301510533,5.0
0.43479533930381636,-0.38956334302333007,-0.2862683548414012,0.07062145577566627,-0.07407539390336905,0.05579795323177287,5.0
0.4543632974708127,-0.385683103808407,-0.21147796574800506,0.07062145577566627,-0.050107754695512034,0.05481231436142831,5.0
0.44131799202614763,-0.366281856792184,-0.2920214733146347,0.04934530359774009,0.015803260738795743,0.08536709830431104,5.0
0.44131799202614763,-0.366281856792184,-0.2977745917878678,0.018293625168417458,0.03377899166722869,0.07353944087637572,5.0
0.4315340129426505,-0.366281856792184,-0.25174974470775924,0.0136933769018615,-0.01615359496406239,0.08832401491534467,5.0
0.4315340129426505,-0.37792260839802494,-0.22873732116770482,0.03496952688806275,-0.08605921655237793,0.0971947587376461,5.0
0.43805666566498175,-0.40508433384409404,-0.3322932019215102,0.06027089454584543,-0.08506056415744713,0.11000805203052626,5.0
0.4543632974708127,-0.43224607627069883,-0.34379943886797637,0.06487114456578134,-0.031133371372148264,0.08043890996338778,5.0
0.45762462383197805,-0.4671683141076856,-0.3265401338011554,0.07637176347879131,0.04975741780580005,0.04495593166878235,5.0
0.4641472765543093,-0.45552756250184473,-0.3207870153279223,0.1045482880565514,0.06373854524467057,0.01637242396388884,5.0
0.44784064474847884,-0.42060532466485795,-0.2575028128281141,0.11892406783464363,0.05974393566494733,-0.012211083741004651,5.0
0.43479533930381636,-0.381802847612948,-0.23449038928805963,0.1263994699527621,0.0048180920072578536,-0.002354701048358694,5.0
0.43479533930381636,-0.381802847612948,-0.23449038928805963,0.11489884753299227,-0.08605921655237793,0.04397029430113766,5.0
0.44457931838731296,-0.385683103808407,-0.23449038928805963,0.09247263416511708,-0.11701741643458978,0.04791284677711611,5.0
0.44784064474847884,-0.381802847612948,-0.2977745917878678,0.06717126694567939,-0.06808348562394498,0.06565433592441883,5.0
0.44784064474847884,-0.4089645900395529,-0.2862683548414012,0.04301996179288066,-0.05310370883522406,0.07255380200603116,5.0
0.45110197110964684,-0.3934435992187889,-0.2977745917878678,0.033244433568931774,-0.03013471897721745,0.046927209409471426,5.0
0.46088595019314393,-0.41284482925447596,-0.3092807783814557,0.029219215897350322,0.009811349414291284,0.01341550960690501,5.0
0.45110197110964684,-0.42060532466485795,-0.2862683548414012,0.02806915361153884,-0.007165729499845909,0.0045447650332536525,5.0
0.44131799202614763,-0.42060532466485795,-0.2920214733146347,0.022318842839998906,-0.0021724709509073144,0.0006022125572752088,5.0
0.4315340129426505,-0.41284482925447596,-0.28051528672104636,0.025193998444941367,-0.03612663030172191,0.031156997251507865,5.0
0.43805666566498175,-0.4089645900395529,-0.2862683548414012,0.03496952688806275,-0.06408887604422174,0.03805646408447014,5.0
0.43805666566498175,-0.41284482925447596,-0.27476216824781335,0.048770272126075605,-0.0551010136250857,0.05776922796706223,5.0
0.43805666566498175,-0.4244855808603169,-0.27476216824781335,0.053945551864296046,-0.03213202224453887,0.01932933869654764,5.0
0.4543632974708127,-0.43224607627069883,-0.27476216824781335,0.053370522146011505,-0.034129325511860285,0.012429871487910398,5.0
0.45110197110964684,-0.4244855808603169,-0.26900904977458023,0.06889636136067283,-0.010161684591145559,0.026228806280859846,5.0
0.45110197110964684,-0.42060532466485795,-0.26900904977458023,0.057970770412567464,-0.017152246597723093,0.053826675491083775,5.0
0.44457931838731296,-0.42060532466485795,-0.27476216824781335,0.06027089454584543,-0.001173819317246608,0.011444232617565858,5.0
0.43479533930381636,-0.4089645900395529,-0.2862683548414012,0.053945551864296046,-0.05709831536986689,0.07748199335235416,5.0
0.43805666566498175,-0.41284482925447596,-0.21723108422123855,0.056245677750953973,-0.07607269869323063,0.040027741825159224,5.0
0.44131799202614763,-0.42836583705577586,-0.24599662623452578,0.06487114456578134,-0.05709831536986689,0.041999018063148444,5.0
0.44784064474847884,-0.4244855808603169,-0.2862683548414012,0.08269710616034068,-0.061092921904509725,0.0025734887952644303,5.0
0.4543632974708127,-0.42060532466485795,-0.3092807783814557,0.07694679495045577,-0.05410236123015486,-0.026010018909629062,5.0
0.44784064474847884,-0.3934435992187889,-0.30352771026110087,0.0401448061879382,-0.05410236123015486,-0.03192384912629659,5.0
0.43479533930381636,-0.37792260839802494,-0.2920214733146347,0.0136933769018615,-0.01615359496406239,0.026228806280859846,5.0
0.44784064474847884,-0.38956334302333007,-0.34379943886797637,0.020593749301695437,-0.05410236123015486,0.12380699020455035,5.0
0.42827268658148515,-0.3934435992187889,-0.26900904977458023,0.07119648374057085,-0.12400798319910546,0.15140486054179922,5.0
0.42501136022031927,-0.4361263324661577,-0.2862683548414012,0.09074753975012365,-0.17593787119454274,0.16717507044571298,5.0
0.43479533930381636,-0.44000657168108087,-0.3092807783814557,0.1079984768865383,-0.15596483547624812,0.12873517854547362,5.0
0.4543632974708127,-0.4438868278765397,-0.3150338968546888,0.10109809922656453,-0.05110640404536244,0.0410133791928039,5.0
0.45762462383197805,-0.43224607627069883,-0.3380463203947433,0.09419772858011051,0.021795172063300207,0.03214263537050247,5.0
0.45110197110964684,-0.40120409462917084,-0.2977745917878678,0.06602120400235044,0.010810001809222099,0.02031497681554225,5.0
0.44784064474847884,-0.397323838433712,-0.2977745917878678,0.06027089454584543,0.021795172063300207,0.056783592102117406,5.0
0.44457931838731296,-0.385683103808407,-0.2862683548414012,0.051645427731018066,0.03178168687736705,0.07156816313568663,5.0
0.4315340129426505,-0.385683103808407,-0.2920214733146347,0.02576902947826086,-0.007165729499845909,0.05284103662073923,5.0
0.43479533930381636,-0.397323838433712,-0.27476216824781335,-0.0041325864460778055,-0.0471117975107196,0.07452507674132054,5.0
0.43479533930381636,-0.40508433384409404,-0.2977745917878678,-0.005857680861071238,-0.059095620159728524,0.03805646408447014,5.0
0.44457931838731296,-0.41284482925447596,-0.3380463203947433,-0.017358303280841075,-0.06209157429944052,0.03904210295481468,5.0
0.44784064474847884,-0.43224607627069883,-0.3150338968546888,-0.023108614490725998,-0.07507404629829983,0.021300615122374345,5.0
0.44784064474847884,-0.43224607627069883,-0.3150338968546888,-0.019083394189074628,-0.05709831536986689,0.05185540075579441,5.0
0.4543632974708127,-0.4361263324661577,-0.3150338968546888,-0.008157803240969264,-0.05210505644029322,0.08438145943396652,5.0
0.45110197110964684,-0.45164732328692175,-0.3207870153279223,0.022318842839998906,-0.019149550245679558,0.07156816313568663,5.0
0.43805666566498175,-0.4671683141076856,-0.34379943886797637,0.04704517946446211,-0.029136068104826853,0.08832401491534467,5.0
0.4315340129426505,-0.4594078186973039,-0.2920214733146347,0.07522170404222221,-0.08406191176251632,0.11493624638224896,5.0
0.43805666566498175,-0.43224607627069883,-0.2977745917878678,0.09017251178521904,-0.05110640404536244,0.08339582056362196,5.0
0.43805666566498175,-0.43224607627069883,-0.2632559313013471,0.08269710616034068,-0.05110640404536244,0.06861124953005271,5.0
0.44131799202614763,-0.4244855808603169,-0.27476216824781335,0.07119648374057085,-0.10303629508588008,0.0764963544820096,5.0
0.4543632974708127,-0.43224607627069883,-0.2977745917878678,0.06602120400235044,-0.05410236123015486,0.06565433592441883,5.0
0.4543632974708127,-0.43224607627069883,-0.28051528672104636,0.06027089454584543,-0.02014820187934027,0.027214444399854456,5.0
0.44131799202614763,-0.4438868278765397,-0.2575028128281141,0.06429611309411687,-0.03313067463946968,0.028200082518849066,5.0
0.4315340129426505,-0.397323838433712,-0.26900904977458023,0.05739573894090298,-0.11801606882952059,0.03904210295481468,5.0
0.44457931838731296,-0.397323838433712,-0.3207870153279223,0.026344060511580357,-0.09704438680645605,0.04988412301510533,5.0
0.44784064474847884,-0.3934435992187889,-0.26900904977458023,-0.01045792912762719,-0.07807000348309227,0.07551071561166507,5.0
0.4543632974708127,-0.42060532466485795,-0.3495525573412098,-0.03575929985382477,-0.061092921904509725,0.06959688840039728,5.0
0.45110197110964684,-0.4089645900395529,-0.39557737924487907,-0.040359544613620874,-0.07107944280873742,0.05284103662073923,5.0
0.45110197110964684,-0.43224607627069883,-0.39557737924487907,-0.07026116009961453,-0.03313067463946968,0.015386785844894231,5.0
0.4543632974708127,-0.4244855808603169,-0.34379943886797637,-0.053585261448384144,0.007814046146969872,-0.002354701048358694,5.0
0.4315340129426505,-0.3934435992187889,-0.26900904977458023,-0.05186016703339068,-0.03313067463946968,0.035099550478836235,5.0
0.4315340129426505,-0.3934435992187889,-0.26900904977458023,-0.07198625451460797,-0.1599594450559714,0.06959688840039728,5.0
0.4315340129426505,-0.41672508544993486,-0.3668118624080309,-0.10763817770372668,-0.19890686409762975,0.10310858594891391,5.0
0.4315340129426505,-0.41672508544993486,-0.3668118624080309,-0.10706315324558195,-0.17793517598440434,0.13859156724891902,5.0
0.45762462383197805,-0.4671683141076856,-0.3610587439347978,-0.07946165663272643,-0.1459783237072617,0.11395060751190439,5.0
0.4543632974708127,-0.4904497833582958,-0.3898242859480853,-0.04783494673173933,-0.12400798319910546,0.09620911986730153,5.0
0.4543632974708127,-0.5059707741790599,-0.4185898027849337,-0.057035450278371015,-0.05210505644029322,0.06269741931338518,5.0
0.46088595019314393,-0.5059707741790599,-0.39557737924487907,-0.02655879981395298,-0.0031711225845680226,0.04889848414476079,5.0
0.43805666566498175,-0.48268930492844964,-0.3092807783814557,0.01656853250680396,-0.07607269869323063,0.06466869705407428,5.0
0.4315340129426505,-0.4632880579122268,-0.3092807783814557,0.010818221296919048,-0.11601876403965897,0.09818039760799063,5.0
0.42501136022031927,-0.44000657168108087,-0.3380463203947433,-0.0029825235027488395,-0.168947304430027,0.14351974957904287,5.0
0.44457931838731296,-0.44000657168108087,-0.3322932019215102,-0.023683645962390466,-0.14797562849712334,0.14647666619007652,5.0
0.44784064474847884,-0.44000657168108087,-0.37256498088126394,-0.02023345713240359,-0.10902820336530411,0.16224687609399027,5.0
0.44457931838731296,-0.45164732328692175,-0.3898242859480853,-0.01678327180917659,-0.11102550815516574,0.11395060751190439,5.0
0.44784064474847884,-0.474928792537532,-0.37831804900161875,-0.013908114450854181,-0.08805652134223957,0.095223480996957,5.0
0.44784064474847884,-0.48268930492844964,-0.39557737924487907,-0.009307866184298224,-0.05609966297493606,0.0922665643859234,5.0
0.44784064474847884,-0.4632880579122268,-0.4243429212581668,0.005642941558698601,-0.06408887604422174,0.06663997178936364,5.0
0.44131799202614763,-0.4671683141076856,-0.37831804900161875,-0.00010736965118631424,-0.08106595457772386,0.061711780443040674,5.0
0.45110197110964684,-0.4632880579122268,-0.37256498088126394,-0.0035575549744133127,-0.08605921655237793,0.08832401491534467,5.0
0.43805666566498175,-0.4632880579122268,-0.40708359101490643,-0.004707617917742273,-0.13699045215288438,0.08733837604500014,5.0
0.45762462383197805,-0.4594078186973039,-0.40708359101490643,0.0016177247638071188,-0.1329958425731611,0.07748199335235416,5.0
0.45110197110964684,-0.4943300395537549,-0.4243429212581668,-0.0064327123327357115,-0.08106595457772386,0.04298465543079313,5.0
0.4315340129426505,-0.49821029574921366,-0.3898242859480853,0.03381946460225126,-0.0351279779067911,0.07748199335235416,5.0
0.42827268658148515,-0.4943300395537549,-0.3495525573412098,0.1240993440661042,-0.1040349474808109,0.12774953967512911,5.0
0.45762462383197805,-0.5098510303745186,-0.4013304977181126,0.04589511739782312,-0.11002685576023495,0.07551071561166507,5.0
0.4641472765543093,-0.5098510303745186,-0.45886155656824834,0.08154704321701174,0.008812698541900683,0.06663997178936364,5.0
0.4543632974708127,-0.4943300395537549,-0.504886403648357,0.08959748031355455,-0.03213202224453887,0.03608518784648092,5.0
0.43805666566498175,-0.5098510303745186,-0.44160222632498797,0.1240993440661042,-0.0471117975107196,0.07156816313568663,5.0
0.4543632974708127,-0.5214917649998239,-0.4531084632714544,0.13157474618422266,-0.05609966297493606,0.06269741931338518,5.0
0.4543632974708127,-0.5059707741790599,-0.4185898027849337,0.13502493501420954,-0.015154943330401677,0.03904210295481468,5.0
0.44131799202614763,-0.4710485703031447,-0.40708359101490643,0.1292746273110845,0.008812698541900683,0.053826675491083775,5.0
0.4543632974708127,-0.4671683141076856,-0.38407116747485226,0.12467437553776867,-0.048110449905650395,0.04298465543079313,5.0
0.46088595019314393,-0.4594078186973039,-0.4243429212581668,0.12064916224963707,-0.0471117975107196,0.05086976188544987,5.0
0.4543632974708127,-0.45164732328692175,-0.41283670948813966,0.07637176347879131,-0.02014820187934027,0.05481231436142831,5.0
0.4543632974708127,-0.44000657168108087,-0.38407116747485226,0.03496952688806275,0.007814046146969872,0.029185721013518642,5.0
0.45762462383197805,-0.4438868278765397,-0.39557737924487907,0.03439449563557076,0.01480460834386493,0.01932933869654764,5.0
0.44784064474847884,-0.42836583705577586,-0.38407116747485226,-0.0018324640661797537,0.03178168687736705,0.026228806280859846,5.0
0.44131799202614763,-0.4438868278765397,-0.4013304977181126,-0.0323091110238379,0.019797867273438574,0.0045447650332536525,5.0
0.44131799202614763,-0.43224607627069883,-0.37256498088126394,-0.05761048175003549,-0.027138763314965224,0.01637242396388884,5.0
0.45110197110964684,-0.45164732328692175,-0.3668118624080309,-0.08003668810439092,-0.028137415709896037,0.011444232617565858,5.0
